"","subid","submit.date","submit.time","trial.num","condition","interval","numPic","itemNum","trialType","samePos","chosen","chosenIdx","kept","keptIdx","rt","face","faceIdx","exposureTrial","testTrial","exampleTrial","day.and.time","intervalNum","include","first.trial","numPicN","correct"
"1","A10C8F6B8X2HUS","May 13 2014","11:37:59",1,"Social","Seven",8,0,"Switch",0,"squirrel",3,"",0,2197,"eyes_center",-1,0,0,1,(May 13 2014 11:37:59),7,TRUE,FALSE,8,FALSE
"2","A10C8F6B8X2HUS","May 13 2014","11:37:59",2,"Social","Seven",8,0,"Switch",0,"squirrel",4,"",0,4165,"eyes_center",-1,0,0,1,(May 13 2014 11:37:59),7,TRUE,FALSE,8,FALSE
"3","A10C8F6B8X2HUS","May 13 2014","11:37:59",3,"Social","Seven",8,0,"Switch",0,"tomato",1,"",0,2319,"eyes_center",-1,0,0,1,(May 13 2014 11:37:59),7,TRUE,FALSE,8,FALSE
"4","A10C8F6B8X2HUS","May 13 2014","11:37:59",4,"Social","Seven",8,0,"Switch",0,"tomato",6,"",0,1122,"eyes_center",-1,0,0,1,(May 13 2014 11:37:59),7,TRUE,FALSE,8,FALSE
"5","A10C8F6B8X2HUS","May 13 2014","11:37:59",5,"Social","Seven",8,0,"Switch",0,"Novel125",3,"Novel1",5,2407,"eyes_up_right",3,1,0,0,(May 13 2014 11:37:59),7,TRUE,FALSE,8,FALSE
"6","A10C8F6B8X2HUS","May 13 2014","11:37:59",6,"Social","Seven",8,1,"Same",1,"Novel29",6,"Novel29",6,1489,"eyes_down_mid_right",6,1,0,0,(May 13 2014 11:37:59),7,TRUE,FALSE,8,TRUE
"7","A10C8F6B8X2HUS","May 13 2014","11:37:59",7,"Social","Seven",8,2,"Switch",0,"Novel50",1,"Novel116",4,3009,"eyes_up_mid_left",1,1,0,0,(May 13 2014 11:37:59),7,TRUE,FALSE,8,FALSE
"8","A10C8F6B8X2HUS","May 13 2014","11:37:59",8,"Social","Seven",8,3,"Same",0,"Novel19",0,"Novel19",0,2086,"eyes_up_left",0,1,0,0,(May 13 2014 11:37:59),7,TRUE,FALSE,8,TRUE
"9","A10C8F6B8X2HUS","May 13 2014","11:37:59",9,"Social","Seven",8,4,"Switch",1,"Novel49",4,"Novel33",1,2020,"eyes_down_left",4,1,0,0,(May 13 2014 11:37:59),7,TRUE,FALSE,8,FALSE
"10","A10C8F6B8X2HUS","May 13 2014","11:37:59",10,"Social","Seven",8,5,"Same",1,"Novel130",4,"Novel130",4,2126,"eyes_down_left",4,1,0,0,(May 13 2014 11:37:59),7,TRUE,FALSE,8,TRUE
"11","A10C8F6B8X2HUS","May 13 2014","11:37:59",11,"Social","Seven",8,6,"Switch",1,"Novel82",1,"Novel138",7,2228,"eyes_up_mid_left",1,1,0,0,(May 13 2014 11:37:59),7,TRUE,FALSE,8,FALSE
"12","A10C8F6B8X2HUS","May 13 2014","11:37:59",12,"Social","Seven",8,7,"Same",0,"Novel69",4,"Novel69",4,2144,"eyes_down_left",4,1,0,0,(May 13 2014 11:37:59),7,TRUE,FALSE,8,TRUE
"13","A10C8F6B8X2HUS","May 13 2014","11:37:59",13,"Social","Seven",8,0,"Switch",0,"Novel1",7,"Novel1",5,13332,"eyes_center",-1,0,1,0,(May 13 2014 11:37:59),7,TRUE,TRUE,8,TRUE
"14","A10C8F6B8X2HUS","May 13 2014","11:37:59",14,"Social","Seven",8,1,"Same",1,"Novel29",6,"Novel29",6,1436,"eyes_center",-1,0,1,0,(May 13 2014 11:37:59),7,TRUE,FALSE,8,TRUE
"15","A10C8F6B8X2HUS","May 13 2014","11:37:59",15,"Social","Seven",8,2,"Switch",0,"Novel121",4,"Novel116",4,7101,"eyes_center",-1,0,1,0,(May 13 2014 11:37:59),7,TRUE,FALSE,8,FALSE
"16","A10C8F6B8X2HUS","May 13 2014","11:37:59",16,"Social","Seven",8,3,"Same",0,"Novel19",1,"Novel19",0,2637,"eyes_center",-1,0,1,0,(May 13 2014 11:37:59),7,TRUE,FALSE,8,TRUE
"17","A10C8F6B8X2HUS","May 13 2014","11:37:59",17,"Social","Seven",8,4,"Switch",1,"Novel104",0,"Novel33",1,6141,"eyes_center",-1,0,1,0,(May 13 2014 11:37:59),7,TRUE,FALSE,8,FALSE
"18","A10C8F6B8X2HUS","May 13 2014","11:37:59",18,"Social","Seven",8,5,"Same",1,"Novel130",4,"Novel130",4,2430,"eyes_center",-1,0,1,0,(May 13 2014 11:37:59),7,TRUE,FALSE,8,TRUE
"19","A10C8F6B8X2HUS","May 13 2014","11:37:59",19,"Social","Seven",8,6,"Switch",1,"Novel55",6,"Novel138",7,6912,"eyes_center",-1,0,1,0,(May 13 2014 11:37:59),7,TRUE,FALSE,8,FALSE
"20","A10C8F6B8X2HUS","May 13 2014","11:37:59",20,"Social","Seven",8,7,"Same",0,"Novel69",5,"Novel69",4,12094,"eyes_center",-1,0,1,0,(May 13 2014 11:37:59),7,TRUE,FALSE,8,TRUE
"21","A10QVKS005YVLL","May 12 2014","07:39:45",1,"Social","Zero",8,0,"Same",1,"squirrel",3,"",0,1628,"eyes_center",-1,0,0,1,(May 12 2014 07:39:45),0,TRUE,FALSE,8,FALSE
"22","A10QVKS005YVLL","May 12 2014","07:39:45",2,"Social","Zero",8,0,"Same",1,"squirrel",4,"",0,1112,"eyes_center",-1,0,0,1,(May 12 2014 07:39:45),0,TRUE,FALSE,8,FALSE
"23","A10QVKS005YVLL","May 12 2014","07:39:45",3,"Social","Zero",8,0,"Same",1,"tomato",1,"",0,5242,"eyes_center",-1,0,0,1,(May 12 2014 07:39:45),0,TRUE,FALSE,8,FALSE
"24","A10QVKS005YVLL","May 12 2014","07:39:45",4,"Social","Zero",8,0,"Same",1,"tomato",6,"",0,3723,"eyes_center",-1,0,0,1,(May 12 2014 07:39:45),0,TRUE,FALSE,8,FALSE
"25","A10QVKS005YVLL","May 12 2014","07:39:45",5,"Social","Zero",8,0,"Same",1,"Novel21",1,"Novel21",1,2062,"eyes_up_mid_left",1,1,0,0,(May 12 2014 07:39:45),0,TRUE,FALSE,8,TRUE
"26","A10QVKS005YVLL","May 12 2014","07:39:45",6,"Social","Zero",8,0,"Same",1,"Novel21",1,"Novel21",1,1411,"eyes_center",-1,0,1,0,(May 12 2014 07:39:45),0,TRUE,TRUE,8,TRUE
"27","A10QVKS005YVLL","May 12 2014","07:39:45",7,"Social","Zero",8,1,"Switch",1,"Novel101",4,"Novel20",3,1507,"eyes_down_left",4,1,0,0,(May 12 2014 07:39:45),0,TRUE,FALSE,8,FALSE
"28","A10QVKS005YVLL","May 12 2014","07:39:45",8,"Social","Zero",8,1,"Switch",1,"Novel83",2,"Novel20",3,9611,"eyes_center",-1,0,1,0,(May 12 2014 07:39:45),0,TRUE,FALSE,8,FALSE
"29","A10QVKS005YVLL","May 12 2014","07:39:45",9,"Social","Zero",8,2,"Same",0,"Novel27",1,"Novel27",1,1572,"eyes_up_mid_left",1,1,0,0,(May 12 2014 07:39:45),0,TRUE,FALSE,8,TRUE
"30","A10QVKS005YVLL","May 12 2014","07:39:45",10,"Social","Zero",8,2,"Same",0,"Novel27",0,"Novel27",1,891,"eyes_center",-1,0,1,0,(May 12 2014 07:39:45),0,TRUE,FALSE,8,TRUE
"31","A10QVKS005YVLL","May 12 2014","07:39:45",11,"Social","Zero",8,3,"Switch",1,"Novel100",1,"Novel112",0,1093,"eyes_up_mid_left",1,1,0,0,(May 12 2014 07:39:45),0,TRUE,FALSE,8,FALSE
"32","A10QVKS005YVLL","May 12 2014","07:39:45",12,"Social","Zero",8,3,"Switch",1,"Novel89",7,"Novel112",0,8254,"eyes_center",-1,0,1,0,(May 12 2014 07:39:45),0,TRUE,FALSE,8,FALSE
"33","A10QVKS005YVLL","May 12 2014","07:39:45",13,"Social","Zero",8,4,"Same",0,"Novel54",1,"Novel54",1,1158,"eyes_up_mid_left",1,1,0,0,(May 12 2014 07:39:45),0,TRUE,FALSE,8,TRUE
"34","A10QVKS005YVLL","May 12 2014","07:39:45",14,"Social","Zero",8,4,"Same",0,"Novel54",2,"Novel54",1,827,"eyes_center",-1,0,1,0,(May 12 2014 07:39:45),0,TRUE,FALSE,8,TRUE
"35","A10QVKS005YVLL","May 12 2014","07:39:45",15,"Social","Zero",8,5,"Switch",0,"Novel129",3,"Novel99",7,979,"eyes_up_right",3,1,0,0,(May 12 2014 07:39:45),0,TRUE,FALSE,8,FALSE
"36","A10QVKS005YVLL","May 12 2014","07:39:45",16,"Social","Zero",8,5,"Switch",0,"Novel76",4,"Novel99",7,5372,"eyes_center",-1,0,1,0,(May 12 2014 07:39:45),0,TRUE,FALSE,8,FALSE
"37","A10QVKS005YVLL","May 12 2014","07:39:45",17,"Social","Zero",8,6,"Same",1,"Novel84",7,"Novel84",7,4578,"eyes_down_right",7,1,0,0,(May 12 2014 07:39:45),0,TRUE,FALSE,8,TRUE
"38","A10QVKS005YVLL","May 12 2014","07:39:45",18,"Social","Zero",8,6,"Same",1,"Novel84",7,"Novel84",7,852,"eyes_center",-1,0,1,0,(May 12 2014 07:39:45),0,TRUE,FALSE,8,TRUE
"39","A10QVKS005YVLL","May 12 2014","07:39:45",19,"Social","Zero",8,7,"Switch",0,"Novel122",5,"Novel118",0,1964,"eyes_down_mid_left",5,1,0,0,(May 12 2014 07:39:45),0,TRUE,FALSE,8,FALSE
"40","A10QVKS005YVLL","May 12 2014","07:39:45",20,"Social","Zero",8,7,"Switch",0,"Novel118",3,"Novel118",0,3133,"eyes_center",-1,0,1,0,(May 12 2014 07:39:45),0,TRUE,FALSE,8,TRUE
"41","A10RI4TLDUCPM1","May 05 2014","21:18:13",1,"No-Social","One",8,0,"Switch",0,"squirrel",3,"",0,1772,"eyes_center",-1,0,0,1,(May 05 2014 21:18:13),1,TRUE,FALSE,8,FALSE
"42","A10RI4TLDUCPM1","May 05 2014","21:18:13",2,"No-Social","One",8,0,"Switch",0,"squirrel",4,"",0,1424,"eyes_center",-1,0,0,1,(May 05 2014 21:18:13),1,TRUE,FALSE,8,FALSE
"43","A10RI4TLDUCPM1","May 05 2014","21:18:13",3,"No-Social","One",8,0,"Switch",0,"tomato",1,"",0,1441,"eyes_center",-1,0,0,1,(May 05 2014 21:18:13),1,TRUE,FALSE,8,FALSE
"44","A10RI4TLDUCPM1","May 05 2014","21:18:13",4,"No-Social","One",8,0,"Switch",0,"tomato",6,"",0,994,"eyes_center",-1,0,0,1,(May 05 2014 21:18:13),1,TRUE,FALSE,8,FALSE
"45","A10RI4TLDUCPM1","May 05 2014","21:18:13",5,"No-Social","One",8,0,"Switch",0,"Novel112",4,"Novel34",3,8023,"eyes_center",-1,1,0,0,(May 05 2014 21:18:13),1,TRUE,FALSE,8,FALSE
"46","A10RI4TLDUCPM1","May 05 2014","21:18:13",6,"No-Social","One",8,1,"Same",1,"Novel67",6,"Novel67",6,4284,"eyes_center",-1,1,0,0,(May 05 2014 21:18:13),1,TRUE,FALSE,8,TRUE
"47","A10RI4TLDUCPM1","May 05 2014","21:18:13",7,"No-Social","One",8,0,"Switch",0,"Novel34",0,"Novel34",3,8508,"eyes_center",-1,0,1,0,(May 05 2014 21:18:13),1,TRUE,TRUE,8,TRUE
"48","A10RI4TLDUCPM1","May 05 2014","21:18:13",8,"No-Social","One",8,1,"Same",1,"Novel67",6,"Novel67",6,4176,"eyes_center",-1,0,1,0,(May 05 2014 21:18:13),1,TRUE,FALSE,8,TRUE
"49","A10RI4TLDUCPM1","May 05 2014","21:18:13",9,"No-Social","One",8,2,"Switch",1,"Novel13",1,"Novel9",0,4453,"eyes_center",-1,1,0,0,(May 05 2014 21:18:13),1,TRUE,FALSE,8,FALSE
"50","A10RI4TLDUCPM1","May 05 2014","21:18:13",10,"No-Social","One",8,3,"Same",0,"Novel15",6,"Novel15",6,3741,"eyes_center",-1,1,0,0,(May 05 2014 21:18:13),1,TRUE,FALSE,8,TRUE
"51","A10RI4TLDUCPM1","May 05 2014","21:18:13",11,"No-Social","One",8,2,"Switch",1,"Novel9",0,"Novel9",0,4831,"eyes_center",-1,0,1,0,(May 05 2014 21:18:13),1,TRUE,FALSE,8,TRUE
"52","A10RI4TLDUCPM1","May 05 2014","21:18:13",12,"No-Social","One",8,3,"Same",0,"Novel15",7,"Novel15",6,3285,"eyes_center",-1,0,1,0,(May 05 2014 21:18:13),1,TRUE,FALSE,8,TRUE
"53","A10RI4TLDUCPM1","May 05 2014","21:18:13",13,"No-Social","One",8,4,"Switch",0,"Novel107",3,"Novel4",6,7216,"eyes_center",-1,1,0,0,(May 05 2014 21:18:13),1,TRUE,FALSE,8,FALSE
"54","A10RI4TLDUCPM1","May 05 2014","21:18:13",14,"No-Social","One",8,5,"Same",1,"Novel76",0,"Novel76",0,3893,"eyes_center",-1,1,0,0,(May 05 2014 21:18:13),1,TRUE,FALSE,8,TRUE
"55","A10RI4TLDUCPM1","May 05 2014","21:18:13",15,"No-Social","One",8,4,"Switch",0,"Novel1",5,"Novel4",6,6527,"eyes_center",-1,0,1,0,(May 05 2014 21:18:13),1,TRUE,FALSE,8,FALSE
"56","A10RI4TLDUCPM1","May 05 2014","21:18:13",16,"No-Social","One",8,5,"Same",1,"Novel76",0,"Novel76",0,1810,"eyes_center",-1,0,1,0,(May 05 2014 21:18:13),1,TRUE,FALSE,8,TRUE
"57","A10RI4TLDUCPM1","May 05 2014","21:18:13",17,"No-Social","One",8,6,"Switch",1,"Novel64",4,"Novel37",0,3942,"eyes_center",-1,1,0,0,(May 05 2014 21:18:13),1,TRUE,FALSE,8,FALSE
"58","A10RI4TLDUCPM1","May 05 2014","21:18:13",18,"No-Social","One",8,7,"Same",0,"Novel81",2,"Novel81",2,2783,"eyes_center",-1,1,0,0,(May 05 2014 21:18:13),1,TRUE,FALSE,8,TRUE
"59","A10RI4TLDUCPM1","May 05 2014","21:18:13",19,"No-Social","One",8,6,"Switch",1,"Novel8",3,"Novel37",0,8941,"eyes_center",-1,0,1,0,(May 05 2014 21:18:13),1,TRUE,FALSE,8,FALSE
"60","A10RI4TLDUCPM1","May 05 2014","21:18:13",20,"No-Social","One",8,7,"Same",0,"Novel81",7,"Novel81",2,2987,"eyes_center",-1,0,1,0,(May 05 2014 21:18:13),1,TRUE,FALSE,8,TRUE
"61","A1102MP1CZI32V","May 05 2014","16:42:55",1,"No-Social","One",8,0,"Switch",0,"squirrel",3,"",0,1870,"eyes_center",-1,0,0,1,(May 05 2014 16:42:55),1,TRUE,FALSE,8,FALSE
"62","A1102MP1CZI32V","May 05 2014","16:42:55",2,"No-Social","One",8,0,"Switch",0,"squirrel",4,"",0,926,"eyes_center",-1,0,0,1,(May 05 2014 16:42:55),1,TRUE,FALSE,8,FALSE
"63","A1102MP1CZI32V","May 05 2014","16:42:55",3,"No-Social","One",8,0,"Switch",0,"tomato",1,"",0,1247,"eyes_center",-1,0,0,1,(May 05 2014 16:42:55),1,TRUE,FALSE,8,FALSE
"64","A1102MP1CZI32V","May 05 2014","16:42:55",4,"No-Social","One",8,0,"Switch",0,"tomato",6,"",0,1029,"eyes_center",-1,0,0,1,(May 05 2014 16:42:55),1,TRUE,FALSE,8,FALSE
"65","A1102MP1CZI32V","May 05 2014","16:42:55",5,"No-Social","One",8,0,"Switch",0,"Novel123",6,"Novel112",3,2665,"eyes_center",-1,1,0,0,(May 05 2014 16:42:55),1,TRUE,FALSE,8,FALSE
"66","A1102MP1CZI32V","May 05 2014","16:42:55",6,"No-Social","One",8,1,"Same",1,"Novel99",5,"Novel99",5,3623,"eyes_center",-1,1,0,0,(May 05 2014 16:42:55),1,TRUE,FALSE,8,TRUE
"67","A1102MP1CZI32V","May 05 2014","16:42:55",7,"No-Social","One",8,0,"Switch",0,"Novel112",1,"Novel112",3,3756,"eyes_center",-1,0,1,0,(May 05 2014 16:42:55),1,TRUE,TRUE,8,TRUE
"68","A1102MP1CZI32V","May 05 2014","16:42:55",8,"No-Social","One",8,1,"Same",1,"Novel99",5,"Novel99",5,1403,"eyes_center",-1,0,1,0,(May 05 2014 16:42:55),1,TRUE,FALSE,8,TRUE
"69","A1102MP1CZI32V","May 05 2014","16:42:55",9,"No-Social","One",8,2,"Switch",1,"Novel79",7,"Novel104",3,3279,"eyes_center",-1,1,0,0,(May 05 2014 16:42:55),1,TRUE,FALSE,8,FALSE
"70","A1102MP1CZI32V","May 05 2014","16:42:55",10,"No-Social","One",8,3,"Same",1,"Novel100",3,"Novel100",3,3403,"eyes_center",-1,1,0,0,(May 05 2014 16:42:55),1,TRUE,FALSE,8,TRUE
"71","A1102MP1CZI32V","May 05 2014","16:42:55",11,"No-Social","One",8,2,"Switch",1,"Novel65",4,"Novel104",3,4041,"eyes_center",-1,0,1,0,(May 05 2014 16:42:55),1,TRUE,FALSE,8,FALSE
"72","A1102MP1CZI32V","May 05 2014","16:42:55",12,"No-Social","One",8,3,"Same",1,"Novel100",3,"Novel100",3,1977,"eyes_center",-1,0,1,0,(May 05 2014 16:42:55),1,TRUE,FALSE,8,TRUE
"73","A1102MP1CZI32V","May 05 2014","16:42:55",13,"No-Social","One",8,4,"Switch",1,"Novel121",5,"Novel126",3,2031,"eyes_center",-1,1,0,0,(May 05 2014 16:42:55),1,TRUE,FALSE,8,FALSE
"74","A1102MP1CZI32V","May 05 2014","16:42:55",14,"No-Social","One",8,5,"Same",0,"Novel42",7,"Novel42",7,3563,"eyes_center",-1,1,0,0,(May 05 2014 16:42:55),1,TRUE,FALSE,8,TRUE
"75","A1102MP1CZI32V","May 05 2014","16:42:55",15,"No-Social","One",8,4,"Switch",1,"Novel43",4,"Novel126",3,2480,"eyes_center",-1,0,1,0,(May 05 2014 16:42:55),1,TRUE,FALSE,8,FALSE
"76","A1102MP1CZI32V","May 05 2014","16:42:55",16,"No-Social","One",8,5,"Same",0,"Novel42",1,"Novel42",7,1182,"eyes_center",-1,0,1,0,(May 05 2014 16:42:55),1,TRUE,FALSE,8,TRUE
"77","A1102MP1CZI32V","May 05 2014","16:42:55",17,"No-Social","One",8,6,"Switch",0,"Novel85",7,"Novel32",3,3764,"eyes_center",-1,1,0,0,(May 05 2014 16:42:55),1,TRUE,FALSE,8,FALSE
"78","A1102MP1CZI32V","May 05 2014","16:42:55",18,"No-Social","One",8,7,"Same",0,"Novel21",4,"Novel21",4,2755,"eyes_center",-1,1,0,0,(May 05 2014 16:42:55),1,TRUE,FALSE,8,TRUE
"79","A1102MP1CZI32V","May 05 2014","16:42:55",19,"No-Social","One",8,6,"Switch",0,"Novel28",1,"Novel32",3,2851,"eyes_center",-1,0,1,0,(May 05 2014 16:42:55),1,TRUE,FALSE,8,FALSE
"80","A1102MP1CZI32V","May 05 2014","16:42:55",20,"No-Social","One",8,7,"Same",0,"Novel21",6,"Novel21",4,2700,"eyes_center",-1,0,1,0,(May 05 2014 16:42:55),1,TRUE,FALSE,8,TRUE
"81","A12MCEUE6PYJYE","May 13 2014","09:15:59",1,"No-Social","Seven",8,0,"Same",0,"squirrel",3,"",0,1941,"eyes_center",-1,0,0,1,(May 13 2014 09:15:59),7,TRUE,FALSE,8,FALSE
"82","A12MCEUE6PYJYE","May 13 2014","09:15:59",2,"No-Social","Seven",8,0,"Same",0,"squirrel",4,"",0,2758,"eyes_center",-1,0,0,1,(May 13 2014 09:15:59),7,TRUE,FALSE,8,FALSE
"83","A12MCEUE6PYJYE","May 13 2014","09:15:59",3,"No-Social","Seven",8,0,"Same",0,"tomato",1,"",0,2340,"eyes_center",-1,0,0,1,(May 13 2014 09:15:59),7,TRUE,FALSE,8,FALSE
"84","A12MCEUE6PYJYE","May 13 2014","09:15:59",4,"No-Social","Seven",8,0,"Same",0,"tomato",6,"",0,2110,"eyes_center",-1,0,0,1,(May 13 2014 09:15:59),7,TRUE,FALSE,8,FALSE
"85","A12MCEUE6PYJYE","May 13 2014","09:15:59",5,"No-Social","Seven",8,0,"Same",0,"Novel49",3,"Novel49",3,8970,"eyes_center",-1,1,0,0,(May 13 2014 09:15:59),7,TRUE,FALSE,8,TRUE
"86","A12MCEUE6PYJYE","May 13 2014","09:15:59",6,"No-Social","Seven",8,1,"Switch",1,"Novel134",3,"Novel140",7,6019,"eyes_center",-1,1,0,0,(May 13 2014 09:15:59),7,TRUE,FALSE,8,FALSE
"87","A12MCEUE6PYJYE","May 13 2014","09:15:59",7,"No-Social","Seven",8,2,"Same",1,"Novel106",3,"Novel106",3,3866,"eyes_center",-1,1,0,0,(May 13 2014 09:15:59),7,TRUE,FALSE,8,TRUE
"88","A12MCEUE6PYJYE","May 13 2014","09:15:59",8,"No-Social","Seven",8,3,"Switch",1,"Novel130",0,"Novel119",6,5482,"eyes_center",-1,1,0,0,(May 13 2014 09:15:59),7,TRUE,FALSE,8,FALSE
"89","A12MCEUE6PYJYE","May 13 2014","09:15:59",9,"No-Social","Seven",8,4,"Same",0,"Novel76",0,"Novel76",0,2682,"eyes_center",-1,1,0,0,(May 13 2014 09:15:59),7,TRUE,FALSE,8,TRUE
"90","A12MCEUE6PYJYE","May 13 2014","09:15:59",10,"No-Social","Seven",8,5,"Switch",0,"Novel68",0,"Novel67",5,1511,"eyes_center",-1,1,0,0,(May 13 2014 09:15:59),7,TRUE,FALSE,8,FALSE
"91","A12MCEUE6PYJYE","May 13 2014","09:15:59",11,"No-Social","Seven",8,6,"Same",1,"Novel58",0,"Novel58",0,5193,"eyes_center",-1,1,0,0,(May 13 2014 09:15:59),7,TRUE,FALSE,8,TRUE
"92","A12MCEUE6PYJYE","May 13 2014","09:15:59",12,"No-Social","Seven",8,7,"Switch",0,"Novel60",0,"Novel35",6,2974,"eyes_center",-1,1,0,0,(May 13 2014 09:15:59),7,TRUE,FALSE,8,FALSE
"93","A12MCEUE6PYJYE","May 13 2014","09:15:59",13,"No-Social","Seven",8,0,"Same",0,"Novel131",1,"Novel49",3,4295,"eyes_center",-1,0,1,0,(May 13 2014 09:15:59),7,TRUE,TRUE,8,FALSE
"94","A12MCEUE6PYJYE","May 13 2014","09:15:59",14,"No-Social","Seven",8,1,"Switch",1,"Novel69",2,"Novel140",7,1881,"eyes_center",-1,0,1,0,(May 13 2014 09:15:59),7,TRUE,FALSE,8,FALSE
"95","A12MCEUE6PYJYE","May 13 2014","09:15:59",15,"No-Social","Seven",8,2,"Same",1,"Novel12",6,"Novel106",3,1793,"eyes_center",-1,0,1,0,(May 13 2014 09:15:59),7,TRUE,FALSE,8,FALSE
"96","A12MCEUE6PYJYE","May 13 2014","09:15:59",16,"No-Social","Seven",8,3,"Switch",1,"Novel15",5,"Novel119",6,1930,"eyes_center",-1,0,1,0,(May 13 2014 09:15:59),7,TRUE,FALSE,8,FALSE
"97","A12MCEUE6PYJYE","May 13 2014","09:15:59",17,"No-Social","Seven",8,4,"Same",0,"Novel118",4,"Novel76",0,1782,"eyes_center",-1,0,1,0,(May 13 2014 09:15:59),7,TRUE,FALSE,8,FALSE
"98","A12MCEUE6PYJYE","May 13 2014","09:15:59",18,"No-Social","Seven",8,5,"Switch",0,"Novel67",7,"Novel67",5,1945,"eyes_center",-1,0,1,0,(May 13 2014 09:15:59),7,TRUE,FALSE,8,TRUE
"99","A12MCEUE6PYJYE","May 13 2014","09:15:59",19,"No-Social","Seven",8,6,"Same",1,"Novel114",7,"Novel58",0,1337,"eyes_center",-1,0,1,0,(May 13 2014 09:15:59),7,TRUE,FALSE,8,FALSE
"100","A12MCEUE6PYJYE","May 13 2014","09:15:59",20,"No-Social","Seven",8,7,"Switch",0,"Novel23",7,"Novel35",6,1056,"eyes_center",-1,0,1,0,(May 13 2014 09:15:59),7,TRUE,FALSE,8,FALSE
"101","A12VU5YSHGQH2V","May 11 2014","11:56:33",1,"No-Social","One",8,0,"Switch",1,"squirrel",3,"",0,2270,"eyes_center",-1,0,0,1,(May 11 2014 11:56:33),1,TRUE,FALSE,8,FALSE
"102","A12VU5YSHGQH2V","May 11 2014","11:56:33",2,"No-Social","One",8,0,"Switch",1,"squirrel",4,"",0,2281,"eyes_center",-1,0,0,1,(May 11 2014 11:56:33),1,TRUE,FALSE,8,FALSE
"103","A12VU5YSHGQH2V","May 11 2014","11:56:33",3,"No-Social","One",8,0,"Switch",1,"tomato",1,"",0,1913,"eyes_center",-1,0,0,1,(May 11 2014 11:56:33),1,TRUE,FALSE,8,FALSE
"104","A12VU5YSHGQH2V","May 11 2014","11:56:33",4,"No-Social","One",8,0,"Switch",1,"tomato",6,"",0,5810,"eyes_center",-1,0,0,1,(May 11 2014 11:56:33),1,TRUE,FALSE,8,FALSE
"105","A12VU5YSHGQH2V","May 11 2014","11:56:33",5,"No-Social","One",8,0,"Switch",1,"Novel133",6,"Novel47",0,1415,"eyes_center",-1,1,0,0,(May 11 2014 11:56:33),1,TRUE,FALSE,8,FALSE
"106","A12VU5YSHGQH2V","May 11 2014","11:56:33",6,"No-Social","One",8,1,"Same",1,"Novel117",3,"Novel117",3,4498,"eyes_center",-1,1,0,0,(May 11 2014 11:56:33),1,TRUE,FALSE,8,TRUE
"107","A12VU5YSHGQH2V","May 11 2014","11:56:33",7,"No-Social","One",8,0,"Switch",1,"Novel19",3,"Novel47",0,4553,"eyes_center",-1,0,1,0,(May 11 2014 11:56:33),1,TRUE,TRUE,8,FALSE
"108","A12VU5YSHGQH2V","May 11 2014","11:56:33",8,"No-Social","One",8,1,"Same",1,"Novel32",2,"Novel117",3,2407,"eyes_center",-1,0,1,0,(May 11 2014 11:56:33),1,TRUE,FALSE,8,FALSE
"109","A12VU5YSHGQH2V","May 11 2014","11:56:33",9,"No-Social","One",8,2,"Switch",1,"Novel22",1,"Novel41",7,1588,"eyes_center",-1,1,0,0,(May 11 2014 11:56:33),1,TRUE,FALSE,8,FALSE
"110","A12VU5YSHGQH2V","May 11 2014","11:56:33",10,"No-Social","One",8,3,"Same",1,"Novel98",5,"Novel98",5,2360,"eyes_center",-1,1,0,0,(May 11 2014 11:56:33),1,TRUE,FALSE,8,TRUE
"111","A12VU5YSHGQH2V","May 11 2014","11:56:33",11,"No-Social","One",8,2,"Switch",1,"Novel107",1,"Novel41",7,7294,"eyes_center",-1,0,1,0,(May 11 2014 11:56:33),1,TRUE,FALSE,8,FALSE
"112","A12VU5YSHGQH2V","May 11 2014","11:56:33",12,"No-Social","One",8,3,"Same",1,"Novel98",5,"Novel98",5,3424,"eyes_center",-1,0,1,0,(May 11 2014 11:56:33),1,TRUE,FALSE,8,TRUE
"113","A12VU5YSHGQH2V","May 11 2014","11:56:33",13,"No-Social","One",8,4,"Switch",0,"Novel12",5,"Novel120",6,2137,"eyes_center",-1,1,0,0,(May 11 2014 11:56:33),1,TRUE,FALSE,8,FALSE
"114","A12VU5YSHGQH2V","May 11 2014","11:56:33",14,"No-Social","One",8,5,"Same",0,"Novel138",0,"Novel138",0,5234,"eyes_center",-1,1,0,0,(May 11 2014 11:56:33),1,TRUE,FALSE,8,TRUE
"115","A12VU5YSHGQH2V","May 11 2014","11:56:33",15,"No-Social","One",8,4,"Switch",0,"Novel38",1,"Novel120",6,1242,"eyes_center",-1,0,1,0,(May 11 2014 11:56:33),1,TRUE,FALSE,8,FALSE
"116","A12VU5YSHGQH2V","May 11 2014","11:56:33",16,"No-Social","One",8,5,"Same",0,"Novel25",3,"Novel138",0,1729,"eyes_center",-1,0,1,0,(May 11 2014 11:56:33),1,TRUE,FALSE,8,FALSE
"117","A12VU5YSHGQH2V","May 11 2014","11:56:33",17,"No-Social","One",8,6,"Switch",0,"Novel33",2,"Novel43",7,1494,"eyes_center",-1,1,0,0,(May 11 2014 11:56:33),1,TRUE,FALSE,8,FALSE
"118","A12VU5YSHGQH2V","May 11 2014","11:56:33",18,"No-Social","One",8,7,"Same",0,"Novel101",5,"Novel101",5,1659,"eyes_center",-1,1,0,0,(May 11 2014 11:56:33),1,TRUE,FALSE,8,TRUE
"119","A12VU5YSHGQH2V","May 11 2014","11:56:33",19,"No-Social","One",8,6,"Switch",0,"Novel48",1,"Novel43",7,4820,"eyes_center",-1,0,1,0,(May 11 2014 11:56:33),1,TRUE,FALSE,8,FALSE
"120","A12VU5YSHGQH2V","May 11 2014","11:56:33",20,"No-Social","One",8,7,"Same",0,"Novel64",6,"Novel101",5,2362,"eyes_center",-1,0,1,0,(May 11 2014 11:56:33),1,TRUE,FALSE,8,FALSE
"121","A12ZB13IA3SB6U","May 05 2014","16:42:56",1,"No-Social","One",8,0,"Switch",0,"squirrel",3,"",0,10437,"eyes_center",-1,0,0,1,(May 05 2014 16:42:56),1,TRUE,FALSE,8,FALSE
"122","A12ZB13IA3SB6U","May 05 2014","16:42:56",2,"No-Social","One",8,0,"Switch",0,"squirrel",4,"",0,2499,"eyes_center",-1,0,0,1,(May 05 2014 16:42:56),1,TRUE,FALSE,8,FALSE
"123","A12ZB13IA3SB6U","May 05 2014","16:42:56",3,"No-Social","One",8,0,"Switch",0,"tomato",1,"",0,2458,"eyes_center",-1,0,0,1,(May 05 2014 16:42:56),1,TRUE,FALSE,8,FALSE
"124","A12ZB13IA3SB6U","May 05 2014","16:42:56",4,"No-Social","One",8,0,"Switch",0,"tomato",6,"",0,2233,"eyes_center",-1,0,0,1,(May 05 2014 16:42:56),1,TRUE,FALSE,8,FALSE
"125","A12ZB13IA3SB6U","May 05 2014","16:42:56",5,"No-Social","One",8,0,"Switch",0,"Novel71",7,"Novel53",2,6905,"eyes_center",-1,1,0,0,(May 05 2014 16:42:56),1,TRUE,FALSE,8,FALSE
"126","A12ZB13IA3SB6U","May 05 2014","16:42:56",6,"No-Social","One",8,1,"Same",0,"Novel63",2,"Novel63",2,9265,"eyes_center",-1,1,0,0,(May 05 2014 16:42:56),1,TRUE,FALSE,8,TRUE
"127","A12ZB13IA3SB6U","May 05 2014","16:42:56",7,"No-Social","One",8,0,"Switch",0,"Novel86",5,"Novel53",2,4508,"eyes_center",-1,0,1,0,(May 05 2014 16:42:56),1,TRUE,TRUE,8,FALSE
"128","A12ZB13IA3SB6U","May 05 2014","16:42:56",8,"No-Social","One",8,1,"Same",0,"Novel127",6,"Novel63",2,6615,"eyes_center",-1,0,1,0,(May 05 2014 16:42:56),1,TRUE,FALSE,8,FALSE
"129","A12ZB13IA3SB6U","May 05 2014","16:42:56",9,"No-Social","One",8,2,"Switch",0,"Novel137",5,"Novel56",3,6432,"eyes_center",-1,1,0,0,(May 05 2014 16:42:56),1,TRUE,FALSE,8,FALSE
"130","A12ZB13IA3SB6U","May 05 2014","16:42:56",10,"No-Social","One",8,3,"Same",0,"Novel70",6,"Novel70",6,5609,"eyes_center",-1,1,0,0,(May 05 2014 16:42:56),1,TRUE,FALSE,8,TRUE
"131","A12ZB13IA3SB6U","May 05 2014","16:42:56",11,"No-Social","One",8,2,"Switch",0,"Novel56",2,"Novel56",3,4664,"eyes_center",-1,0,1,0,(May 05 2014 16:42:56),1,TRUE,FALSE,8,TRUE
"132","A12ZB13IA3SB6U","May 05 2014","16:42:56",12,"No-Social","One",8,3,"Same",0,"Novel69",3,"Novel70",6,9014,"eyes_center",-1,0,1,0,(May 05 2014 16:42:56),1,TRUE,FALSE,8,FALSE
"133","A12ZB13IA3SB6U","May 05 2014","16:42:56",13,"No-Social","One",8,4,"Switch",1,"Novel40",0,"Novel109",1,2397,"eyes_center",-1,1,0,0,(May 05 2014 16:42:56),1,TRUE,FALSE,8,FALSE
"134","A12ZB13IA3SB6U","May 05 2014","16:42:56",14,"No-Social","One",8,5,"Same",1,"Novel50",5,"Novel50",5,3018,"eyes_center",-1,1,0,0,(May 05 2014 16:42:56),1,TRUE,FALSE,8,TRUE
"135","A12ZB13IA3SB6U","May 05 2014","16:42:56",15,"No-Social","One",8,4,"Switch",1,"Novel36",3,"Novel109",1,2440,"eyes_center",-1,0,1,0,(May 05 2014 16:42:56),1,TRUE,FALSE,8,FALSE
"136","A12ZB13IA3SB6U","May 05 2014","16:42:56",16,"No-Social","One",8,5,"Same",1,"Novel135",6,"Novel50",5,3219,"eyes_center",-1,0,1,0,(May 05 2014 16:42:56),1,TRUE,FALSE,8,FALSE
"137","A12ZB13IA3SB6U","May 05 2014","16:42:56",17,"No-Social","One",8,6,"Switch",1,"Novel29",1,"Novel140",4,3843,"eyes_center",-1,1,0,0,(May 05 2014 16:42:56),1,TRUE,FALSE,8,FALSE
"138","A12ZB13IA3SB6U","May 05 2014","16:42:56",18,"No-Social","One",8,7,"Same",1,"Novel39",3,"Novel39",3,2018,"eyes_center",-1,1,0,0,(May 05 2014 16:42:56),1,TRUE,FALSE,8,TRUE
"139","A12ZB13IA3SB6U","May 05 2014","16:42:56",19,"No-Social","One",8,6,"Switch",1,"Novel140",4,"Novel140",4,2675,"eyes_center",-1,0,1,0,(May 05 2014 16:42:56),1,TRUE,FALSE,8,TRUE
"140","A12ZB13IA3SB6U","May 05 2014","16:42:56",20,"No-Social","One",8,7,"Same",1,"Novel39",3,"Novel39",3,1487,"eyes_center",-1,0,1,0,(May 05 2014 16:42:56),1,TRUE,FALSE,8,TRUE
"141","A13P7QQDWVU76V","May 13 2014","10:05:57",1,"Social","One",8,0,"Same",1,"squirrel",3,"",0,1798,"eyes_center",-1,0,0,1,(May 13 2014 10:05:57),1,TRUE,FALSE,8,FALSE
"142","A13P7QQDWVU76V","May 13 2014","10:05:57",2,"Social","One",8,0,"Same",1,"squirrel",4,"",0,1101,"eyes_center",-1,0,0,1,(May 13 2014 10:05:57),1,TRUE,FALSE,8,FALSE
"143","A13P7QQDWVU76V","May 13 2014","10:05:57",3,"Social","One",8,0,"Same",1,"tomato",1,"",0,988,"eyes_center",-1,0,0,1,(May 13 2014 10:05:57),1,TRUE,FALSE,8,FALSE
"144","A13P7QQDWVU76V","May 13 2014","10:05:57",4,"Social","One",8,0,"Same",1,"tomato",6,"",0,782,"eyes_center",-1,0,0,1,(May 13 2014 10:05:57),1,TRUE,FALSE,8,FALSE
"145","A13P7QQDWVU76V","May 13 2014","10:05:57",5,"Social","One",8,0,"Same",1,"Novel7",7,"Novel7",7,1430,"eyes_down_right",7,1,0,0,(May 13 2014 10:05:57),1,TRUE,FALSE,8,TRUE
"146","A13P7QQDWVU76V","May 13 2014","10:05:57",6,"Social","One",8,1,"Switch",0,"Novel120",5,"Novel107",3,696,"eyes_down_mid_left",5,1,0,0,(May 13 2014 10:05:57),1,TRUE,FALSE,8,FALSE
"147","A13P7QQDWVU76V","May 13 2014","10:05:57",7,"Social","One",8,0,"Same",1,"Novel7",7,"Novel7",7,1209,"eyes_center",-1,0,1,0,(May 13 2014 10:05:57),1,TRUE,TRUE,8,TRUE
"148","A13P7QQDWVU76V","May 13 2014","10:05:57",8,"Social","One",8,1,"Switch",0,"Novel135",1,"Novel107",3,693,"eyes_center",-1,0,1,0,(May 13 2014 10:05:57),1,TRUE,FALSE,8,FALSE
"149","A13P7QQDWVU76V","May 13 2014","10:05:57",9,"Social","One",8,2,"Same",1,"Novel13",3,"Novel13",3,540,"eyes_up_right",3,1,0,0,(May 13 2014 10:05:57),1,TRUE,FALSE,8,TRUE
"150","A13P7QQDWVU76V","May 13 2014","10:05:57",10,"Social","One",8,3,"Switch",1,"Novel81",3,"Novel106",0,497,"eyes_up_right",3,1,0,0,(May 13 2014 10:05:57),1,TRUE,FALSE,8,FALSE
"151","A13P7QQDWVU76V","May 13 2014","10:05:57",11,"Social","One",8,2,"Same",1,"Novel13",3,"Novel13",3,717,"eyes_center",-1,0,1,0,(May 13 2014 10:05:57),1,TRUE,FALSE,8,TRUE
"152","A13P7QQDWVU76V","May 13 2014","10:05:57",12,"Social","One",8,3,"Switch",1,"Novel117",3,"Novel106",0,1035,"eyes_center",-1,0,1,0,(May 13 2014 10:05:57),1,TRUE,FALSE,8,FALSE
"153","A13P7QQDWVU76V","May 13 2014","10:05:57",13,"Social","One",8,4,"Same",0,"Novel127",0,"Novel127",0,623,"eyes_up_left",0,1,0,0,(May 13 2014 10:05:57),1,TRUE,FALSE,8,TRUE
"154","A13P7QQDWVU76V","May 13 2014","10:05:57",14,"Social","One",8,5,"Switch",0,"Novel115",3,"Novel10",2,512,"eyes_up_right",3,1,0,0,(May 13 2014 10:05:57),1,TRUE,FALSE,8,FALSE
"155","A13P7QQDWVU76V","May 13 2014","10:05:57",15,"Social","One",8,4,"Same",0,"Novel110",4,"Novel127",0,639,"eyes_center",-1,0,1,0,(May 13 2014 10:05:57),1,TRUE,FALSE,8,FALSE
"156","A13P7QQDWVU76V","May 13 2014","10:05:57",16,"Social","One",8,5,"Switch",0,"Novel95",3,"Novel10",2,607,"eyes_center",-1,0,1,0,(May 13 2014 10:05:57),1,TRUE,FALSE,8,FALSE
"157","A13P7QQDWVU76V","May 13 2014","10:05:57",17,"Social","One",8,6,"Same",0,"Novel133",1,"Novel133",1,282,"eyes_up_mid_left",1,1,0,0,(May 13 2014 10:05:57),1,TRUE,FALSE,8,TRUE
"158","A13P7QQDWVU76V","May 13 2014","10:05:57",18,"Social","One",8,7,"Switch",1,"Novel45",3,"Novel123",2,564,"eyes_up_right",3,1,0,0,(May 13 2014 10:05:57),1,TRUE,FALSE,8,FALSE
"159","A13P7QQDWVU76V","May 13 2014","10:05:57",19,"Social","One",8,6,"Same",0,"Novel133",2,"Novel133",1,578,"eyes_center",-1,0,1,0,(May 13 2014 10:05:57),1,TRUE,FALSE,8,TRUE
"160","A13P7QQDWVU76V","May 13 2014","10:05:57",20,"Social","One",8,7,"Switch",1,"Novel64",5,"Novel123",2,557,"eyes_center",-1,0,1,0,(May 13 2014 10:05:57),1,TRUE,FALSE,8,FALSE
"161","A13V5VK2KVLTBC","May 13 2014","11:20:34",1,"No-Social","Three",8,0,"Same",1,"squirrel",3,"",0,1580,"eyes_center",-1,0,0,1,(May 13 2014 11:20:34),3,TRUE,FALSE,8,FALSE
"162","A13V5VK2KVLTBC","May 13 2014","11:20:34",2,"No-Social","Three",8,0,"Same",1,"squirrel",4,"",0,964,"eyes_center",-1,0,0,1,(May 13 2014 11:20:34),3,TRUE,FALSE,8,FALSE
"163","A13V5VK2KVLTBC","May 13 2014","11:20:34",3,"No-Social","Three",8,0,"Same",1,"tomato",1,"",0,4597,"eyes_center",-1,0,0,1,(May 13 2014 11:20:34),3,TRUE,FALSE,8,FALSE
"164","A13V5VK2KVLTBC","May 13 2014","11:20:34",4,"No-Social","Three",8,0,"Same",1,"tomato",6,"",0,1096,"eyes_center",-1,0,0,1,(May 13 2014 11:20:34),3,TRUE,FALSE,8,FALSE
"165","A13V5VK2KVLTBC","May 13 2014","11:20:34",5,"No-Social","Three",8,0,"Same",1,"Novel138",5,"Novel138",5,12788,"eyes_center",-1,1,0,0,(May 13 2014 11:20:34),3,TRUE,FALSE,8,TRUE
"166","A13V5VK2KVLTBC","May 13 2014","11:20:34",6,"No-Social","Three",8,1,"Switch",0,"Novel127",5,"Novel124",3,3427,"eyes_center",-1,1,0,0,(May 13 2014 11:20:34),3,TRUE,FALSE,8,FALSE
"167","A13V5VK2KVLTBC","May 13 2014","11:20:34",7,"No-Social","Three",8,2,"Same",0,"Novel109",5,"Novel109",5,1868,"eyes_center",-1,1,0,0,(May 13 2014 11:20:34),3,TRUE,FALSE,8,TRUE
"168","A13V5VK2KVLTBC","May 13 2014","11:20:34",8,"No-Social","Three",8,3,"Switch",0,"Novel103",5,"Novel28",6,1851,"eyes_center",-1,1,0,0,(May 13 2014 11:20:34),3,TRUE,FALSE,8,FALSE
"169","A13V5VK2KVLTBC","May 13 2014","11:20:34",9,"No-Social","Three",8,0,"Same",1,"Novel59",7,"Novel138",5,5614,"eyes_center",-1,0,1,0,(May 13 2014 11:20:34),3,TRUE,TRUE,8,FALSE
"170","A13V5VK2KVLTBC","May 13 2014","11:20:34",10,"No-Social","Three",8,1,"Switch",0,"Novel55",2,"Novel124",3,5107,"eyes_center",-1,0,1,0,(May 13 2014 11:20:34),3,TRUE,FALSE,8,FALSE
"171","A13V5VK2KVLTBC","May 13 2014","11:20:34",11,"No-Social","Three",8,2,"Same",0,"Novel6",1,"Novel109",5,5332,"eyes_center",-1,0,1,0,(May 13 2014 11:20:34),3,TRUE,FALSE,8,FALSE
"172","A13V5VK2KVLTBC","May 13 2014","11:20:34",12,"No-Social","Three",8,3,"Switch",0,"Novel28",5,"Novel28",6,1949,"eyes_center",-1,0,1,0,(May 13 2014 11:20:34),3,TRUE,FALSE,8,TRUE
"173","A13V5VK2KVLTBC","May 13 2014","11:20:34",13,"No-Social","Three",8,4,"Same",0,"Novel137",4,"Novel137",4,2413,"eyes_center",-1,1,0,0,(May 13 2014 11:20:34),3,TRUE,FALSE,8,TRUE
"174","A13V5VK2KVLTBC","May 13 2014","11:20:34",14,"No-Social","Three",8,5,"Switch",1,"Novel132",7,"Novel88",3,3502,"eyes_center",-1,1,0,0,(May 13 2014 11:20:34),3,TRUE,FALSE,8,FALSE
"175","A13V5VK2KVLTBC","May 13 2014","11:20:34",15,"No-Social","Three",8,6,"Same",1,"Novel53",7,"Novel53",7,1156,"eyes_center",-1,1,0,0,(May 13 2014 11:20:34),3,TRUE,FALSE,8,TRUE
"176","A13V5VK2KVLTBC","May 13 2014","11:20:34",16,"No-Social","Three",8,7,"Switch",1,"Novel17",7,"Novel107",5,1373,"eyes_center",-1,1,0,0,(May 13 2014 11:20:34),3,TRUE,FALSE,8,FALSE
"177","A13V5VK2KVLTBC","May 13 2014","11:20:34",17,"No-Social","Three",8,4,"Same",0,"Novel137",0,"Novel137",4,4547,"eyes_center",-1,0,1,0,(May 13 2014 11:20:34),3,TRUE,FALSE,8,TRUE
"178","A13V5VK2KVLTBC","May 13 2014","11:20:34",18,"No-Social","Three",8,5,"Switch",1,"Novel86",1,"Novel88",3,2054,"eyes_center",-1,0,1,0,(May 13 2014 11:20:34),3,TRUE,FALSE,8,FALSE
"179","A13V5VK2KVLTBC","May 13 2014","11:20:34",19,"No-Social","Three",8,6,"Same",1,"Novel53",7,"Novel53",7,1703,"eyes_center",-1,0,1,0,(May 13 2014 11:20:34),3,TRUE,FALSE,8,TRUE
"180","A13V5VK2KVLTBC","May 13 2014","11:20:34",20,"No-Social","Three",8,7,"Switch",1,"Novel133",3,"Novel107",5,2323,"eyes_center",-1,0,1,0,(May 13 2014 11:20:34),3,TRUE,FALSE,8,FALSE
"181","A13VGOKSZN8X3P","May 05 2014","16:37:52",1,"No-Social","Zero",8,0,"Switch",1,"squirrel",3,"",0,2052,"eyes_center",-1,0,0,1,(May 05 2014 16:37:52),0,TRUE,FALSE,8,FALSE
"182","A13VGOKSZN8X3P","May 05 2014","16:37:52",2,"No-Social","Zero",8,0,"Switch",1,"squirrel",4,"",0,1778,"eyes_center",-1,0,0,1,(May 05 2014 16:37:52),0,TRUE,FALSE,8,FALSE
"183","A13VGOKSZN8X3P","May 05 2014","16:37:52",3,"No-Social","Zero",8,0,"Switch",1,"tomato",1,"",0,1992,"eyes_center",-1,0,0,1,(May 05 2014 16:37:52),0,TRUE,FALSE,8,FALSE
"184","A13VGOKSZN8X3P","May 05 2014","16:37:52",4,"No-Social","Zero",8,0,"Switch",1,"tomato",6,"",0,3035,"eyes_center",-1,0,0,1,(May 05 2014 16:37:52),0,TRUE,FALSE,8,FALSE
"185","A13VGOKSZN8X3P","May 05 2014","16:37:52",5,"No-Social","Zero",8,0,"Switch",1,"Novel40",2,"Novel123",1,8223,"eyes_center",-1,1,0,0,(May 05 2014 16:37:52),0,TRUE,FALSE,8,FALSE
"186","A13VGOKSZN8X3P","May 05 2014","16:37:52",6,"No-Social","Zero",8,0,"Switch",1,"Novel126",2,"Novel123",1,4590,"eyes_center",-1,0,1,0,(May 05 2014 16:37:52),0,TRUE,TRUE,8,FALSE
"187","A13VGOKSZN8X3P","May 05 2014","16:37:52",7,"No-Social","Zero",8,1,"Same",1,"Novel39",6,"Novel39",6,2824,"eyes_center",-1,1,0,0,(May 05 2014 16:37:52),0,TRUE,FALSE,8,TRUE
"188","A13VGOKSZN8X3P","May 05 2014","16:37:52",8,"No-Social","Zero",8,1,"Same",1,"Novel39",6,"Novel39",6,2773,"eyes_center",-1,0,1,0,(May 05 2014 16:37:52),0,TRUE,FALSE,8,TRUE
"189","A13VGOKSZN8X3P","May 05 2014","16:37:52",9,"No-Social","Zero",8,2,"Switch",1,"Novel38",4,"Novel52",5,1575,"eyes_center",-1,1,0,0,(May 05 2014 16:37:52),0,TRUE,FALSE,8,FALSE
"190","A13VGOKSZN8X3P","May 05 2014","16:37:52",10,"No-Social","Zero",8,2,"Switch",1,"Novel94",6,"Novel52",5,4737,"eyes_center",-1,0,1,0,(May 05 2014 16:37:52),0,TRUE,FALSE,8,FALSE
"191","A13VGOKSZN8X3P","May 05 2014","16:37:52",11,"No-Social","Zero",8,3,"Same",1,"Novel96",1,"Novel96",1,1689,"eyes_center",-1,1,0,0,(May 05 2014 16:37:52),0,TRUE,FALSE,8,TRUE
"192","A13VGOKSZN8X3P","May 05 2014","16:37:52",12,"No-Social","Zero",8,3,"Same",1,"Novel96",1,"Novel96",1,939,"eyes_center",-1,0,1,0,(May 05 2014 16:37:52),0,TRUE,FALSE,8,TRUE
"193","A13VGOKSZN8X3P","May 05 2014","16:37:52",13,"No-Social","Zero",8,4,"Switch",0,"Novel49",4,"Novel97",2,1615,"eyes_center",-1,1,0,0,(May 05 2014 16:37:52),0,TRUE,FALSE,8,FALSE
"194","A13VGOKSZN8X3P","May 05 2014","16:37:52",14,"No-Social","Zero",8,4,"Switch",0,"Novel54",3,"Novel97",2,2719,"eyes_center",-1,0,1,0,(May 05 2014 16:37:52),0,TRUE,FALSE,8,FALSE
"195","A13VGOKSZN8X3P","May 05 2014","16:37:52",15,"No-Social","Zero",8,5,"Same",0,"Novel18",4,"Novel18",4,3245,"eyes_center",-1,1,0,0,(May 05 2014 16:37:52),0,TRUE,FALSE,8,TRUE
"196","A13VGOKSZN8X3P","May 05 2014","16:37:52",16,"No-Social","Zero",8,5,"Same",0,"Novel18",2,"Novel18",4,1231,"eyes_center",-1,0,1,0,(May 05 2014 16:37:52),0,TRUE,FALSE,8,TRUE
"197","A13VGOKSZN8X3P","May 05 2014","16:37:52",17,"No-Social","Zero",8,6,"Switch",0,"Novel104",6,"Novel69",0,2513,"eyes_center",-1,1,0,0,(May 05 2014 16:37:52),0,TRUE,FALSE,8,FALSE
"198","A13VGOKSZN8X3P","May 05 2014","16:37:52",18,"No-Social","Zero",8,6,"Switch",0,"Novel34",7,"Novel69",0,3563,"eyes_center",-1,0,1,0,(May 05 2014 16:37:52),0,TRUE,FALSE,8,FALSE
"199","A13VGOKSZN8X3P","May 05 2014","16:37:52",19,"No-Social","Zero",8,7,"Same",0,"Novel33",2,"Novel33",2,3105,"eyes_center",-1,1,0,0,(May 05 2014 16:37:52),0,TRUE,FALSE,8,TRUE
"200","A13VGOKSZN8X3P","May 05 2014","16:37:52",20,"No-Social","Zero",8,7,"Same",0,"Novel33",7,"Novel33",2,879,"eyes_center",-1,0,1,0,(May 05 2014 16:37:52),0,TRUE,FALSE,8,TRUE
"201","A14AZWH5M999E","May 05 2014","19:36:53",1,"No-Social","One",8,0,"Switch",1,"squirrel",3,"",0,9221,"eyes_center",-1,0,0,1,(May 05 2014 19:36:53),1,TRUE,FALSE,8,FALSE
"202","A14AZWH5M999E","May 05 2014","19:36:53",2,"No-Social","One",8,0,"Switch",1,"squirrel",4,"",0,2389,"eyes_center",-1,0,0,1,(May 05 2014 19:36:53),1,TRUE,FALSE,8,FALSE
"203","A14AZWH5M999E","May 05 2014","19:36:53",3,"No-Social","One",8,0,"Switch",1,"tomato",1,"",0,8070,"eyes_center",-1,0,0,1,(May 05 2014 19:36:53),1,TRUE,FALSE,8,FALSE
"204","A14AZWH5M999E","May 05 2014","19:36:53",4,"No-Social","One",8,0,"Switch",1,"tomato",6,"",0,1946,"eyes_center",-1,0,0,1,(May 05 2014 19:36:53),1,TRUE,FALSE,8,FALSE
"205","A14AZWH5M999E","May 05 2014","19:36:53",5,"No-Social","One",8,0,"Switch",1,"Novel68",5,"Novel125",2,21789,"eyes_center",-1,1,0,0,(May 05 2014 19:36:53),1,TRUE,FALSE,8,FALSE
"206","A14AZWH5M999E","May 05 2014","19:36:53",6,"No-Social","One",8,1,"Same",1,"Novel53",3,"Novel53",3,9615,"eyes_center",-1,1,0,0,(May 05 2014 19:36:53),1,TRUE,FALSE,8,TRUE
"207","A14AZWH5M999E","May 05 2014","19:36:53",7,"No-Social","One",8,0,"Switch",1,"Novel5",4,"Novel125",2,8980,"eyes_center",-1,0,1,0,(May 05 2014 19:36:53),1,TRUE,TRUE,8,FALSE
"208","A14AZWH5M999E","May 05 2014","19:36:53",8,"No-Social","One",8,1,"Same",1,"Novel53",3,"Novel53",3,2067,"eyes_center",-1,0,1,0,(May 05 2014 19:36:53),1,TRUE,FALSE,8,TRUE
"209","A14AZWH5M999E","May 05 2014","19:36:53",9,"No-Social","One",8,2,"Switch",0,"Novel42",0,"Novel21",4,3142,"eyes_center",-1,1,0,0,(May 05 2014 19:36:53),1,TRUE,FALSE,8,FALSE
"210","A14AZWH5M999E","May 05 2014","19:36:53",10,"No-Social","One",8,3,"Same",1,"Novel87",0,"Novel87",0,2083,"eyes_center",-1,1,0,0,(May 05 2014 19:36:53),1,TRUE,FALSE,8,TRUE
"211","A14AZWH5M999E","May 05 2014","19:36:53",11,"No-Social","One",8,2,"Switch",0,"Novel101",6,"Novel21",4,2432,"eyes_center",-1,0,1,0,(May 05 2014 19:36:53),1,TRUE,FALSE,8,FALSE
"212","A14AZWH5M999E","May 05 2014","19:36:53",12,"No-Social","One",8,3,"Same",1,"Novel77",4,"Novel87",0,2347,"eyes_center",-1,0,1,0,(May 05 2014 19:36:53),1,TRUE,FALSE,8,FALSE
"213","A14AZWH5M999E","May 05 2014","19:36:53",13,"No-Social","One",8,4,"Switch",0,"Novel98",5,"Novel88",2,3353,"eyes_center",-1,1,0,0,(May 05 2014 19:36:53),1,TRUE,FALSE,8,FALSE
"214","A14AZWH5M999E","May 05 2014","19:36:53",14,"No-Social","One",8,5,"Same",0,"Novel120",6,"Novel120",6,3310,"eyes_center",-1,1,0,0,(May 05 2014 19:36:53),1,TRUE,FALSE,8,TRUE
"215","A14AZWH5M999E","May 05 2014","19:36:53",15,"No-Social","One",8,4,"Switch",0,"Novel65",3,"Novel88",2,5157,"eyes_center",-1,0,1,0,(May 05 2014 19:36:53),1,TRUE,FALSE,8,FALSE
"216","A14AZWH5M999E","May 05 2014","19:36:53",16,"No-Social","One",8,5,"Same",0,"Novel12",0,"Novel120",6,4974,"eyes_center",-1,0,1,0,(May 05 2014 19:36:53),1,TRUE,FALSE,8,FALSE
"217","A14AZWH5M999E","May 05 2014","19:36:53",17,"No-Social","One",8,6,"Switch",1,"Novel59",6,"Novel122",0,2781,"eyes_center",-1,1,0,0,(May 05 2014 19:36:53),1,TRUE,FALSE,8,FALSE
"218","A14AZWH5M999E","May 05 2014","19:36:53",18,"No-Social","One",8,7,"Same",0,"Novel17",4,"Novel17",4,2081,"eyes_center",-1,1,0,0,(May 05 2014 19:36:53),1,TRUE,FALSE,8,TRUE
"219","A14AZWH5M999E","May 05 2014","19:36:53",19,"No-Social","One",8,6,"Switch",1,"Novel48",2,"Novel122",0,3399,"eyes_center",-1,0,1,0,(May 05 2014 19:36:53),1,TRUE,FALSE,8,FALSE
"220","A14AZWH5M999E","May 05 2014","19:36:53",20,"No-Social","One",8,7,"Same",0,"Novel100",3,"Novel17",4,3017,"eyes_center",-1,0,1,0,(May 05 2014 19:36:53),1,TRUE,FALSE,8,FALSE
"221","A14MOF84FC52MB","May 11 2014","12:06:13",1,"No-Social","Zero",8,0,"Switch",1,"squirrel",3,"",0,2091,"eyes_center",-1,0,0,1,(May 11 2014 12:06:13),0,TRUE,FALSE,8,FALSE
"222","A14MOF84FC52MB","May 11 2014","12:06:13",2,"No-Social","Zero",8,0,"Switch",1,"squirrel",4,"",0,2000,"eyes_center",-1,0,0,1,(May 11 2014 12:06:13),0,TRUE,FALSE,8,FALSE
"223","A14MOF84FC52MB","May 11 2014","12:06:13",3,"No-Social","Zero",8,0,"Switch",1,"tomato",1,"",0,1588,"eyes_center",-1,0,0,1,(May 11 2014 12:06:13),0,TRUE,FALSE,8,FALSE
"224","A14MOF84FC52MB","May 11 2014","12:06:13",4,"No-Social","Zero",8,0,"Switch",1,"tomato",6,"",0,2543,"eyes_center",-1,0,0,1,(May 11 2014 12:06:13),0,TRUE,FALSE,8,FALSE
"225","A14MOF84FC52MB","May 11 2014","12:06:13",5,"No-Social","Zero",8,0,"Switch",1,"Novel48",7,"Novel105",3,3268,"eyes_center",-1,1,0,0,(May 11 2014 12:06:13),0,TRUE,FALSE,8,FALSE
"226","A14MOF84FC52MB","May 11 2014","12:06:13",6,"No-Social","Zero",8,0,"Switch",1,"Novel111",0,"Novel105",3,4037,"eyes_center",-1,0,1,0,(May 11 2014 12:06:13),0,TRUE,TRUE,8,FALSE
"227","A14MOF84FC52MB","May 11 2014","12:06:13",7,"No-Social","Zero",8,1,"Same",1,"Novel32",1,"Novel32",1,3508,"eyes_center",-1,1,0,0,(May 11 2014 12:06:13),0,TRUE,FALSE,8,TRUE
"228","A14MOF84FC52MB","May 11 2014","12:06:13",8,"No-Social","Zero",8,1,"Same",1,"Novel32",1,"Novel32",1,2114,"eyes_center",-1,0,1,0,(May 11 2014 12:06:13),0,TRUE,FALSE,8,TRUE
"229","A14MOF84FC52MB","May 11 2014","12:06:13",9,"No-Social","Zero",8,2,"Switch",1,"Novel38",3,"Novel92",7,2585,"eyes_center",-1,1,0,0,(May 11 2014 12:06:13),0,TRUE,FALSE,8,FALSE
"230","A14MOF84FC52MB","May 11 2014","12:06:13",10,"No-Social","Zero",8,2,"Switch",1,"Novel109",0,"Novel92",7,3452,"eyes_center",-1,0,1,0,(May 11 2014 12:06:13),0,TRUE,FALSE,8,FALSE
"231","A14MOF84FC52MB","May 11 2014","12:06:13",11,"No-Social","Zero",8,3,"Same",0,"Novel136",5,"Novel136",5,2586,"eyes_center",-1,1,0,0,(May 11 2014 12:06:13),0,TRUE,FALSE,8,TRUE
"232","A14MOF84FC52MB","May 11 2014","12:06:13",12,"No-Social","Zero",8,3,"Same",0,"Novel99",0,"Novel136",5,2784,"eyes_center",-1,0,1,0,(May 11 2014 12:06:13),0,TRUE,FALSE,8,FALSE
"233","A14MOF84FC52MB","May 11 2014","12:06:13",13,"No-Social","Zero",8,4,"Switch",0,"Novel52",0,"Novel126",2,2576,"eyes_center",-1,1,0,0,(May 11 2014 12:06:13),0,TRUE,FALSE,8,FALSE
"234","A14MOF84FC52MB","May 11 2014","12:06:13",14,"No-Social","Zero",8,4,"Switch",0,"Novel104",7,"Novel126",2,2609,"eyes_center",-1,0,1,0,(May 11 2014 12:06:13),0,TRUE,FALSE,8,FALSE
"235","A14MOF84FC52MB","May 11 2014","12:06:13",15,"No-Social","Zero",8,5,"Same",1,"Novel25",3,"Novel25",3,3232,"eyes_center",-1,1,0,0,(May 11 2014 12:06:13),0,TRUE,FALSE,8,TRUE
"236","A14MOF84FC52MB","May 11 2014","12:06:13",16,"No-Social","Zero",8,5,"Same",1,"Novel25",3,"Novel25",3,2233,"eyes_center",-1,0,1,0,(May 11 2014 12:06:13),0,TRUE,FALSE,8,TRUE
"237","A14MOF84FC52MB","May 11 2014","12:06:13",17,"No-Social","Zero",8,6,"Switch",0,"Novel2",0,"Novel125",7,3667,"eyes_center",-1,1,0,0,(May 11 2014 12:06:13),0,TRUE,FALSE,8,FALSE
"238","A14MOF84FC52MB","May 11 2014","12:06:13",18,"No-Social","Zero",8,6,"Switch",0,"Novel67",6,"Novel125",7,1978,"eyes_center",-1,0,1,0,(May 11 2014 12:06:13),0,TRUE,FALSE,8,FALSE
"239","A14MOF84FC52MB","May 11 2014","12:06:13",19,"No-Social","Zero",8,7,"Same",0,"Novel7",4,"Novel7",4,2897,"eyes_center",-1,1,0,0,(May 11 2014 12:06:13),0,TRUE,FALSE,8,TRUE
"240","A14MOF84FC52MB","May 11 2014","12:06:13",20,"No-Social","Zero",8,7,"Same",0,"Novel75",4,"Novel7",4,1337,"eyes_center",-1,0,1,0,(May 11 2014 12:06:13),0,TRUE,FALSE,8,FALSE
"241","A14O2NZK81OSQ3","May 09 2014","18:43:43",1,"Social","Zero",8,0,"Switch",1,"squirrel",3,"",0,13193,"eyes_center",-1,0,0,1,(May 09 2014 18:43:43),0,TRUE,FALSE,8,FALSE
"242","A14O2NZK81OSQ3","May 09 2014","18:43:43",2,"Social","Zero",8,0,"Switch",1,"squirrel",4,"",0,3495,"eyes_center",-1,0,0,1,(May 09 2014 18:43:43),0,TRUE,FALSE,8,FALSE
"243","A14O2NZK81OSQ3","May 09 2014","18:43:43",3,"Social","Zero",8,0,"Switch",1,"tomato",1,"",0,1774,"eyes_center",-1,0,0,1,(May 09 2014 18:43:43),0,TRUE,FALSE,8,FALSE
"244","A14O2NZK81OSQ3","May 09 2014","18:43:43",4,"Social","Zero",8,0,"Switch",1,"tomato",6,"",0,1479,"eyes_center",-1,0,0,1,(May 09 2014 18:43:43),0,TRUE,FALSE,8,FALSE
"245","A14O2NZK81OSQ3","May 09 2014","18:43:43",5,"Social","Zero",8,0,"Switch",1,"Novel9",5,"Novel35",2,14497,"eyes_down_mid_right",6,1,0,0,(May 09 2014 18:43:43),0,TRUE,FALSE,8,FALSE
"246","A14O2NZK81OSQ3","May 09 2014","18:43:43",6,"Social","Zero",8,0,"Switch",1,"Novel120",4,"Novel35",2,21632,"eyes_center",-1,0,1,0,(May 09 2014 18:43:43),0,TRUE,TRUE,8,FALSE
"247","A14O2NZK81OSQ3","May 09 2014","18:43:43",7,"Social","Zero",8,1,"Same",1,"Novel111",6,"Novel111",6,9856,"eyes_down_right",7,1,0,0,(May 09 2014 18:43:43),0,TRUE,FALSE,8,TRUE
"248","A14O2NZK81OSQ3","May 09 2014","18:43:43",8,"Social","Zero",8,1,"Same",1,"Novel111",6,"Novel111",6,10628,"eyes_center",-1,0,1,0,(May 09 2014 18:43:43),0,TRUE,FALSE,8,TRUE
"249","A14O2NZK81OSQ3","May 09 2014","18:43:43",9,"Social","Zero",8,2,"Switch",0,"Novel127",5,"Novel80",1,3894,"eyes_down_mid_left",5,1,0,0,(May 09 2014 18:43:43),0,TRUE,FALSE,8,FALSE
"250","A14O2NZK81OSQ3","May 09 2014","18:43:43",10,"Social","Zero",8,2,"Switch",0,"Novel3",7,"Novel80",1,10711,"eyes_center",-1,0,1,0,(May 09 2014 18:43:43),0,TRUE,FALSE,8,FALSE
"251","A14O2NZK81OSQ3","May 09 2014","18:43:43",11,"Social","Zero",8,3,"Same",0,"Novel14",0,"Novel14",0,2972,"eyes_up_left",0,1,0,0,(May 09 2014 18:43:43),0,TRUE,FALSE,8,TRUE
"252","A14O2NZK81OSQ3","May 09 2014","18:43:43",12,"Social","Zero",8,3,"Same",0,"Novel14",5,"Novel14",0,2962,"eyes_center",-1,0,1,0,(May 09 2014 18:43:43),0,TRUE,FALSE,8,TRUE
"253","A14O2NZK81OSQ3","May 09 2014","18:43:43",13,"Social","Zero",8,4,"Switch",0,"Novel115",4,"Novel73",5,7783,"eyes_down_left",4,1,0,0,(May 09 2014 18:43:43),0,TRUE,FALSE,8,FALSE
"254","A14O2NZK81OSQ3","May 09 2014","18:43:43",14,"Social","Zero",8,4,"Switch",0,"Novel73",1,"Novel73",5,5448,"eyes_center",-1,0,1,0,(May 09 2014 18:43:43),0,TRUE,FALSE,8,TRUE
"255","A14O2NZK81OSQ3","May 09 2014","18:43:43",15,"Social","Zero",8,5,"Same",1,"Novel37",5,"Novel37",5,5156,"eyes_down_left",4,1,0,0,(May 09 2014 18:43:43),0,TRUE,FALSE,8,TRUE
"256","A14O2NZK81OSQ3","May 09 2014","18:43:43",16,"Social","Zero",8,5,"Same",1,"Novel41",2,"Novel37",5,9342,"eyes_center",-1,0,1,0,(May 09 2014 18:43:43),0,TRUE,FALSE,8,FALSE
"257","A14O2NZK81OSQ3","May 09 2014","18:43:43",17,"Social","Zero",8,6,"Switch",1,"Novel4",5,"Novel92",6,2466,"eyes_down_left",4,1,0,0,(May 09 2014 18:43:43),0,TRUE,FALSE,8,FALSE
"258","A14O2NZK81OSQ3","May 09 2014","18:43:43",18,"Social","Zero",8,6,"Switch",1,"Novel13",2,"Novel92",6,3614,"eyes_center",-1,0,1,0,(May 09 2014 18:43:43),0,TRUE,FALSE,8,FALSE
"259","A14O2NZK81OSQ3","May 09 2014","18:43:43",19,"Social","Zero",8,7,"Same",0,"Novel84",2,"Novel84",2,2174,"eyes_up_right",3,1,0,0,(May 09 2014 18:43:43),0,TRUE,FALSE,8,TRUE
"260","A14O2NZK81OSQ3","May 09 2014","18:43:43",20,"Social","Zero",8,7,"Same",0,"Novel26",5,"Novel84",2,3068,"eyes_center",-1,0,1,0,(May 09 2014 18:43:43),0,TRUE,FALSE,8,FALSE
"261","A167SYXGXFU7C8","May 10 2014","07:21:39",1,"No-Social","Zero",8,0,"Switch",1,"squirrel",3,"",0,2755,"eyes_center",-1,0,0,1,(May 10 2014 07:21:39),0,TRUE,FALSE,8,FALSE
"262","A167SYXGXFU7C8","May 10 2014","07:21:39",2,"No-Social","Zero",8,0,"Switch",1,"squirrel",4,"",0,5867,"eyes_center",-1,0,0,1,(May 10 2014 07:21:39),0,TRUE,FALSE,8,FALSE
"263","A167SYXGXFU7C8","May 10 2014","07:21:39",3,"No-Social","Zero",8,0,"Switch",1,"tomato",1,"",0,2318,"eyes_center",-1,0,0,1,(May 10 2014 07:21:39),0,TRUE,FALSE,8,FALSE
"264","A167SYXGXFU7C8","May 10 2014","07:21:39",4,"No-Social","Zero",8,0,"Switch",1,"tomato",6,"",0,1558,"eyes_center",-1,0,0,1,(May 10 2014 07:21:39),0,TRUE,FALSE,8,FALSE
"265","A167SYXGXFU7C8","May 10 2014","07:21:39",5,"No-Social","Zero",8,0,"Switch",1,"Novel114",6,"Novel82",4,1295,"eyes_center",-1,1,0,0,(May 10 2014 07:21:39),0,TRUE,FALSE,8,FALSE
"266","A167SYXGXFU7C8","May 10 2014","07:21:39",6,"No-Social","Zero",8,0,"Switch",1,"Novel73",3,"Novel82",4,4740,"eyes_center",-1,0,1,0,(May 10 2014 07:21:39),0,TRUE,TRUE,8,FALSE
"267","A167SYXGXFU7C8","May 10 2014","07:21:39",7,"No-Social","Zero",8,1,"Same",1,"Novel2",4,"Novel2",4,3840,"eyes_center",-1,1,0,0,(May 10 2014 07:21:39),0,TRUE,FALSE,8,TRUE
"268","A167SYXGXFU7C8","May 10 2014","07:21:39",8,"No-Social","Zero",8,1,"Same",1,"Novel2",4,"Novel2",4,2547,"eyes_center",-1,0,1,0,(May 10 2014 07:21:39),0,TRUE,FALSE,8,TRUE
"269","A167SYXGXFU7C8","May 10 2014","07:21:39",9,"No-Social","Zero",8,2,"Switch",0,"Novel48",0,"Novel78",6,3683,"eyes_center",-1,1,0,0,(May 10 2014 07:21:39),0,TRUE,FALSE,8,FALSE
"270","A167SYXGXFU7C8","May 10 2014","07:21:39",10,"No-Social","Zero",8,2,"Switch",0,"Novel106",7,"Novel78",6,7588,"eyes_center",-1,0,1,0,(May 10 2014 07:21:39),0,TRUE,FALSE,8,FALSE
"271","A167SYXGXFU7C8","May 10 2014","07:21:39",11,"No-Social","Zero",8,3,"Same",1,"Novel136",2,"Novel136",2,4579,"eyes_center",-1,1,0,0,(May 10 2014 07:21:39),0,TRUE,FALSE,8,TRUE
"272","A167SYXGXFU7C8","May 10 2014","07:21:39",12,"No-Social","Zero",8,3,"Same",1,"Novel136",2,"Novel136",2,2433,"eyes_center",-1,0,1,0,(May 10 2014 07:21:39),0,TRUE,FALSE,8,TRUE
"273","A167SYXGXFU7C8","May 10 2014","07:21:39",13,"No-Social","Zero",8,4,"Switch",1,"Novel122",4,"Novel25",3,5867,"eyes_center",-1,1,0,0,(May 10 2014 07:21:39),0,TRUE,FALSE,8,FALSE
"274","A167SYXGXFU7C8","May 10 2014","07:21:39",14,"No-Social","Zero",8,4,"Switch",1,"Novel12",4,"Novel25",3,6171,"eyes_center",-1,0,1,0,(May 10 2014 07:21:39),0,TRUE,FALSE,8,FALSE
"275","A167SYXGXFU7C8","May 10 2014","07:21:39",15,"No-Social","Zero",8,5,"Same",0,"Novel63",6,"Novel63",6,5245,"eyes_center",-1,1,0,0,(May 10 2014 07:21:39),0,TRUE,FALSE,8,TRUE
"276","A167SYXGXFU7C8","May 10 2014","07:21:39",16,"No-Social","Zero",8,5,"Same",0,"Novel63",3,"Novel63",6,1660,"eyes_center",-1,0,1,0,(May 10 2014 07:21:39),0,TRUE,FALSE,8,TRUE
"277","A167SYXGXFU7C8","May 10 2014","07:21:39",17,"No-Social","Zero",8,6,"Switch",0,"Novel60",7,"Novel23",1,5357,"eyes_center",-1,1,0,0,(May 10 2014 07:21:39),0,TRUE,FALSE,8,FALSE
"278","A167SYXGXFU7C8","May 10 2014","07:21:39",18,"No-Social","Zero",8,6,"Switch",0,"Novel83",4,"Novel23",1,5124,"eyes_center",-1,0,1,0,(May 10 2014 07:21:39),0,TRUE,FALSE,8,FALSE
"279","A167SYXGXFU7C8","May 10 2014","07:21:39",19,"No-Social","Zero",8,7,"Same",0,"Novel11",3,"Novel11",3,6472,"eyes_center",-1,1,0,0,(May 10 2014 07:21:39),0,TRUE,FALSE,8,TRUE
"280","A167SYXGXFU7C8","May 10 2014","07:21:39",20,"No-Social","Zero",8,7,"Same",0,"Novel11",5,"Novel11",3,5720,"eyes_center",-1,0,1,0,(May 10 2014 07:21:39),0,TRUE,FALSE,8,TRUE
"281","A16S0RAQ8NXTI1","May 11 2014","11:58:18",1,"No-Social","Three",8,0,"Same",1,"squirrel",3,"",0,1914,"eyes_center",-1,0,0,1,(May 11 2014 11:58:18),3,TRUE,FALSE,8,FALSE
"282","A16S0RAQ8NXTI1","May 11 2014","11:58:18",2,"No-Social","Three",8,0,"Same",1,"squirrel",4,"",0,1337,"eyes_center",-1,0,0,1,(May 11 2014 11:58:18),3,TRUE,FALSE,8,FALSE
"283","A16S0RAQ8NXTI1","May 11 2014","11:58:18",3,"No-Social","Three",8,0,"Same",1,"tomato",1,"",0,1229,"eyes_center",-1,0,0,1,(May 11 2014 11:58:18),3,TRUE,FALSE,8,FALSE
"284","A16S0RAQ8NXTI1","May 11 2014","11:58:18",4,"No-Social","Three",8,0,"Same",1,"tomato",6,"",0,1488,"eyes_center",-1,0,0,1,(May 11 2014 11:58:18),3,TRUE,FALSE,8,FALSE
"285","A16S0RAQ8NXTI1","May 11 2014","11:58:18",5,"No-Social","Three",8,0,"Same",1,"Novel138",1,"Novel138",1,3486,"eyes_center",-1,1,0,0,(May 11 2014 11:58:18),3,TRUE,FALSE,8,TRUE
"286","A16S0RAQ8NXTI1","May 11 2014","11:58:18",6,"No-Social","Three",8,1,"Switch",0,"Novel44",2,"Novel108",7,6441,"eyes_center",-1,1,0,0,(May 11 2014 11:58:18),3,TRUE,FALSE,8,FALSE
"287","A16S0RAQ8NXTI1","May 11 2014","11:58:18",7,"No-Social","Three",8,2,"Same",1,"Novel60",7,"Novel60",7,3072,"eyes_center",-1,1,0,0,(May 11 2014 11:58:18),3,TRUE,FALSE,8,TRUE
"288","A16S0RAQ8NXTI1","May 11 2014","11:58:18",8,"No-Social","Three",8,3,"Switch",1,"Novel129",1,"Novel14",0,4287,"eyes_center",-1,1,0,0,(May 11 2014 11:58:18),3,TRUE,FALSE,8,FALSE
"289","A16S0RAQ8NXTI1","May 11 2014","11:58:18",9,"No-Social","Three",8,0,"Same",1,"Novel138",1,"Novel138",1,1127,"eyes_center",-1,0,1,0,(May 11 2014 11:58:18),3,TRUE,TRUE,8,TRUE
"290","A16S0RAQ8NXTI1","May 11 2014","11:58:18",10,"No-Social","Three",8,1,"Switch",0,"Novel102",6,"Novel108",7,17395,"eyes_center",-1,0,1,0,(May 11 2014 11:58:18),3,TRUE,FALSE,8,FALSE
"291","A16S0RAQ8NXTI1","May 11 2014","11:58:18",11,"No-Social","Three",8,2,"Same",1,"Novel60",7,"Novel60",7,923,"eyes_center",-1,0,1,0,(May 11 2014 11:58:18),3,TRUE,FALSE,8,TRUE
"292","A16S0RAQ8NXTI1","May 11 2014","11:58:18",12,"No-Social","Three",8,3,"Switch",1,"Novel37",3,"Novel14",0,1992,"eyes_center",-1,0,1,0,(May 11 2014 11:58:18),3,TRUE,FALSE,8,FALSE
"293","A16S0RAQ8NXTI1","May 11 2014","11:58:18",13,"No-Social","Three",8,4,"Same",0,"Novel61",3,"Novel61",3,6045,"eyes_center",-1,1,0,0,(May 11 2014 11:58:18),3,TRUE,FALSE,8,TRUE
"294","A16S0RAQ8NXTI1","May 11 2014","11:58:18",14,"No-Social","Three",8,5,"Switch",0,"Novel87",2,"Novel53",5,2587,"eyes_center",-1,1,0,0,(May 11 2014 11:58:18),3,TRUE,FALSE,8,FALSE
"295","A16S0RAQ8NXTI1","May 11 2014","11:58:18",15,"No-Social","Three",8,6,"Same",0,"Novel13",5,"Novel13",5,1608,"eyes_center",-1,1,0,0,(May 11 2014 11:58:18),3,TRUE,FALSE,8,TRUE
"296","A16S0RAQ8NXTI1","May 11 2014","11:58:18",16,"No-Social","Three",8,7,"Switch",1,"Novel24",4,"Novel57",7,2042,"eyes_center",-1,1,0,0,(May 11 2014 11:58:18),3,TRUE,FALSE,8,FALSE
"297","A16S0RAQ8NXTI1","May 11 2014","11:58:18",17,"No-Social","Three",8,4,"Same",0,"Novel61",5,"Novel61",3,4219,"eyes_center",-1,0,1,0,(May 11 2014 11:58:18),3,TRUE,FALSE,8,TRUE
"298","A16S0RAQ8NXTI1","May 11 2014","11:58:18",18,"No-Social","Three",8,5,"Switch",0,"Novel41",7,"Novel53",5,2748,"eyes_center",-1,0,1,0,(May 11 2014 11:58:18),3,TRUE,FALSE,8,FALSE
"299","A16S0RAQ8NXTI1","May 11 2014","11:58:18",19,"No-Social","Three",8,6,"Same",0,"Novel13",1,"Novel13",5,1041,"eyes_center",-1,0,1,0,(May 11 2014 11:58:18),3,TRUE,FALSE,8,TRUE
"300","A16S0RAQ8NXTI1","May 11 2014","11:58:18",20,"No-Social","Three",8,7,"Switch",1,"Novel137",6,"Novel57",7,4354,"eyes_center",-1,0,1,0,(May 11 2014 11:58:18),3,TRUE,FALSE,8,FALSE
"301","A16TESTJICU76L","May 11 2014","11:59:15",1,"No-Social","Three",8,0,"Switch",1,"squirrel",3,"",0,1711,"eyes_center",-1,0,0,1,(May 11 2014 11:59:15),3,TRUE,FALSE,8,FALSE
"302","A16TESTJICU76L","May 11 2014","11:59:15",2,"No-Social","Three",8,0,"Switch",1,"squirrel",4,"",0,841,"eyes_center",-1,0,0,1,(May 11 2014 11:59:15),3,TRUE,FALSE,8,FALSE
"303","A16TESTJICU76L","May 11 2014","11:59:15",3,"No-Social","Three",8,0,"Switch",1,"tomato",1,"",0,1116,"eyes_center",-1,0,0,1,(May 11 2014 11:59:15),3,TRUE,FALSE,8,FALSE
"304","A16TESTJICU76L","May 11 2014","11:59:15",4,"No-Social","Three",8,0,"Switch",1,"tomato",6,"",0,695,"eyes_center",-1,0,0,1,(May 11 2014 11:59:15),3,TRUE,FALSE,8,FALSE
"305","A16TESTJICU76L","May 11 2014","11:59:15",5,"No-Social","Three",8,0,"Switch",1,"Novel8",6,"Novel135",4,1420,"eyes_center",-1,1,0,0,(May 11 2014 11:59:15),3,TRUE,FALSE,8,FALSE
"306","A16TESTJICU76L","May 11 2014","11:59:15",6,"No-Social","Three",8,1,"Same",1,"Novel60",0,"Novel60",0,813,"eyes_center",-1,1,0,0,(May 11 2014 11:59:15),3,TRUE,FALSE,8,TRUE
"307","A16TESTJICU76L","May 11 2014","11:59:15",7,"No-Social","Three",8,2,"Switch",1,"Novel103",1,"Novel74",7,1065,"eyes_center",-1,1,0,0,(May 11 2014 11:59:15),3,TRUE,FALSE,8,FALSE
"308","A16TESTJICU76L","May 11 2014","11:59:15",8,"No-Social","Three",8,3,"Same",1,"Novel84",3,"Novel84",3,1516,"eyes_center",-1,1,0,0,(May 11 2014 11:59:15),3,TRUE,FALSE,8,TRUE
"309","A16TESTJICU76L","May 11 2014","11:59:15",9,"No-Social","Three",8,0,"Switch",1,"Novel27",5,"Novel135",4,3105,"eyes_center",-1,0,1,0,(May 11 2014 11:59:15),3,TRUE,TRUE,8,FALSE
"310","A16TESTJICU76L","May 11 2014","11:59:15",10,"No-Social","Three",8,1,"Same",1,"Novel60",0,"Novel60",0,2779,"eyes_center",-1,0,1,0,(May 11 2014 11:59:15),3,TRUE,FALSE,8,TRUE
"311","A16TESTJICU76L","May 11 2014","11:59:15",11,"No-Social","Three",8,2,"Switch",1,"Novel64",4,"Novel74",7,2861,"eyes_center",-1,0,1,0,(May 11 2014 11:59:15),3,TRUE,FALSE,8,FALSE
"312","A16TESTJICU76L","May 11 2014","11:59:15",12,"No-Social","Three",8,3,"Same",1,"Novel41",6,"Novel84",3,966,"eyes_center",-1,0,1,0,(May 11 2014 11:59:15),3,TRUE,FALSE,8,FALSE
"313","A16TESTJICU76L","May 11 2014","11:59:15",13,"No-Social","Three",8,4,"Switch",0,"Novel72",3,"Novel32",1,1157,"eyes_center",-1,1,0,0,(May 11 2014 11:59:15),3,TRUE,FALSE,8,FALSE
"314","A16TESTJICU76L","May 11 2014","11:59:15",14,"No-Social","Three",8,5,"Same",0,"Novel53",0,"Novel53",0,863,"eyes_center",-1,1,0,0,(May 11 2014 11:59:15),3,TRUE,FALSE,8,TRUE
"315","A16TESTJICU76L","May 11 2014","11:59:15",15,"No-Social","Three",8,6,"Switch",0,"Novel55",7,"Novel136",3,877,"eyes_center",-1,1,0,0,(May 11 2014 11:59:15),3,TRUE,FALSE,8,FALSE
"316","A16TESTJICU76L","May 11 2014","11:59:15",16,"No-Social","Three",8,7,"Same",0,"Novel107",7,"Novel107",7,873,"eyes_center",-1,1,0,0,(May 11 2014 11:59:15),3,TRUE,FALSE,8,TRUE
"317","A16TESTJICU76L","May 11 2014","11:59:15",17,"No-Social","Three",8,4,"Switch",0,"Novel49",4,"Novel32",1,814,"eyes_center",-1,0,1,0,(May 11 2014 11:59:15),3,TRUE,FALSE,8,FALSE
"318","A16TESTJICU76L","May 11 2014","11:59:15",18,"No-Social","Three",8,5,"Same",0,"Novel13",1,"Novel53",0,630,"eyes_center",-1,0,1,0,(May 11 2014 11:59:15),3,TRUE,FALSE,8,FALSE
"319","A16TESTJICU76L","May 11 2014","11:59:15",19,"No-Social","Three",8,6,"Switch",0,"Novel71",2,"Novel136",3,760,"eyes_center",-1,0,1,0,(May 11 2014 11:59:15),3,TRUE,FALSE,8,FALSE
"320","A16TESTJICU76L","May 11 2014","11:59:15",20,"No-Social","Three",8,7,"Same",0,"Novel140",5,"Novel107",7,951,"eyes_center",-1,0,1,0,(May 11 2014 11:59:15),3,TRUE,FALSE,8,FALSE
"321","A171UMOFDHIO58","May 13 2014","14:53:33",1,"Social","One",8,0,"Switch",0,"squirrel",3,"",0,2863,"eyes_center",-1,0,0,1,(May 13 2014 14:53:33),1,TRUE,FALSE,8,FALSE
"322","A171UMOFDHIO58","May 13 2014","14:53:33",2,"Social","One",8,0,"Switch",0,"squirrel",4,"",0,1859,"eyes_center",-1,0,0,1,(May 13 2014 14:53:33),1,TRUE,FALSE,8,FALSE
"323","A171UMOFDHIO58","May 13 2014","14:53:33",3,"Social","One",8,0,"Switch",0,"tomato",1,"",0,1557,"eyes_center",-1,0,0,1,(May 13 2014 14:53:33),1,TRUE,FALSE,8,FALSE
"324","A171UMOFDHIO58","May 13 2014","14:53:33",4,"Social","One",8,0,"Switch",0,"tomato",6,"",0,1321,"eyes_center",-1,0,0,1,(May 13 2014 14:53:33),1,TRUE,FALSE,8,FALSE
"325","A171UMOFDHIO58","May 13 2014","14:53:33",5,"Social","One",8,0,"Switch",0,"Novel19",2,"Novel135",3,3986,"eyes_up_mid_right",2,1,0,0,(May 13 2014 14:53:33),1,TRUE,FALSE,8,FALSE
"326","A171UMOFDHIO58","May 13 2014","14:53:33",6,"Social","One",8,1,"Same",1,"Novel7",3,"Novel7",3,4208,"eyes_up_right",3,1,0,0,(May 13 2014 14:53:33),1,TRUE,FALSE,8,TRUE
"327","A171UMOFDHIO58","May 13 2014","14:53:33",7,"Social","One",8,0,"Switch",0,"Novel135",5,"Novel135",3,9683,"eyes_center",-1,0,1,0,(May 13 2014 14:53:33),1,TRUE,TRUE,8,TRUE
"328","A171UMOFDHIO58","May 13 2014","14:53:33",8,"Social","One",8,1,"Same",1,"Novel7",3,"Novel7",3,2422,"eyes_center",-1,0,1,0,(May 13 2014 14:53:33),1,TRUE,FALSE,8,TRUE
"329","A171UMOFDHIO58","May 13 2014","14:53:33",9,"Social","One",8,2,"Switch",0,"Novel25",2,"Novel50",1,2923,"eyes_up_mid_right",2,1,0,0,(May 13 2014 14:53:33),1,TRUE,FALSE,8,FALSE
"330","A171UMOFDHIO58","May 13 2014","14:53:33",10,"Social","One",8,3,"Same",0,"Novel125",6,"Novel125",6,2889,"eyes_down_mid_right",6,1,0,0,(May 13 2014 14:53:33),1,TRUE,FALSE,8,TRUE
"331","A171UMOFDHIO58","May 13 2014","14:53:33",11,"Social","One",8,2,"Switch",0,"Novel55",6,"Novel50",1,14195,"eyes_center",-1,0,1,0,(May 13 2014 14:53:33),1,TRUE,FALSE,8,FALSE
"332","A171UMOFDHIO58","May 13 2014","14:53:33",12,"Social","One",8,3,"Same",0,"Novel125",5,"Novel125",6,1746,"eyes_center",-1,0,1,0,(May 13 2014 14:53:33),1,TRUE,FALSE,8,TRUE
"333","A171UMOFDHIO58","May 13 2014","14:53:33",13,"Social","One",8,4,"Switch",1,"Novel137",7,"Novel56",2,4028,"eyes_down_right",7,1,0,0,(May 13 2014 14:53:33),1,TRUE,FALSE,8,FALSE
"334","A171UMOFDHIO58","May 13 2014","14:53:33",14,"Social","One",8,5,"Same",0,"Novel78",0,"Novel78",0,2290,"eyes_up_left",0,1,0,0,(May 13 2014 14:53:33),1,TRUE,FALSE,8,TRUE
"335","A171UMOFDHIO58","May 13 2014","14:53:33",15,"Social","One",8,4,"Switch",1,"Novel56",2,"Novel56",2,17096,"eyes_center",-1,0,1,0,(May 13 2014 14:53:33),1,TRUE,FALSE,8,TRUE
"336","A171UMOFDHIO58","May 13 2014","14:53:33",16,"Social","One",8,5,"Same",0,"Novel78",7,"Novel78",0,2211,"eyes_center",-1,0,1,0,(May 13 2014 14:53:33),1,TRUE,FALSE,8,TRUE
"337","A171UMOFDHIO58","May 13 2014","14:53:33",17,"Social","One",8,6,"Switch",1,"Novel49",0,"Novel60",1,6494,"eyes_up_left",0,1,0,0,(May 13 2014 14:53:33),1,TRUE,FALSE,8,FALSE
"338","A171UMOFDHIO58","May 13 2014","14:53:33",18,"Social","One",8,7,"Same",1,"Novel30",1,"Novel30",1,2584,"eyes_up_mid_left",1,1,0,0,(May 13 2014 14:53:33),1,TRUE,FALSE,8,TRUE
"339","A171UMOFDHIO58","May 13 2014","14:53:33",19,"Social","One",8,6,"Switch",1,"Novel60",1,"Novel60",1,4093,"eyes_center",-1,0,1,0,(May 13 2014 14:53:33),1,TRUE,FALSE,8,TRUE
"340","A171UMOFDHIO58","May 13 2014","14:53:33",20,"Social","One",8,7,"Same",1,"Novel30",1,"Novel30",1,1767,"eyes_center",-1,0,1,0,(May 13 2014 14:53:33),1,TRUE,FALSE,8,TRUE
"341","A172QMH7TMP5FF","May 07 2014","14:20:54",1,"No-Social","Seven",8,0,"Switch",1,"squirrel",3,"",0,2915,"eyes_center",-1,0,0,1,(May 07 2014 14:20:54),7,TRUE,FALSE,8,FALSE
"342","A172QMH7TMP5FF","May 07 2014","14:20:54",2,"No-Social","Seven",8,0,"Switch",1,"squirrel",4,"",0,2637,"eyes_center",-1,0,0,1,(May 07 2014 14:20:54),7,TRUE,FALSE,8,FALSE
"343","A172QMH7TMP5FF","May 07 2014","14:20:54",3,"No-Social","Seven",8,0,"Switch",1,"tomato",1,"",0,1954,"eyes_center",-1,0,0,1,(May 07 2014 14:20:54),7,TRUE,FALSE,8,FALSE
"344","A172QMH7TMP5FF","May 07 2014","14:20:54",4,"No-Social","Seven",8,0,"Switch",1,"tomato",6,"",0,2052,"eyes_center",-1,0,0,1,(May 07 2014 14:20:54),7,TRUE,FALSE,8,FALSE
"345","A172QMH7TMP5FF","May 07 2014","14:20:54",5,"No-Social","Seven",8,0,"Switch",1,"Novel37",3,"Novel49",6,8388,"eyes_center",-1,1,0,0,(May 07 2014 14:20:54),7,TRUE,FALSE,8,FALSE
"346","A172QMH7TMP5FF","May 07 2014","14:20:54",6,"No-Social","Seven",8,1,"Same",1,"Novel116",2,"Novel116",2,6566,"eyes_center",-1,1,0,0,(May 07 2014 14:20:54),7,TRUE,FALSE,8,TRUE
"347","A172QMH7TMP5FF","May 07 2014","14:20:54",7,"No-Social","Seven",8,2,"Switch",0,"Novel86",4,"Novel115",1,5813,"eyes_center",-1,1,0,0,(May 07 2014 14:20:54),7,TRUE,FALSE,8,FALSE
"348","A172QMH7TMP5FF","May 07 2014","14:20:54",8,"No-Social","Seven",8,3,"Same",0,"Novel3",0,"Novel3",0,4911,"eyes_center",-1,1,0,0,(May 07 2014 14:20:54),7,TRUE,FALSE,8,TRUE
"349","A172QMH7TMP5FF","May 07 2014","14:20:54",9,"No-Social","Seven",8,4,"Switch",1,"Novel22",7,"Novel59",4,5380,"eyes_center",-1,1,0,0,(May 07 2014 14:20:54),7,TRUE,FALSE,8,FALSE
"350","A172QMH7TMP5FF","May 07 2014","14:20:54",10,"No-Social","Seven",8,5,"Same",0,"Novel77",4,"Novel77",4,2987,"eyes_center",-1,1,0,0,(May 07 2014 14:20:54),7,TRUE,FALSE,8,TRUE
"351","A172QMH7TMP5FF","May 07 2014","14:20:54",11,"No-Social","Seven",8,6,"Switch",0,"Novel7",7,"Novel40",3,4078,"eyes_center",-1,1,0,0,(May 07 2014 14:20:54),7,TRUE,FALSE,8,FALSE
"352","A172QMH7TMP5FF","May 07 2014","14:20:54",12,"No-Social","Seven",8,7,"Same",1,"Novel124",5,"Novel124",5,4178,"eyes_center",-1,1,0,0,(May 07 2014 14:20:54),7,TRUE,FALSE,8,TRUE
"353","A172QMH7TMP5FF","May 07 2014","14:20:54",13,"No-Social","Seven",8,0,"Switch",1,"Novel49",6,"Novel49",6,8618,"eyes_center",-1,0,1,0,(May 07 2014 14:20:54),7,TRUE,TRUE,8,TRUE
"354","A172QMH7TMP5FF","May 07 2014","14:20:54",14,"No-Social","Seven",8,1,"Same",1,"Novel116",2,"Novel116",2,2271,"eyes_center",-1,0,1,0,(May 07 2014 14:20:54),7,TRUE,FALSE,8,TRUE
"355","A172QMH7TMP5FF","May 07 2014","14:20:54",15,"No-Social","Seven",8,2,"Switch",0,"Novel36",6,"Novel115",1,5785,"eyes_center",-1,0,1,0,(May 07 2014 14:20:54),7,TRUE,FALSE,8,FALSE
"356","A172QMH7TMP5FF","May 07 2014","14:20:54",16,"No-Social","Seven",8,3,"Same",0,"Novel58",7,"Novel3",0,4288,"eyes_center",-1,0,1,0,(May 07 2014 14:20:54),7,TRUE,FALSE,8,FALSE
"357","A172QMH7TMP5FF","May 07 2014","14:20:54",17,"No-Social","Seven",8,4,"Switch",1,"Novel127",1,"Novel59",4,6137,"eyes_center",-1,0,1,0,(May 07 2014 14:20:54),7,TRUE,FALSE,8,FALSE
"358","A172QMH7TMP5FF","May 07 2014","14:20:54",18,"No-Social","Seven",8,5,"Same",0,"Novel77",0,"Novel77",4,4453,"eyes_center",-1,0,1,0,(May 07 2014 14:20:54),7,TRUE,FALSE,8,TRUE
"359","A172QMH7TMP5FF","May 07 2014","14:20:54",19,"No-Social","Seven",8,6,"Switch",0,"Novel33",7,"Novel40",3,5051,"eyes_center",-1,0,1,0,(May 07 2014 14:20:54),7,TRUE,FALSE,8,FALSE
"360","A172QMH7TMP5FF","May 07 2014","14:20:54",20,"No-Social","Seven",8,7,"Same",1,"Novel82",1,"Novel124",5,2657,"eyes_center",-1,0,1,0,(May 07 2014 14:20:54),7,TRUE,FALSE,8,FALSE
"361","A1776JL7TXYC2D","May 08 2014","06:42:39",1,"No-Social","Zero",8,0,"Same",1,"squirrel",3,"",0,3545,"eyes_center",-1,0,0,1,(May 08 2014 06:42:39),0,TRUE,FALSE,8,FALSE
"362","A1776JL7TXYC2D","May 08 2014","06:42:39",2,"No-Social","Zero",8,0,"Same",1,"squirrel",4,"",0,3078,"eyes_center",-1,0,0,1,(May 08 2014 06:42:39),0,TRUE,FALSE,8,FALSE
"363","A1776JL7TXYC2D","May 08 2014","06:42:39",3,"No-Social","Zero",8,0,"Same",1,"tomato",1,"",0,2195,"eyes_center",-1,0,0,1,(May 08 2014 06:42:39),0,TRUE,FALSE,8,FALSE
"364","A1776JL7TXYC2D","May 08 2014","06:42:39",4,"No-Social","Zero",8,0,"Same",1,"tomato",6,"",0,1358,"eyes_center",-1,0,0,1,(May 08 2014 06:42:39),0,TRUE,FALSE,8,FALSE
"365","A1776JL7TXYC2D","May 08 2014","06:42:39",5,"No-Social","Zero",8,0,"Same",1,"Novel101",7,"Novel101",7,55912,"eyes_center",-1,1,0,0,(May 08 2014 06:42:39),0,TRUE,FALSE,8,TRUE
"366","A1776JL7TXYC2D","May 08 2014","06:42:39",6,"No-Social","Zero",8,0,"Same",1,"Novel101",7,"Novel101",7,6780,"eyes_center",-1,0,1,0,(May 08 2014 06:42:39),0,TRUE,TRUE,8,TRUE
"367","A1776JL7TXYC2D","May 08 2014","06:42:39",7,"No-Social","Zero",8,1,"Switch",0,"Novel36",0,"Novel34",4,20874,"eyes_center",-1,1,0,0,(May 08 2014 06:42:39),0,TRUE,FALSE,8,FALSE
"368","A1776JL7TXYC2D","May 08 2014","06:42:39",8,"No-Social","Zero",8,1,"Switch",0,"Novel124",6,"Novel34",4,16516,"eyes_center",-1,0,1,0,(May 08 2014 06:42:39),0,TRUE,FALSE,8,FALSE
"369","A1776JL7TXYC2D","May 08 2014","06:42:39",9,"No-Social","Zero",8,2,"Same",1,"Novel84",1,"Novel84",1,32136,"eyes_center",-1,1,0,0,(May 08 2014 06:42:39),0,TRUE,FALSE,8,TRUE
"370","A1776JL7TXYC2D","May 08 2014","06:42:39",10,"No-Social","Zero",8,2,"Same",1,"Novel84",1,"Novel84",1,1251,"eyes_center",-1,0,1,0,(May 08 2014 06:42:39),0,TRUE,FALSE,8,TRUE
"371","A1776JL7TXYC2D","May 08 2014","06:42:39",11,"No-Social","Zero",8,3,"Switch",1,"Novel3",1,"Novel129",6,2470,"eyes_center",-1,1,0,0,(May 08 2014 06:42:39),0,TRUE,FALSE,8,FALSE
"372","A1776JL7TXYC2D","May 08 2014","06:42:39",12,"No-Social","Zero",8,3,"Switch",1,"Novel18",5,"Novel129",6,7608,"eyes_center",-1,0,1,0,(May 08 2014 06:42:39),0,TRUE,FALSE,8,FALSE
"373","A1776JL7TXYC2D","May 08 2014","06:42:39",13,"No-Social","Zero",8,4,"Same",0,"Novel103",4,"Novel103",4,14146,"eyes_center",-1,1,0,0,(May 08 2014 06:42:39),0,TRUE,FALSE,8,TRUE
"374","A1776JL7TXYC2D","May 08 2014","06:42:39",14,"No-Social","Zero",8,4,"Same",0,"Novel103",0,"Novel103",4,1801,"eyes_center",-1,0,1,0,(May 08 2014 06:42:39),0,TRUE,FALSE,8,TRUE
"375","A1776JL7TXYC2D","May 08 2014","06:42:39",15,"No-Social","Zero",8,5,"Switch",0,"Novel56",2,"Novel54",7,11091,"eyes_center",-1,1,0,0,(May 08 2014 06:42:39),0,TRUE,FALSE,8,FALSE
"376","A1776JL7TXYC2D","May 08 2014","06:42:39",16,"No-Social","Zero",8,5,"Switch",0,"Novel10",7,"Novel54",7,3013,"eyes_center",-1,0,1,0,(May 08 2014 06:42:39),0,TRUE,FALSE,8,FALSE
"377","A1776JL7TXYC2D","May 08 2014","06:42:39",17,"No-Social","Zero",8,6,"Same",0,"Novel102",3,"Novel102",3,6741,"eyes_center",-1,1,0,0,(May 08 2014 06:42:39),0,TRUE,FALSE,8,TRUE
"378","A1776JL7TXYC2D","May 08 2014","06:42:39",18,"No-Social","Zero",8,6,"Same",0,"Novel102",6,"Novel102",3,2146,"eyes_center",-1,0,1,0,(May 08 2014 06:42:39),0,TRUE,FALSE,8,TRUE
"379","A1776JL7TXYC2D","May 08 2014","06:42:39",19,"No-Social","Zero",8,7,"Switch",1,"Novel78",1,"Novel66",7,2770,"eyes_center",-1,1,0,0,(May 08 2014 06:42:39),0,TRUE,FALSE,8,FALSE
"380","A1776JL7TXYC2D","May 08 2014","06:42:39",20,"No-Social","Zero",8,7,"Switch",1,"Novel44",5,"Novel66",7,4859,"eyes_center",-1,0,1,0,(May 08 2014 06:42:39),0,TRUE,FALSE,8,FALSE
"381","A17ZR6O2PMNETF","May 13 2014","13:13:24",1,"No-Social","Three",8,0,"Same",1,"squirrel",3,"",0,2570,"eyes_center",-1,0,0,1,(May 13 2014 13:13:24),3,TRUE,FALSE,8,FALSE
"382","A17ZR6O2PMNETF","May 13 2014","13:13:24",2,"No-Social","Three",8,0,"Same",1,"squirrel",4,"",0,2326,"eyes_center",-1,0,0,1,(May 13 2014 13:13:24),3,TRUE,FALSE,8,FALSE
"383","A17ZR6O2PMNETF","May 13 2014","13:13:24",3,"No-Social","Three",8,0,"Same",1,"tomato",1,"",0,2039,"eyes_center",-1,0,0,1,(May 13 2014 13:13:24),3,TRUE,FALSE,8,FALSE
"384","A17ZR6O2PMNETF","May 13 2014","13:13:24",4,"No-Social","Three",8,0,"Same",1,"tomato",6,"",0,1591,"eyes_center",-1,0,0,1,(May 13 2014 13:13:24),3,TRUE,FALSE,8,FALSE
"385","A17ZR6O2PMNETF","May 13 2014","13:13:24",5,"No-Social","Three",8,0,"Same",1,"Novel89",3,"Novel89",3,6289,"eyes_center",-1,1,0,0,(May 13 2014 13:13:24),3,TRUE,FALSE,8,TRUE
"386","A17ZR6O2PMNETF","May 13 2014","13:13:24",6,"No-Social","Three",8,1,"Switch",1,"Novel6",2,"Novel57",6,7846,"eyes_center",-1,1,0,0,(May 13 2014 13:13:24),3,TRUE,FALSE,8,FALSE
"387","A17ZR6O2PMNETF","May 13 2014","13:13:24",7,"No-Social","Three",8,2,"Same",1,"Novel101",5,"Novel101",5,4756,"eyes_center",-1,1,0,0,(May 13 2014 13:13:24),3,TRUE,FALSE,8,TRUE
"388","A17ZR6O2PMNETF","May 13 2014","13:13:24",8,"No-Social","Three",8,3,"Switch",1,"Novel133",0,"Novel36",4,2321,"eyes_center",-1,1,0,0,(May 13 2014 13:13:24),3,TRUE,FALSE,8,FALSE
"389","A17ZR6O2PMNETF","May 13 2014","13:13:24",9,"No-Social","Three",8,0,"Same",1,"Novel89",3,"Novel89",3,1795,"eyes_center",-1,0,1,0,(May 13 2014 13:13:24),3,TRUE,TRUE,8,TRUE
"390","A17ZR6O2PMNETF","May 13 2014","13:13:24",10,"No-Social","Three",8,1,"Switch",1,"Novel67",7,"Novel57",6,3494,"eyes_center",-1,0,1,0,(May 13 2014 13:13:24),3,TRUE,FALSE,8,FALSE
"391","A17ZR6O2PMNETF","May 13 2014","13:13:24",11,"No-Social","Three",8,2,"Same",1,"Novel78",3,"Novel101",5,3202,"eyes_center",-1,0,1,0,(May 13 2014 13:13:24),3,TRUE,FALSE,8,FALSE
"392","A17ZR6O2PMNETF","May 13 2014","13:13:24",12,"No-Social","Three",8,3,"Switch",1,"Novel62",3,"Novel36",4,3592,"eyes_center",-1,0,1,0,(May 13 2014 13:13:24),3,TRUE,FALSE,8,FALSE
"393","A17ZR6O2PMNETF","May 13 2014","13:13:24",13,"No-Social","Three",8,4,"Same",0,"Novel64",2,"Novel64",2,2923,"eyes_center",-1,1,0,0,(May 13 2014 13:13:24),3,TRUE,FALSE,8,TRUE
"394","A17ZR6O2PMNETF","May 13 2014","13:13:24",14,"No-Social","Three",8,5,"Switch",0,"Novel14",1,"Novel17",6,1006,"eyes_center",-1,1,0,0,(May 13 2014 13:13:24),3,TRUE,FALSE,8,FALSE
"395","A17ZR6O2PMNETF","May 13 2014","13:13:24",15,"No-Social","Three",8,6,"Same",0,"Novel140",5,"Novel140",5,1154,"eyes_center",-1,1,0,0,(May 13 2014 13:13:24),3,TRUE,FALSE,8,TRUE
"396","A17ZR6O2PMNETF","May 13 2014","13:13:24",16,"No-Social","Three",8,7,"Switch",0,"Novel118",0,"Novel117",5,1335,"eyes_center",-1,1,0,0,(May 13 2014 13:13:24),3,TRUE,FALSE,8,FALSE
"397","A17ZR6O2PMNETF","May 13 2014","13:13:24",17,"No-Social","Three",8,4,"Same",0,"Novel111",6,"Novel64",2,4218,"eyes_center",-1,0,1,0,(May 13 2014 13:13:24),3,TRUE,FALSE,8,FALSE
"398","A17ZR6O2PMNETF","May 13 2014","13:13:24",18,"No-Social","Three",8,5,"Switch",0,"Novel25",7,"Novel17",6,1518,"eyes_center",-1,0,1,0,(May 13 2014 13:13:24),3,TRUE,FALSE,8,FALSE
"399","A17ZR6O2PMNETF","May 13 2014","13:13:24",19,"No-Social","Three",8,6,"Same",0,"Novel140",2,"Novel140",5,1800,"eyes_center",-1,0,1,0,(May 13 2014 13:13:24),3,TRUE,FALSE,8,TRUE
"400","A17ZR6O2PMNETF","May 13 2014","13:13:24",20,"No-Social","Three",8,7,"Switch",0,"Novel103",7,"Novel117",5,1792,"eyes_center",-1,0,1,0,(May 13 2014 13:13:24),3,TRUE,FALSE,8,FALSE
"401","A18758S1PUYIDT","May 13 2014","10:51:39",1,"Social","Seven",8,0,"Switch",1,"squirrel",3,"",0,1829,"eyes_center",-1,0,0,1,(May 13 2014 10:51:39),7,TRUE,FALSE,8,FALSE
"402","A18758S1PUYIDT","May 13 2014","10:51:39",2,"Social","Seven",8,0,"Switch",1,"squirrel",4,"",0,1180,"eyes_center",-1,0,0,1,(May 13 2014 10:51:39),7,TRUE,FALSE,8,FALSE
"403","A18758S1PUYIDT","May 13 2014","10:51:39",3,"Social","Seven",8,0,"Switch",1,"tomato",1,"",0,1675,"eyes_center",-1,0,0,1,(May 13 2014 10:51:39),7,TRUE,FALSE,8,FALSE
"404","A18758S1PUYIDT","May 13 2014","10:51:39",4,"Social","Seven",8,0,"Switch",1,"tomato",6,"",0,1194,"eyes_center",-1,0,0,1,(May 13 2014 10:51:39),7,TRUE,FALSE,8,FALSE
"405","A18758S1PUYIDT","May 13 2014","10:51:39",5,"Social","Seven",8,0,"Switch",1,"Novel25",0,"Novel94",2,2186,"eyes_up_left",0,1,0,0,(May 13 2014 10:51:39),7,TRUE,FALSE,8,FALSE
"406","A18758S1PUYIDT","May 13 2014","10:51:39",6,"Social","Seven",8,1,"Same",1,"Novel35",1,"Novel35",1,1660,"eyes_up_mid_left",1,1,0,0,(May 13 2014 10:51:39),7,TRUE,FALSE,8,TRUE
"407","A18758S1PUYIDT","May 13 2014","10:51:39",7,"Social","Seven",8,2,"Switch",0,"Novel66",3,"Novel110",5,1057,"eyes_up_right",3,1,0,0,(May 13 2014 10:51:39),7,TRUE,FALSE,8,FALSE
"408","A18758S1PUYIDT","May 13 2014","10:51:39",8,"Social","Seven",8,3,"Same",0,"Novel57",3,"Novel57",3,1115,"eyes_up_right",3,1,0,0,(May 13 2014 10:51:39),7,TRUE,FALSE,8,TRUE
"409","A18758S1PUYIDT","May 13 2014","10:51:39",9,"Social","Seven",8,4,"Switch",0,"Novel107",7,"Novel114",1,914,"eyes_down_right",7,1,0,0,(May 13 2014 10:51:39),7,TRUE,FALSE,8,FALSE
"410","A18758S1PUYIDT","May 13 2014","10:51:39",10,"Social","Seven",8,5,"Same",1,"Novel87",1,"Novel87",1,946,"eyes_up_mid_left",1,1,0,0,(May 13 2014 10:51:39),7,TRUE,FALSE,8,TRUE
"411","A18758S1PUYIDT","May 13 2014","10:51:39",11,"Social","Seven",8,6,"Switch",1,"Novel103",2,"Novel95",1,1147,"eyes_up_mid_right",2,1,0,0,(May 13 2014 10:51:39),7,TRUE,FALSE,8,FALSE
"412","A18758S1PUYIDT","May 13 2014","10:51:39",12,"Social","Seven",8,7,"Same",0,"Novel24",2,"Novel24",2,1022,"eyes_up_mid_right",2,1,0,0,(May 13 2014 10:51:39),7,TRUE,FALSE,8,TRUE
"413","A18758S1PUYIDT","May 13 2014","10:51:39",13,"Social","Seven",8,0,"Switch",1,"Novel102",4,"Novel94",2,4555,"eyes_center",-1,0,1,0,(May 13 2014 10:51:39),7,TRUE,TRUE,8,FALSE
"414","A18758S1PUYIDT","May 13 2014","10:51:39",14,"Social","Seven",8,1,"Same",1,"Novel35",1,"Novel35",1,3139,"eyes_center",-1,0,1,0,(May 13 2014 10:51:39),7,TRUE,FALSE,8,TRUE
"415","A18758S1PUYIDT","May 13 2014","10:51:39",15,"Social","Seven",8,2,"Switch",0,"Novel21",1,"Novel110",5,5058,"eyes_center",-1,0,1,0,(May 13 2014 10:51:39),7,TRUE,FALSE,8,FALSE
"416","A18758S1PUYIDT","May 13 2014","10:51:39",16,"Social","Seven",8,3,"Same",0,"Novel17",6,"Novel57",3,2558,"eyes_center",-1,0,1,0,(May 13 2014 10:51:39),7,TRUE,FALSE,8,FALSE
"417","A18758S1PUYIDT","May 13 2014","10:51:39",17,"Social","Seven",8,4,"Switch",0,"Novel29",2,"Novel114",1,2912,"eyes_center",-1,0,1,0,(May 13 2014 10:51:39),7,TRUE,FALSE,8,FALSE
"418","A18758S1PUYIDT","May 13 2014","10:51:39",18,"Social","Seven",8,5,"Same",1,"Novel56",6,"Novel87",1,1730,"eyes_center",-1,0,1,0,(May 13 2014 10:51:39),7,TRUE,FALSE,8,FALSE
"419","A18758S1PUYIDT","May 13 2014","10:51:39",19,"Social","Seven",8,6,"Switch",1,"Novel63",7,"Novel95",1,3478,"eyes_center",-1,0,1,0,(May 13 2014 10:51:39),7,TRUE,FALSE,8,FALSE
"420","A18758S1PUYIDT","May 13 2014","10:51:39",20,"Social","Seven",8,7,"Same",0,"Novel81",4,"Novel24",2,3901,"eyes_center",-1,0,1,0,(May 13 2014 10:51:39),7,TRUE,FALSE,8,FALSE
"421","A18TABDP092GYT","May 06 2014","23:25:04",1,"No-Social","Seven",8,0,"Same",1,"squirrel",3,"",0,2446,"eyes_center",-1,0,0,1,(May 06 2014 23:25:04),7,TRUE,FALSE,8,FALSE
"422","A18TABDP092GYT","May 06 2014","23:25:04",2,"No-Social","Seven",8,0,"Same",1,"squirrel",4,"",0,2804,"eyes_center",-1,0,0,1,(May 06 2014 23:25:04),7,TRUE,FALSE,8,FALSE
"423","A18TABDP092GYT","May 06 2014","23:25:04",3,"No-Social","Seven",8,0,"Same",1,"tomato",1,"",0,2781,"eyes_center",-1,0,0,1,(May 06 2014 23:25:04),7,TRUE,FALSE,8,FALSE
"424","A18TABDP092GYT","May 06 2014","23:25:04",4,"No-Social","Seven",8,0,"Same",1,"tomato",6,"",0,2351,"eyes_center",-1,0,0,1,(May 06 2014 23:25:04),7,TRUE,FALSE,8,FALSE
"425","A18TABDP092GYT","May 06 2014","23:25:04",5,"No-Social","Seven",8,0,"Same",1,"Novel73",3,"Novel73",3,11729,"eyes_center",-1,1,0,0,(May 06 2014 23:25:04),7,TRUE,FALSE,8,TRUE
"426","A18TABDP092GYT","May 06 2014","23:25:04",6,"No-Social","Seven",8,1,"Switch",1,"Novel6",2,"Novel7",3,5978,"eyes_center",-1,1,0,0,(May 06 2014 23:25:04),7,TRUE,FALSE,8,FALSE
"427","A18TABDP092GYT","May 06 2014","23:25:04",7,"No-Social","Seven",8,2,"Same",1,"Novel105",5,"Novel105",5,4721,"eyes_center",-1,1,0,0,(May 06 2014 23:25:04),7,TRUE,FALSE,8,TRUE
"428","A18TABDP092GYT","May 06 2014","23:25:04",8,"No-Social","Seven",8,3,"Switch",0,"Novel78",5,"Novel54",4,4226,"eyes_center",-1,1,0,0,(May 06 2014 23:25:04),7,TRUE,FALSE,8,FALSE
"429","A18TABDP092GYT","May 06 2014","23:25:04",9,"No-Social","Seven",8,4,"Same",0,"Novel14",2,"Novel14",2,3241,"eyes_center",-1,1,0,0,(May 06 2014 23:25:04),7,TRUE,FALSE,8,TRUE
"430","A18TABDP092GYT","May 06 2014","23:25:04",10,"No-Social","Seven",8,5,"Switch",0,"Novel34",0,"Novel83",4,1418,"eyes_center",-1,1,0,0,(May 06 2014 23:25:04),7,TRUE,FALSE,8,FALSE
"431","A18TABDP092GYT","May 06 2014","23:25:04",11,"No-Social","Seven",8,6,"Same",0,"Novel68",7,"Novel68",7,1357,"eyes_center",-1,1,0,0,(May 06 2014 23:25:04),7,TRUE,FALSE,8,TRUE
"432","A18TABDP092GYT","May 06 2014","23:25:04",12,"No-Social","Seven",8,7,"Switch",1,"Novel36",5,"Novel111",3,2707,"eyes_center",-1,1,0,0,(May 06 2014 23:25:04),7,TRUE,FALSE,8,FALSE
"433","A18TABDP092GYT","May 06 2014","23:25:04",13,"No-Social","Seven",8,0,"Same",1,"Novel73",3,"Novel73",3,7195,"eyes_center",-1,0,1,0,(May 06 2014 23:25:04),7,TRUE,TRUE,8,TRUE
"434","A18TABDP092GYT","May 06 2014","23:25:04",14,"No-Social","Seven",8,1,"Switch",1,"Novel86",7,"Novel7",3,6477,"eyes_center",-1,0,1,0,(May 06 2014 23:25:04),7,TRUE,FALSE,8,FALSE
"435","A18TABDP092GYT","May 06 2014","23:25:04",15,"No-Social","Seven",8,2,"Same",1,"Novel105",5,"Novel105",5,2540,"eyes_center",-1,0,1,0,(May 06 2014 23:25:04),7,TRUE,FALSE,8,TRUE
"436","A18TABDP092GYT","May 06 2014","23:25:04",16,"No-Social","Seven",8,3,"Switch",0,"Novel50",2,"Novel54",4,4672,"eyes_center",-1,0,1,0,(May 06 2014 23:25:04),7,TRUE,FALSE,8,FALSE
"437","A18TABDP092GYT","May 06 2014","23:25:04",17,"No-Social","Seven",8,4,"Same",0,"Novel14",4,"Novel14",2,2329,"eyes_center",-1,0,1,0,(May 06 2014 23:25:04),7,TRUE,FALSE,8,TRUE
"438","A18TABDP092GYT","May 06 2014","23:25:04",18,"No-Social","Seven",8,5,"Switch",0,"Novel96",3,"Novel83",4,6916,"eyes_center",-1,0,1,0,(May 06 2014 23:25:04),7,TRUE,FALSE,8,FALSE
"439","A18TABDP092GYT","May 06 2014","23:25:04",19,"No-Social","Seven",8,6,"Same",0,"Novel68",6,"Novel68",7,4068,"eyes_center",-1,0,1,0,(May 06 2014 23:25:04),7,TRUE,FALSE,8,TRUE
"440","A18TABDP092GYT","May 06 2014","23:25:04",20,"No-Social","Seven",8,7,"Switch",1,"Novel51",6,"Novel111",3,5496,"eyes_center",-1,0,1,0,(May 06 2014 23:25:04),7,TRUE,FALSE,8,FALSE
"441","A19K10Z0D2NTZK","May 13 2014","08:56:45",1,"No-Social","Three",8,0,"Switch",1,"squirrel",3,"",0,3222,"eyes_center",-1,0,0,1,(May 13 2014 08:56:45),3,TRUE,FALSE,8,FALSE
"442","A19K10Z0D2NTZK","May 13 2014","08:56:45",2,"No-Social","Three",8,0,"Switch",1,"squirrel",4,"",0,3340,"eyes_center",-1,0,0,1,(May 13 2014 08:56:45),3,TRUE,FALSE,8,FALSE
"443","A19K10Z0D2NTZK","May 13 2014","08:56:45",3,"No-Social","Three",8,0,"Switch",1,"tomato",1,"",0,2259,"eyes_center",-1,0,0,1,(May 13 2014 08:56:45),3,TRUE,FALSE,8,FALSE
"444","A19K10Z0D2NTZK","May 13 2014","08:56:45",4,"No-Social","Three",8,0,"Switch",1,"tomato",6,"",0,2922,"eyes_center",-1,0,0,1,(May 13 2014 08:56:45),3,TRUE,FALSE,8,FALSE
"445","A19K10Z0D2NTZK","May 13 2014","08:56:45",5,"No-Social","Three",8,0,"Switch",1,"Novel114",2,"Novel115",4,12187,"eyes_center",-1,1,0,0,(May 13 2014 08:56:45),3,TRUE,FALSE,8,FALSE
"446","A19K10Z0D2NTZK","May 13 2014","08:56:45",6,"No-Social","Three",8,1,"Same",1,"Novel87",6,"Novel87",6,13567,"eyes_center",-1,1,0,0,(May 13 2014 08:56:45),3,TRUE,FALSE,8,TRUE
"447","A19K10Z0D2NTZK","May 13 2014","08:56:45",7,"No-Social","Three",8,2,"Switch",0,"Novel38",6,"Novel123",4,10168,"eyes_center",-1,1,0,0,(May 13 2014 08:56:45),3,TRUE,FALSE,8,FALSE
"448","A19K10Z0D2NTZK","May 13 2014","08:56:45",8,"No-Social","Three",8,3,"Same",0,"Novel97",6,"Novel97",6,10863,"eyes_center",-1,1,0,0,(May 13 2014 08:56:45),3,TRUE,FALSE,8,TRUE
"449","A19K10Z0D2NTZK","May 13 2014","08:56:45",9,"No-Social","Three",8,0,"Switch",1,"Novel115",4,"Novel115",4,4391,"eyes_center",-1,0,1,0,(May 13 2014 08:56:45),3,TRUE,TRUE,8,TRUE
"450","A19K10Z0D2NTZK","May 13 2014","08:56:45",10,"No-Social","Three",8,1,"Same",1,"Novel87",6,"Novel87",6,9199,"eyes_center",-1,0,1,0,(May 13 2014 08:56:45),3,TRUE,FALSE,8,TRUE
"451","A19K10Z0D2NTZK","May 13 2014","08:56:45",11,"No-Social","Three",8,2,"Switch",0,"Novel49",6,"Novel123",4,6455,"eyes_center",-1,0,1,0,(May 13 2014 08:56:45),3,TRUE,FALSE,8,FALSE
"452","A19K10Z0D2NTZK","May 13 2014","08:56:45",12,"No-Social","Three",8,3,"Same",0,"Novel74",6,"Novel97",6,3287,"eyes_center",-1,0,1,0,(May 13 2014 08:56:45),3,TRUE,FALSE,8,FALSE
"453","A19K10Z0D2NTZK","May 13 2014","08:56:45",13,"No-Social","Three",8,4,"Switch",1,"Novel26",6,"Novel17",3,5817,"eyes_center",-1,1,0,0,(May 13 2014 08:56:45),3,TRUE,FALSE,8,FALSE
"454","A19K10Z0D2NTZK","May 13 2014","08:56:45",14,"No-Social","Three",8,5,"Same",0,"Novel40",7,"Novel40",7,6861,"eyes_center",-1,1,0,0,(May 13 2014 08:56:45),3,TRUE,FALSE,8,TRUE
"455","A19K10Z0D2NTZK","May 13 2014","08:56:45",15,"No-Social","Three",8,6,"Switch",0,"Novel107",3,"Novel18",7,8313,"eyes_center",-1,1,0,0,(May 13 2014 08:56:45),3,TRUE,FALSE,8,FALSE
"456","A19K10Z0D2NTZK","May 13 2014","08:56:45",16,"No-Social","Three",8,7,"Same",1,"Novel25",2,"Novel25",2,6239,"eyes_center",-1,1,0,0,(May 13 2014 08:56:45),3,TRUE,FALSE,8,TRUE
"457","A19K10Z0D2NTZK","May 13 2014","08:56:45",17,"No-Social","Three",8,4,"Switch",1,"Novel4",2,"Novel17",3,5580,"eyes_center",-1,0,1,0,(May 13 2014 08:56:45),3,TRUE,FALSE,8,FALSE
"458","A19K10Z0D2NTZK","May 13 2014","08:56:45",18,"No-Social","Three",8,5,"Same",0,"Novel2",2,"Novel40",7,3691,"eyes_center",-1,0,1,0,(May 13 2014 08:56:45),3,TRUE,FALSE,8,FALSE
"459","A19K10Z0D2NTZK","May 13 2014","08:56:45",19,"No-Social","Three",8,6,"Switch",0,"Novel27",2,"Novel18",7,4288,"eyes_center",-1,0,1,0,(May 13 2014 08:56:45),3,TRUE,FALSE,8,FALSE
"460","A19K10Z0D2NTZK","May 13 2014","08:56:45",20,"No-Social","Three",8,7,"Same",1,"Novel25",2,"Novel25",2,1866,"eyes_center",-1,0,1,0,(May 13 2014 08:56:45),3,TRUE,FALSE,8,TRUE
"461","A1A8L6LU8E2YOA","May 11 2014","12:00:41",1,"No-Social","Seven",8,0,"Same",0,"squirrel",3,"",0,2610,"eyes_center",-1,0,0,1,(May 11 2014 12:00:41),7,TRUE,FALSE,8,FALSE
"462","A1A8L6LU8E2YOA","May 11 2014","12:00:41",2,"No-Social","Seven",8,0,"Same",0,"squirrel",4,"",0,3122,"eyes_center",-1,0,0,1,(May 11 2014 12:00:41),7,TRUE,FALSE,8,FALSE
"463","A1A8L6LU8E2YOA","May 11 2014","12:00:41",3,"No-Social","Seven",8,0,"Same",0,"tomato",1,"",0,1627,"eyes_center",-1,0,0,1,(May 11 2014 12:00:41),7,TRUE,FALSE,8,FALSE
"464","A1A8L6LU8E2YOA","May 11 2014","12:00:41",4,"No-Social","Seven",8,0,"Same",0,"tomato",6,"",0,1290,"eyes_center",-1,0,0,1,(May 11 2014 12:00:41),7,TRUE,FALSE,8,FALSE
"465","A1A8L6LU8E2YOA","May 11 2014","12:00:41",5,"No-Social","Seven",8,0,"Same",0,"Novel29",2,"Novel29",2,4573,"eyes_center",-1,1,0,0,(May 11 2014 12:00:41),7,TRUE,FALSE,8,TRUE
"466","A1A8L6LU8E2YOA","May 11 2014","12:00:41",6,"No-Social","Seven",8,1,"Switch",0,"Novel120",7,"Novel85",4,4469,"eyes_center",-1,1,0,0,(May 11 2014 12:00:41),7,TRUE,FALSE,8,FALSE
"467","A1A8L6LU8E2YOA","May 11 2014","12:00:41",7,"No-Social","Seven",8,2,"Same",1,"Novel103",0,"Novel103",0,2932,"eyes_center",-1,1,0,0,(May 11 2014 12:00:41),7,TRUE,FALSE,8,TRUE
"468","A1A8L6LU8E2YOA","May 11 2014","12:00:41",8,"No-Social","Seven",8,3,"Switch",1,"Novel72",7,"Novel137",2,2499,"eyes_center",-1,1,0,0,(May 11 2014 12:00:41),7,TRUE,FALSE,8,FALSE
"469","A1A8L6LU8E2YOA","May 11 2014","12:00:41",9,"No-Social","Seven",8,4,"Same",0,"Novel8",2,"Novel8",2,2228,"eyes_center",-1,1,0,0,(May 11 2014 12:00:41),7,TRUE,FALSE,8,TRUE
"470","A1A8L6LU8E2YOA","May 11 2014","12:00:41",10,"No-Social","Seven",8,5,"Switch",1,"Novel55",3,"Novel50",5,2661,"eyes_center",-1,1,0,0,(May 11 2014 12:00:41),7,TRUE,FALSE,8,FALSE
"471","A1A8L6LU8E2YOA","May 11 2014","12:00:41",11,"No-Social","Seven",8,6,"Same",1,"Novel79",2,"Novel79",2,2291,"eyes_center",-1,1,0,0,(May 11 2014 12:00:41),7,TRUE,FALSE,8,TRUE
"472","A1A8L6LU8E2YOA","May 11 2014","12:00:41",12,"No-Social","Seven",8,7,"Switch",0,"Novel105",5,"Novel63",2,1884,"eyes_center",-1,1,0,0,(May 11 2014 12:00:41),7,TRUE,FALSE,8,FALSE
"473","A1A8L6LU8E2YOA","May 11 2014","12:00:41",13,"No-Social","Seven",8,0,"Same",0,"Novel74",5,"Novel29",2,1429,"eyes_center",-1,0,1,0,(May 11 2014 12:00:41),7,TRUE,TRUE,8,FALSE
"474","A1A8L6LU8E2YOA","May 11 2014","12:00:41",14,"No-Social","Seven",8,1,"Switch",0,"Novel58",1,"Novel85",4,1836,"eyes_center",-1,0,1,0,(May 11 2014 12:00:41),7,TRUE,FALSE,8,FALSE
"475","A1A8L6LU8E2YOA","May 11 2014","12:00:41",15,"No-Social","Seven",8,2,"Same",1,"Novel103",0,"Novel103",0,2835,"eyes_center",-1,0,1,0,(May 11 2014 12:00:41),7,TRUE,FALSE,8,TRUE
"476","A1A8L6LU8E2YOA","May 11 2014","12:00:41",16,"No-Social","Seven",8,3,"Switch",1,"Novel21",6,"Novel137",2,4142,"eyes_center",-1,0,1,0,(May 11 2014 12:00:41),7,TRUE,FALSE,8,FALSE
"477","A1A8L6LU8E2YOA","May 11 2014","12:00:41",17,"No-Social","Seven",8,4,"Same",0,"Novel56",3,"Novel8",2,1819,"eyes_center",-1,0,1,0,(May 11 2014 12:00:41),7,TRUE,FALSE,8,FALSE
"478","A1A8L6LU8E2YOA","May 11 2014","12:00:41",18,"No-Social","Seven",8,5,"Switch",1,"Novel94",7,"Novel50",5,1443,"eyes_center",-1,0,1,0,(May 11 2014 12:00:41),7,TRUE,FALSE,8,FALSE
"479","A1A8L6LU8E2YOA","May 11 2014","12:00:41",19,"No-Social","Seven",8,6,"Same",1,"Novel31",5,"Novel79",2,2125,"eyes_center",-1,0,1,0,(May 11 2014 12:00:41),7,TRUE,FALSE,8,FALSE
"480","A1A8L6LU8E2YOA","May 11 2014","12:00:41",20,"No-Social","Seven",8,7,"Switch",0,"Novel95",1,"Novel63",2,1819,"eyes_center",-1,0,1,0,(May 11 2014 12:00:41),7,TRUE,FALSE,8,FALSE
"481","A1AENFVOCT29DW","May 09 2014","21:51:18",1,"No-Social","Seven",8,0,"Switch",1,"squirrel",3,"",0,6769,"eyes_center",-1,0,0,1,(May 09 2014 21:51:18),7,TRUE,FALSE,8,FALSE
"482","A1AENFVOCT29DW","May 09 2014","21:51:18",2,"No-Social","Seven",8,0,"Switch",1,"squirrel",4,"",0,2511,"eyes_center",-1,0,0,1,(May 09 2014 21:51:18),7,TRUE,FALSE,8,FALSE
"483","A1AENFVOCT29DW","May 09 2014","21:51:18",3,"No-Social","Seven",8,0,"Switch",1,"tomato",1,"",0,2467,"eyes_center",-1,0,0,1,(May 09 2014 21:51:18),7,TRUE,FALSE,8,FALSE
"484","A1AENFVOCT29DW","May 09 2014","21:51:18",4,"No-Social","Seven",8,0,"Switch",1,"tomato",6,"",0,1675,"eyes_center",-1,0,0,1,(May 09 2014 21:51:18),7,TRUE,FALSE,8,FALSE
"485","A1AENFVOCT29DW","May 09 2014","21:51:18",5,"No-Social","Seven",8,0,"Switch",1,"Novel7",2,"Novel3",3,15405,"eyes_center",-1,1,0,0,(May 09 2014 21:51:18),7,TRUE,FALSE,8,FALSE
"486","A1AENFVOCT29DW","May 09 2014","21:51:18",6,"No-Social","Seven",8,1,"Same",0,"Novel95",5,"Novel95",5,6657,"eyes_center",-1,1,0,0,(May 09 2014 21:51:18),7,TRUE,FALSE,8,TRUE
"487","A1AENFVOCT29DW","May 09 2014","21:51:18",7,"No-Social","Seven",8,2,"Switch",0,"Novel107",2,"Novel81",7,4343,"eyes_center",-1,1,0,0,(May 09 2014 21:51:18),7,TRUE,FALSE,8,FALSE
"488","A1AENFVOCT29DW","May 09 2014","21:51:18",8,"No-Social","Seven",8,3,"Same",0,"Novel96",6,"Novel96",6,5032,"eyes_center",-1,1,0,0,(May 09 2014 21:51:18),7,TRUE,FALSE,8,TRUE
"489","A1AENFVOCT29DW","May 09 2014","21:51:18",9,"No-Social","Seven",8,4,"Switch",0,"Novel119",2,"Novel47",3,6293,"eyes_center",-1,1,0,0,(May 09 2014 21:51:18),7,TRUE,FALSE,8,FALSE
"490","A1AENFVOCT29DW","May 09 2014","21:51:18",10,"No-Social","Seven",8,5,"Same",1,"Novel98",6,"Novel98",6,7772,"eyes_center",-1,1,0,0,(May 09 2014 21:51:18),7,TRUE,FALSE,8,TRUE
"491","A1AENFVOCT29DW","May 09 2014","21:51:18",11,"No-Social","Seven",8,6,"Switch",1,"Novel45",7,"Novel76",4,10351,"eyes_center",-1,1,0,0,(May 09 2014 21:51:18),7,TRUE,FALSE,8,FALSE
"492","A1AENFVOCT29DW","May 09 2014","21:51:18",12,"No-Social","Seven",8,7,"Same",1,"Novel134",7,"Novel134",7,3037,"eyes_center",-1,1,0,0,(May 09 2014 21:51:18),7,TRUE,FALSE,8,TRUE
"493","A1AENFVOCT29DW","May 09 2014","21:51:18",13,"No-Social","Seven",8,0,"Switch",1,"Novel74",0,"Novel3",3,7693,"eyes_center",-1,0,1,0,(May 09 2014 21:51:18),7,TRUE,TRUE,8,FALSE
"494","A1AENFVOCT29DW","May 09 2014","21:51:18",14,"No-Social","Seven",8,1,"Same",0,"Novel114",4,"Novel95",5,10910,"eyes_center",-1,0,1,0,(May 09 2014 21:51:18),7,TRUE,FALSE,8,FALSE
"495","A1AENFVOCT29DW","May 09 2014","21:51:18",15,"No-Social","Seven",8,2,"Switch",0,"Novel81",4,"Novel81",7,15288,"eyes_center",-1,0,1,0,(May 09 2014 21:51:18),7,TRUE,FALSE,8,TRUE
"496","A1AENFVOCT29DW","May 09 2014","21:51:18",16,"No-Social","Seven",8,3,"Same",0,"Novel40",2,"Novel96",6,41988,"eyes_center",-1,0,1,0,(May 09 2014 21:51:18),7,TRUE,FALSE,8,FALSE
"497","A1AENFVOCT29DW","May 09 2014","21:51:18",17,"No-Social","Seven",8,4,"Switch",0,"Novel108",5,"Novel47",3,4343,"eyes_center",-1,0,1,0,(May 09 2014 21:51:18),7,TRUE,FALSE,8,FALSE
"498","A1AENFVOCT29DW","May 09 2014","21:51:18",18,"No-Social","Seven",8,5,"Same",1,"Novel63",7,"Novel98",6,8640,"eyes_center",-1,0,1,0,(May 09 2014 21:51:18),7,TRUE,FALSE,8,FALSE
"499","A1AENFVOCT29DW","May 09 2014","21:51:18",19,"No-Social","Seven",8,6,"Switch",1,"Novel17",3,"Novel76",4,19450,"eyes_center",-1,0,1,0,(May 09 2014 21:51:18),7,TRUE,FALSE,8,FALSE
"500","A1AENFVOCT29DW","May 09 2014","21:51:18",20,"No-Social","Seven",8,7,"Same",1,"Novel94",6,"Novel134",7,7590,"eyes_center",-1,0,1,0,(May 09 2014 21:51:18),7,TRUE,FALSE,8,FALSE
"501","A1AJG4BGSRPC93","May 11 2014","14:36:23",1,"No-Social","Zero",8,0,"Same",1,"squirrel",3,"",0,2023,"eyes_center",-1,0,0,1,(May 11 2014 14:36:23),0,TRUE,FALSE,8,FALSE
"502","A1AJG4BGSRPC93","May 11 2014","14:36:23",2,"No-Social","Zero",8,0,"Same",1,"squirrel",4,"",0,2562,"eyes_center",-1,0,0,1,(May 11 2014 14:36:23),0,TRUE,FALSE,8,FALSE
"503","A1AJG4BGSRPC93","May 11 2014","14:36:23",3,"No-Social","Zero",8,0,"Same",1,"tomato",1,"",0,1181,"eyes_center",-1,0,0,1,(May 11 2014 14:36:23),0,TRUE,FALSE,8,FALSE
"504","A1AJG4BGSRPC93","May 11 2014","14:36:23",4,"No-Social","Zero",8,0,"Same",1,"tomato",6,"",0,2518,"eyes_center",-1,0,0,1,(May 11 2014 14:36:23),0,TRUE,FALSE,8,FALSE
"505","A1AJG4BGSRPC93","May 11 2014","14:36:23",5,"No-Social","Zero",8,0,"Same",1,"Novel16",0,"Novel16",0,5438,"eyes_center",-1,1,0,0,(May 11 2014 14:36:23),0,TRUE,FALSE,8,TRUE
"506","A1AJG4BGSRPC93","May 11 2014","14:36:23",6,"No-Social","Zero",8,0,"Same",1,"Novel16",0,"Novel16",0,1986,"eyes_center",-1,0,1,0,(May 11 2014 14:36:23),0,TRUE,TRUE,8,TRUE
"507","A1AJG4BGSRPC93","May 11 2014","14:36:23",7,"No-Social","Zero",8,1,"Switch",1,"Novel136",0,"Novel97",4,4060,"eyes_center",-1,1,0,0,(May 11 2014 14:36:23),0,TRUE,FALSE,8,FALSE
"508","A1AJG4BGSRPC93","May 11 2014","14:36:23",8,"No-Social","Zero",8,1,"Switch",1,"Novel66",6,"Novel97",4,5565,"eyes_center",-1,0,1,0,(May 11 2014 14:36:23),0,TRUE,FALSE,8,FALSE
"509","A1AJG4BGSRPC93","May 11 2014","14:36:23",9,"No-Social","Zero",8,2,"Same",0,"Novel21",4,"Novel21",4,4829,"eyes_center",-1,1,0,0,(May 11 2014 14:36:23),0,TRUE,FALSE,8,TRUE
"510","A1AJG4BGSRPC93","May 11 2014","14:36:23",10,"No-Social","Zero",8,2,"Same",0,"Novel21",7,"Novel21",4,1989,"eyes_center",-1,0,1,0,(May 11 2014 14:36:23),0,TRUE,FALSE,8,TRUE
"511","A1AJG4BGSRPC93","May 11 2014","14:36:23",11,"No-Social","Zero",8,3,"Switch",0,"Novel44",4,"Novel76",7,3828,"eyes_center",-1,1,0,0,(May 11 2014 14:36:23),0,TRUE,FALSE,8,FALSE
"512","A1AJG4BGSRPC93","May 11 2014","14:36:23",12,"No-Social","Zero",8,3,"Switch",0,"Novel138",6,"Novel76",7,3741,"eyes_center",-1,0,1,0,(May 11 2014 14:36:23),0,TRUE,FALSE,8,FALSE
"513","A1AJG4BGSRPC93","May 11 2014","14:36:23",13,"No-Social","Zero",8,4,"Same",0,"Novel95",2,"Novel95",2,1900,"eyes_center",-1,1,0,0,(May 11 2014 14:36:23),0,TRUE,FALSE,8,TRUE
"514","A1AJG4BGSRPC93","May 11 2014","14:36:23",14,"No-Social","Zero",8,4,"Same",0,"Novel95",5,"Novel95",2,1239,"eyes_center",-1,0,1,0,(May 11 2014 14:36:23),0,TRUE,FALSE,8,TRUE
"515","A1AJG4BGSRPC93","May 11 2014","14:36:23",15,"No-Social","Zero",8,5,"Switch",1,"Novel133",6,"Novel99",1,1550,"eyes_center",-1,1,0,0,(May 11 2014 14:36:23),0,TRUE,FALSE,8,FALSE
"516","A1AJG4BGSRPC93","May 11 2014","14:36:23",16,"No-Social","Zero",8,5,"Switch",1,"Novel46",0,"Novel99",1,3946,"eyes_center",-1,0,1,0,(May 11 2014 14:36:23),0,TRUE,FALSE,8,FALSE
"517","A1AJG4BGSRPC93","May 11 2014","14:36:23",17,"No-Social","Zero",8,6,"Same",1,"Novel128",3,"Novel128",3,2213,"eyes_center",-1,1,0,0,(May 11 2014 14:36:23),0,TRUE,FALSE,8,TRUE
"518","A1AJG4BGSRPC93","May 11 2014","14:36:23",18,"No-Social","Zero",8,6,"Same",1,"Novel128",3,"Novel128",3,1278,"eyes_center",-1,0,1,0,(May 11 2014 14:36:23),0,TRUE,FALSE,8,TRUE
"519","A1AJG4BGSRPC93","May 11 2014","14:36:23",19,"No-Social","Zero",8,7,"Switch",0,"Novel120",4,"Novel60",3,3509,"eyes_center",-1,1,0,0,(May 11 2014 14:36:23),0,TRUE,FALSE,8,FALSE
"520","A1AJG4BGSRPC93","May 11 2014","14:36:23",20,"No-Social","Zero",8,7,"Switch",0,"Novel81",5,"Novel60",3,3266,"eyes_center",-1,0,1,0,(May 11 2014 14:36:23),0,TRUE,FALSE,8,FALSE
"521","A1BCANW1Z2IJS4","May 11 2014","11:57:14",1,"No-Social","One",8,0,"Same",0,"squirrel",3,"",0,9655,"eyes_center",-1,0,0,1,(May 11 2014 11:57:14),1,TRUE,FALSE,8,FALSE
"522","A1BCANW1Z2IJS4","May 11 2014","11:57:14",2,"No-Social","One",8,0,"Same",0,"squirrel",4,"",0,3773,"eyes_center",-1,0,0,1,(May 11 2014 11:57:14),1,TRUE,FALSE,8,FALSE
"523","A1BCANW1Z2IJS4","May 11 2014","11:57:14",3,"No-Social","One",8,0,"Same",0,"tomato",1,"",0,3332,"eyes_center",-1,0,0,1,(May 11 2014 11:57:14),1,TRUE,FALSE,8,FALSE
"524","A1BCANW1Z2IJS4","May 11 2014","11:57:14",4,"No-Social","One",8,0,"Same",0,"tomato",6,"",0,5172,"eyes_center",-1,0,0,1,(May 11 2014 11:57:14),1,TRUE,FALSE,8,FALSE
"525","A1BCANW1Z2IJS4","May 11 2014","11:57:14",5,"No-Social","One",8,0,"Same",0,"Novel78",1,"Novel78",1,17103,"eyes_center",-1,1,0,0,(May 11 2014 11:57:14),1,TRUE,FALSE,8,TRUE
"526","A1BCANW1Z2IJS4","May 11 2014","11:57:14",6,"No-Social","One",8,1,"Switch",0,"Novel53",2,"Novel56",3,11086,"eyes_center",-1,1,0,0,(May 11 2014 11:57:14),1,TRUE,FALSE,8,FALSE
"527","A1BCANW1Z2IJS4","May 11 2014","11:57:14",7,"No-Social","One",8,0,"Same",0,"Novel78",0,"Novel78",1,6688,"eyes_center",-1,0,1,0,(May 11 2014 11:57:14),1,TRUE,TRUE,8,TRUE
"528","A1BCANW1Z2IJS4","May 11 2014","11:57:14",8,"No-Social","One",8,1,"Switch",0,"Novel56",5,"Novel56",3,9414,"eyes_center",-1,0,1,0,(May 11 2014 11:57:14),1,TRUE,FALSE,8,TRUE
"529","A1BCANW1Z2IJS4","May 11 2014","11:57:14",9,"No-Social","One",8,2,"Same",1,"Novel123",4,"Novel123",4,4179,"eyes_center",-1,1,0,0,(May 11 2014 11:57:14),1,TRUE,FALSE,8,TRUE
"530","A1BCANW1Z2IJS4","May 11 2014","11:57:14",10,"No-Social","One",8,3,"Switch",1,"Novel22",3,"Novel4",6,3244,"eyes_center",-1,1,0,0,(May 11 2014 11:57:14),1,TRUE,FALSE,8,FALSE
"531","A1BCANW1Z2IJS4","May 11 2014","11:57:14",11,"No-Social","One",8,2,"Same",1,"Novel123",4,"Novel123",4,2123,"eyes_center",-1,0,1,0,(May 11 2014 11:57:14),1,TRUE,FALSE,8,TRUE
"532","A1BCANW1Z2IJS4","May 11 2014","11:57:14",12,"No-Social","One",8,3,"Switch",1,"Novel37",3,"Novel4",6,9586,"eyes_center",-1,0,1,0,(May 11 2014 11:57:14),1,TRUE,FALSE,8,FALSE
"533","A1BCANW1Z2IJS4","May 11 2014","11:57:14",13,"No-Social","One",8,4,"Same",1,"Novel128",0,"Novel128",0,8114,"eyes_center",-1,1,0,0,(May 11 2014 11:57:14),1,TRUE,FALSE,8,TRUE
"534","A1BCANW1Z2IJS4","May 11 2014","11:57:14",14,"No-Social","One",8,5,"Switch",1,"Novel39",6,"Novel125",0,3059,"eyes_center",-1,1,0,0,(May 11 2014 11:57:14),1,TRUE,FALSE,8,FALSE
"535","A1BCANW1Z2IJS4","May 11 2014","11:57:14",15,"No-Social","One",8,4,"Same",1,"Novel128",0,"Novel128",0,2864,"eyes_center",-1,0,1,0,(May 11 2014 11:57:14),1,TRUE,FALSE,8,TRUE
"536","A1BCANW1Z2IJS4","May 11 2014","11:57:14",16,"No-Social","One",8,5,"Switch",1,"Novel7",1,"Novel125",0,14615,"eyes_center",-1,0,1,0,(May 11 2014 11:57:14),1,TRUE,FALSE,8,FALSE
"537","A1BCANW1Z2IJS4","May 11 2014","11:57:14",17,"No-Social","One",8,6,"Same",0,"Novel6",1,"Novel6",1,2808,"eyes_center",-1,1,0,0,(May 11 2014 11:57:14),1,TRUE,FALSE,8,TRUE
"538","A1BCANW1Z2IJS4","May 11 2014","11:57:14",18,"No-Social","One",8,7,"Switch",0,"Novel135",3,"Novel118",0,1664,"eyes_center",-1,1,0,0,(May 11 2014 11:57:14),1,TRUE,FALSE,8,FALSE
"539","A1BCANW1Z2IJS4","May 11 2014","11:57:14",19,"No-Social","One",8,6,"Same",0,"Novel6",3,"Novel6",1,1616,"eyes_center",-1,0,1,0,(May 11 2014 11:57:14),1,TRUE,FALSE,8,TRUE
"540","A1BCANW1Z2IJS4","May 11 2014","11:57:14",20,"No-Social","One",8,7,"Switch",0,"Novel104",0,"Novel118",0,4193,"eyes_center",-1,0,1,0,(May 11 2014 11:57:14),1,TRUE,FALSE,8,FALSE
"561","A1BHSDEGEI5GUD","May 06 2014","17:04:32",1,"Social","Zero",8,0,"Switch",0,"squirrel",3,"",0,4558,"eyes_center",-1,0,0,1,(May 06 2014 17:04:32),0,TRUE,FALSE,8,FALSE
"562","A1BHSDEGEI5GUD","May 06 2014","17:04:32",2,"Social","Zero",8,0,"Switch",0,"squirrel",4,"",0,2215,"eyes_center",-1,0,0,1,(May 06 2014 17:04:32),0,TRUE,FALSE,8,FALSE
"563","A1BHSDEGEI5GUD","May 06 2014","17:04:32",3,"Social","Zero",8,0,"Switch",0,"tomato",1,"",0,2695,"eyes_center",-1,0,0,1,(May 06 2014 17:04:32),0,TRUE,FALSE,8,FALSE
"564","A1BHSDEGEI5GUD","May 06 2014","17:04:32",4,"Social","Zero",8,0,"Switch",0,"tomato",6,"",0,1879,"eyes_center",-1,0,0,1,(May 06 2014 17:04:32),0,TRUE,FALSE,8,FALSE
"565","A1BHSDEGEI5GUD","May 06 2014","17:04:32",5,"Social","Zero",8,0,"Switch",0,"Novel20",1,"Novel108",3,5731,"eyes_down_mid_right",6,1,0,0,(May 06 2014 17:04:32),0,TRUE,FALSE,8,FALSE
"566","A1BHSDEGEI5GUD","May 06 2014","17:04:32",6,"Social","Zero",8,0,"Switch",0,"Novel80",0,"Novel108",3,5192,"eyes_center",-1,0,1,0,(May 06 2014 17:04:32),0,TRUE,TRUE,8,FALSE
"567","A1BHSDEGEI5GUD","May 06 2014","17:04:32",7,"Social","Zero",8,1,"Same",0,"Novel92",3,"Novel92",3,5901,"eyes_up_right",3,1,0,0,(May 06 2014 17:04:32),0,TRUE,FALSE,8,TRUE
"568","A1BHSDEGEI5GUD","May 06 2014","17:04:32",8,"Social","Zero",8,1,"Same",0,"Novel92",0,"Novel92",3,4527,"eyes_center",-1,0,1,0,(May 06 2014 17:04:32),0,TRUE,FALSE,8,TRUE
"569","A1BHSDEGEI5GUD","May 06 2014","17:04:32",9,"Social","Zero",8,2,"Switch",0,"Novel28",5,"Novel81",1,4942,"eyes_down_mid_left",5,1,0,0,(May 06 2014 17:04:32),0,TRUE,FALSE,8,FALSE
"570","A1BHSDEGEI5GUD","May 06 2014","17:04:32",10,"Social","Zero",8,2,"Switch",0,"Novel86",6,"Novel81",1,5142,"eyes_center",-1,0,1,0,(May 06 2014 17:04:32),0,TRUE,FALSE,8,FALSE
"571","A1BHSDEGEI5GUD","May 06 2014","17:04:32",11,"Social","Zero",8,3,"Same",1,"Novel93",3,"Novel93",3,1804,"eyes_up_right",3,1,0,0,(May 06 2014 17:04:32),0,TRUE,FALSE,8,TRUE
"572","A1BHSDEGEI5GUD","May 06 2014","17:04:32",12,"Social","Zero",8,3,"Same",1,"Novel93",3,"Novel93",3,816,"eyes_center",-1,0,1,0,(May 06 2014 17:04:32),0,TRUE,FALSE,8,TRUE
"573","A1BHSDEGEI5GUD","May 06 2014","17:04:32",13,"Social","Zero",8,4,"Switch",1,"Novel26",3,"Novel4",0,985,"eyes_up_right",3,1,0,0,(May 06 2014 17:04:32),0,TRUE,FALSE,8,FALSE
"574","A1BHSDEGEI5GUD","May 06 2014","17:04:32",14,"Social","Zero",8,4,"Switch",1,"Novel4",0,"Novel4",0,3644,"eyes_center",-1,0,1,0,(May 06 2014 17:04:32),0,TRUE,FALSE,8,TRUE
"575","A1BHSDEGEI5GUD","May 06 2014","17:04:32",15,"Social","Zero",8,5,"Same",1,"Novel57",0,"Novel57",0,2308,"eyes_up_left",0,1,0,0,(May 06 2014 17:04:32),0,TRUE,FALSE,8,TRUE
"576","A1BHSDEGEI5GUD","May 06 2014","17:04:32",16,"Social","Zero",8,5,"Same",1,"Novel57",0,"Novel57",0,511,"eyes_center",-1,0,1,0,(May 06 2014 17:04:32),0,TRUE,FALSE,8,TRUE
"577","A1BHSDEGEI5GUD","May 06 2014","17:04:32",17,"Social","Zero",8,6,"Switch",1,"Novel25",6,"Novel2",3,1074,"eyes_down_mid_right",6,1,0,0,(May 06 2014 17:04:32),0,TRUE,FALSE,8,FALSE
"578","A1BHSDEGEI5GUD","May 06 2014","17:04:32",18,"Social","Zero",8,6,"Switch",1,"Novel2",3,"Novel2",3,2438,"eyes_center",-1,0,1,0,(May 06 2014 17:04:32),0,TRUE,FALSE,8,TRUE
"579","A1BHSDEGEI5GUD","May 06 2014","17:04:32",19,"Social","Zero",8,7,"Same",0,"Novel138",3,"Novel138",3,1306,"eyes_up_right",3,1,0,0,(May 06 2014 17:04:32),0,TRUE,FALSE,8,TRUE
"580","A1BHSDEGEI5GUD","May 06 2014","17:04:32",20,"Social","Zero",8,7,"Same",0,"Novel138",1,"Novel138",3,572,"eyes_center",-1,0,1,0,(May 06 2014 17:04:32),0,TRUE,FALSE,8,TRUE
"581","A1CGCLRQDFJTM3","May 11 2014","12:34:33",1,"Social","Seven",8,0,"Switch",0,"squirrel",3,"",0,1637,"eyes_center",-1,0,0,1,(May 11 2014 12:34:33),7,TRUE,FALSE,8,FALSE
