"","subid","submit.date","submit.time","trial.num","condition","interval","numPic","itemNum","trialType","samePos","chosen","chosenIdx","kept","keptIdx","rt","face","faceIdx","exposureTrial","testTrial","exampleTrial","day.and.time","intervalNum","include","first.trial","numPicN","correct"
"1","A0877319FSQMNZX627BU","Apr 19 2014","15:22:08",1,"Social","Seven",4,0,"Same",1,"squirrel",0,"",0,1935,"eyescenter",-1,0,0,1,(Apr 19 2014 15:22:08),7,TRUE,FALSE,4,FALSE
"2","A0877319FSQMNZX627BU","Apr 19 2014","15:22:08",2,"Social","Seven",4,0,"Same",1,"squirrel",0,"",0,1877,"eyescenter",-1,0,0,1,(Apr 19 2014 15:22:08),7,TRUE,FALSE,4,FALSE
"3","A0877319FSQMNZX627BU","Apr 19 2014","15:22:08",3,"Social","Seven",4,0,"Same",1,"tomato",1,"",0,1316,"eyescenter",-1,0,0,1,(Apr 19 2014 15:22:08),7,TRUE,FALSE,4,FALSE
"4","A0877319FSQMNZX627BU","Apr 19 2014","15:22:08",4,"Social","Seven",4,0,"Same",1,"tomato",2,"",0,1122,"eyescenter",-1,0,0,1,(Apr 19 2014 15:22:08),7,TRUE,FALSE,4,FALSE
"5","A0877319FSQMNZX627BU","Apr 19 2014","15:22:08",5,"Social","Seven",4,0,"Same",1,"Novel40",1,"Novel40",1,4417,"eyes_down_right",2,1,0,0,(Apr 19 2014 15:22:08),7,TRUE,FALSE,4,TRUE
"6","A0877319FSQMNZX627BU","Apr 19 2014","15:22:08",6,"Social","Seven",4,1,"Switch",1,"Novel3",0,"Novel97",1,4449,"eyes_down_left",1,1,0,0,(Apr 19 2014 15:22:08),7,TRUE,FALSE,4,FALSE
"7","A0877319FSQMNZX627BU","Apr 19 2014","15:22:08",7,"Social","Seven",4,2,"Same",1,"Novel32",0,"Novel32",0,6247,"eyes_down_right",2,1,0,0,(Apr 19 2014 15:22:08),7,TRUE,FALSE,4,TRUE
"8","A0877319FSQMNZX627BU","Apr 19 2014","15:22:08",8,"Social","Seven",4,3,"Switch",1,"Novel65",2,"Novel27",3,5355,"eyes_down_left",1,1,0,0,(Apr 19 2014 15:22:08),7,TRUE,FALSE,4,FALSE
"9","A0877319FSQMNZX627BU","Apr 19 2014","15:22:08",9,"Social","Seven",4,4,"Same",0,"Novel131",0,"Novel131",0,3157,"eyes_down_right",2,1,0,0,(Apr 19 2014 15:22:08),7,TRUE,FALSE,4,TRUE
"10","A0877319FSQMNZX627BU","Apr 19 2014","15:22:08",10,"Social","Seven",4,5,"Switch",0,"Novel2",1,"Novel105",2,3754,"eyes_down_right",2,1,0,0,(Apr 19 2014 15:22:08),7,TRUE,FALSE,4,FALSE
"11","A0877319FSQMNZX627BU","Apr 19 2014","15:22:08",11,"Social","Seven",4,6,"Same",0,"Novel109",2,"Novel109",2,4593,"eyes_down_right",2,1,0,0,(Apr 19 2014 15:22:08),7,TRUE,FALSE,4,TRUE
"12","A0877319FSQMNZX627BU","Apr 19 2014","15:22:08",12,"Social","Seven",4,7,"Switch",0,"Novel81",0,"Novel134",3,4090,"eyes_down_left",1,1,0,0,(Apr 19 2014 15:22:08),7,TRUE,FALSE,4,FALSE
"13","A0877319FSQMNZX627BU","Apr 19 2014","15:22:08",13,"Social","Seven",4,0,"Same",1,"Novel40",1,"Novel40",1,3597,"eyescenter",-1,0,1,0,(Apr 19 2014 15:22:08),7,TRUE,TRUE,4,TRUE
"14","A0877319FSQMNZX627BU","Apr 19 2014","15:22:08",14,"Social","Seven",4,1,"Switch",1,"Novel97",1,"Novel97",1,6379,"eyescenter",-1,0,1,0,(Apr 19 2014 15:22:08),7,TRUE,FALSE,4,TRUE
"15","A0877319FSQMNZX627BU","Apr 19 2014","15:22:08",15,"Social","Seven",4,2,"Same",1,"Novel32",0,"Novel32",0,2520,"eyescenter",-1,0,1,0,(Apr 19 2014 15:22:08),7,TRUE,FALSE,4,TRUE
"16","A0877319FSQMNZX627BU","Apr 19 2014","15:22:08",16,"Social","Seven",4,3,"Switch",1,"Novel27",3,"Novel27",3,4651,"eyescenter",-1,0,1,0,(Apr 19 2014 15:22:08),7,TRUE,FALSE,4,TRUE
"17","A0877319FSQMNZX627BU","Apr 19 2014","15:22:08",17,"Social","Seven",4,4,"Same",0,"Novel131",2,"Novel131",0,1570,"eyescenter",-1,0,1,0,(Apr 19 2014 15:22:08),7,TRUE,FALSE,4,TRUE
"18","A0877319FSQMNZX627BU","Apr 19 2014","15:22:08",18,"Social","Seven",4,5,"Switch",0,"Novel105",0,"Novel105",2,2599,"eyescenter",-1,0,1,0,(Apr 19 2014 15:22:08),7,TRUE,FALSE,4,TRUE
"19","A0877319FSQMNZX627BU","Apr 19 2014","15:22:08",19,"Social","Seven",4,6,"Same",0,"Novel109",3,"Novel109",2,2331,"eyescenter",-1,0,1,0,(Apr 19 2014 15:22:08),7,TRUE,FALSE,4,TRUE
"20","A0877319FSQMNZX627BU","Apr 19 2014","15:22:08",20,"Social","Seven",4,7,"Switch",0,"Novel134",1,"Novel134",3,4466,"eyescenter",-1,0,1,0,(Apr 19 2014 15:22:08),7,TRUE,FALSE,4,TRUE
"21","A11HW2YHQ89EQG","Apr 22 2014","14:55:29",1,"Social","Seven",4,0,"Switch",0,"squirrel",0,"",0,2718,"eyescenter",-1,0,0,1,(Apr 22 2014 14:55:29),7,TRUE,FALSE,4,FALSE
"22","A11HW2YHQ89EQG","Apr 22 2014","14:55:29",2,"Social","Seven",4,0,"Switch",0,"squirrel",0,"",0,1209,"eyescenter",-1,0,0,1,(Apr 22 2014 14:55:29),7,TRUE,FALSE,4,FALSE
"23","A11HW2YHQ89EQG","Apr 22 2014","14:55:29",3,"Social","Seven",4,0,"Switch",0,"tomato",1,"",0,1594,"eyescenter",-1,0,0,1,(Apr 22 2014 14:55:29),7,TRUE,FALSE,4,FALSE
"24","A11HW2YHQ89EQG","Apr 22 2014","14:55:29",4,"Social","Seven",4,0,"Switch",0,"tomato",2,"",0,1234,"eyescenter",-1,0,0,1,(Apr 22 2014 14:55:29),7,TRUE,FALSE,4,FALSE
"25","A11HW2YHQ89EQG","Apr 22 2014","14:55:29",5,"Social","Seven",4,0,"Switch",0,"Novel100",0,"Novel24",1,3398,"eyes_down_left",1,1,0,0,(Apr 22 2014 14:55:29),7,TRUE,FALSE,4,FALSE
"26","A11HW2YHQ89EQG","Apr 22 2014","14:55:29",6,"Social","Seven",4,1,"Same",0,"Novel70",3,"Novel70",3,1395,"eyes_right",3,1,0,0,(Apr 22 2014 14:55:29),7,TRUE,FALSE,4,TRUE
"27","A11HW2YHQ89EQG","Apr 22 2014","14:55:29",7,"Social","Seven",4,2,"Switch",1,"Novel122",3,"Novel35",1,1313,"eyes_right",3,1,0,0,(Apr 22 2014 14:55:29),7,TRUE,FALSE,4,FALSE
"28","A11HW2YHQ89EQG","Apr 22 2014","14:55:29",8,"Social","Seven",4,3,"Same",1,"Novel38",1,"Novel38",1,3327,"eyes_down_left",1,1,0,0,(Apr 22 2014 14:55:29),7,TRUE,FALSE,4,TRUE
"29","A11HW2YHQ89EQG","Apr 22 2014","14:55:29",9,"Social","Seven",4,4,"Switch",1,"Novel72",0,"Novel99",2,1356,"eyes_left",0,1,0,0,(Apr 22 2014 14:55:29),7,TRUE,FALSE,4,FALSE
"30","A11HW2YHQ89EQG","Apr 22 2014","14:55:29",10,"Social","Seven",4,5,"Same",1,"Novel65",3,"Novel65",3,1188,"eyes_right",3,1,0,0,(Apr 22 2014 14:55:29),7,TRUE,FALSE,4,TRUE
"31","A11HW2YHQ89EQG","Apr 22 2014","14:55:29",11,"Social","Seven",4,6,"Switch",0,"Novel66",2,"Novel6",0,624,"eyes_down_right",2,1,0,0,(Apr 22 2014 14:55:29),7,TRUE,FALSE,4,FALSE
"32","A11HW2YHQ89EQG","Apr 22 2014","14:55:29",12,"Social","Seven",4,7,"Same",0,"Novel31",0,"Novel31",0,1054,"eyes_left",0,1,0,0,(Apr 22 2014 14:55:29),7,TRUE,FALSE,4,TRUE
"33","A11HW2YHQ89EQG","Apr 22 2014","14:55:29",13,"Social","Seven",4,0,"Switch",0,"Novel24",0,"Novel24",1,2607,"eyescenter",-1,0,1,0,(Apr 22 2014 14:55:29),7,TRUE,TRUE,4,TRUE
"34","A11HW2YHQ89EQG","Apr 22 2014","14:55:29",14,"Social","Seven",4,1,"Same",0,"Novel75",1,"Novel70",3,2967,"eyescenter",-1,0,1,0,(Apr 22 2014 14:55:29),7,TRUE,FALSE,4,FALSE
"35","A11HW2YHQ89EQG","Apr 22 2014","14:55:29",15,"Social","Seven",4,2,"Switch",1,"Novel41",2,"Novel35",1,2350,"eyescenter",-1,0,1,0,(Apr 22 2014 14:55:29),7,TRUE,FALSE,4,FALSE
"36","A11HW2YHQ89EQG","Apr 22 2014","14:55:29",16,"Social","Seven",4,3,"Same",1,"Novel84",0,"Novel38",1,1516,"eyescenter",-1,0,1,0,(Apr 22 2014 14:55:29),7,TRUE,FALSE,4,FALSE
"37","A11HW2YHQ89EQG","Apr 22 2014","14:55:29",17,"Social","Seven",4,4,"Switch",1,"Novel115",0,"Novel99",2,1773,"eyescenter",-1,0,1,0,(Apr 22 2014 14:55:29),7,TRUE,FALSE,4,FALSE
"38","A11HW2YHQ89EQG","Apr 22 2014","14:55:29",18,"Social","Seven",4,5,"Same",1,"Novel65",3,"Novel65",3,3686,"eyescenter",-1,0,1,0,(Apr 22 2014 14:55:29),7,TRUE,FALSE,4,TRUE
"39","A11HW2YHQ89EQG","Apr 22 2014","14:55:29",19,"Social","Seven",4,6,"Switch",0,"Novel104",3,"Novel6",0,2496,"eyescenter",-1,0,1,0,(Apr 22 2014 14:55:29),7,TRUE,FALSE,4,FALSE
"40","A11HW2YHQ89EQG","Apr 22 2014","14:55:29",20,"Social","Seven",4,7,"Same",0,"Novel110",0,"Novel31",0,3698,"eyescenter",-1,0,1,0,(Apr 22 2014 14:55:29),7,TRUE,FALSE,4,FALSE
"41","A123F7829DTAYZ","Apr 22 2014","13:41:50",1,"Social","Zero",4,0,"Switch",0,"squirrel",0,"",0,5315,"eyescenter",-1,0,0,1,(Apr 22 2014 13:41:50),0,TRUE,FALSE,4,FALSE
"42","A123F7829DTAYZ","Apr 22 2014","13:41:50",2,"Social","Zero",4,0,"Switch",0,"squirrel",0,"",0,1281,"eyescenter",-1,0,0,1,(Apr 22 2014 13:41:50),0,TRUE,FALSE,4,FALSE
"43","A123F7829DTAYZ","Apr 22 2014","13:41:50",3,"Social","Zero",4,0,"Switch",0,"tomato",1,"",0,7074,"eyescenter",-1,0,0,1,(Apr 22 2014 13:41:50),0,TRUE,FALSE,4,FALSE
"44","A123F7829DTAYZ","Apr 22 2014","13:41:50",4,"Social","Zero",4,0,"Switch",0,"tomato",2,"",0,872,"eyescenter",-1,0,0,1,(Apr 22 2014 13:41:50),0,TRUE,FALSE,4,FALSE
"45","A123F7829DTAYZ","Apr 22 2014","13:41:50",5,"Social","Zero",4,0,"Switch",0,"Novel19",1,"Novel73",2,1296,"eyes_down_left",1,1,0,0,(Apr 22 2014 13:41:50),0,TRUE,FALSE,4,FALSE
"46","A123F7829DTAYZ","Apr 22 2014","13:41:50",6,"Social","Zero",4,0,"Switch",0,"Novel24",2,"Novel73",2,4055,"eyescenter",-1,0,1,0,(Apr 22 2014 13:41:50),0,TRUE,TRUE,4,FALSE
"47","A123F7829DTAYZ","Apr 22 2014","13:41:50",7,"Social","Zero",4,1,"Same",1,"Novel134",0,"Novel134",0,1320,"eyes_left",0,1,0,0,(Apr 22 2014 13:41:50),0,TRUE,FALSE,4,TRUE
"48","A123F7829DTAYZ","Apr 22 2014","13:41:50",8,"Social","Zero",4,1,"Same",1,"Novel134",0,"Novel134",0,874,"eyescenter",-1,0,1,0,(Apr 22 2014 13:41:50),0,TRUE,FALSE,4,TRUE
"49","A123F7829DTAYZ","Apr 22 2014","13:41:50",9,"Social","Zero",4,2,"Switch",0,"Novel111",3,"Novel21",0,979,"eyes_right",3,1,0,0,(Apr 22 2014 13:41:50),0,TRUE,FALSE,4,FALSE
"50","A123F7829DTAYZ","Apr 22 2014","13:41:50",10,"Social","Zero",4,2,"Switch",0,"Novel16",0,"Novel21",0,2073,"eyescenter",-1,0,1,0,(Apr 22 2014 13:41:50),0,TRUE,FALSE,4,FALSE
"51","A123F7829DTAYZ","Apr 22 2014","13:41:50",11,"Social","Zero",4,3,"Same",1,"Novel80",2,"Novel80",2,2565,"eyes_down_right",2,1,0,0,(Apr 22 2014 13:41:50),0,TRUE,FALSE,4,TRUE
"52","A123F7829DTAYZ","Apr 22 2014","13:41:50",12,"Social","Zero",4,3,"Same",1,"Novel80",2,"Novel80",2,224,"eyescenter",-1,0,1,0,(Apr 22 2014 13:41:50),0,TRUE,FALSE,4,TRUE
"53","A123F7829DTAYZ","Apr 22 2014","13:41:50",13,"Social","Zero",4,4,"Switch",1,"Novel95",3,"Novel92",0,1240,"eyes_right",3,1,0,0,(Apr 22 2014 13:41:50),0,TRUE,FALSE,4,FALSE
"54","A123F7829DTAYZ","Apr 22 2014","13:41:50",14,"Social","Zero",4,4,"Switch",1,"Novel92",0,"Novel92",0,1761,"eyescenter",-1,0,1,0,(Apr 22 2014 13:41:50),0,TRUE,FALSE,4,TRUE
"55","A123F7829DTAYZ","Apr 22 2014","13:41:50",15,"Social","Zero",4,5,"Same",0,"Novel106",3,"Novel106",3,5352,"eyes_right",3,1,0,0,(Apr 22 2014 13:41:50),0,TRUE,FALSE,4,TRUE
"56","A123F7829DTAYZ","Apr 22 2014","13:41:50",16,"Social","Zero",4,5,"Same",0,"Novel106",0,"Novel106",3,241,"eyescenter",-1,0,1,0,(Apr 22 2014 13:41:50),0,TRUE,FALSE,4,TRUE
"57","A123F7829DTAYZ","Apr 22 2014","13:41:50",17,"Social","Zero",4,6,"Switch",1,"Novel61",1,"Novel31",3,1055,"eyes_down_left",1,1,0,0,(Apr 22 2014 13:41:50),0,TRUE,FALSE,4,FALSE
"58","A123F7829DTAYZ","Apr 22 2014","13:41:50",18,"Social","Zero",4,6,"Switch",1,"Novel31",3,"Novel31",3,5035,"eyescenter",-1,0,1,0,(Apr 22 2014 13:41:50),0,TRUE,FALSE,4,TRUE
"59","A123F7829DTAYZ","Apr 22 2014","13:41:50",19,"Social","Zero",4,7,"Same",0,"Novel46",1,"Novel46",1,9675,"eyes_down_left",1,1,0,0,(Apr 22 2014 13:41:50),0,TRUE,FALSE,4,TRUE
"60","A123F7829DTAYZ","Apr 22 2014","13:41:50",20,"Social","Zero",4,7,"Same",0,"Novel46",2,"Novel46",1,5662,"eyescenter",-1,0,1,0,(Apr 22 2014 13:41:50),0,TRUE,FALSE,4,TRUE
"61","A13B5ZQS4QB6WS","Apr 22 2014","12:02:28",1,"Social","Seven",4,0,"Same",1,"squirrel",0,"",0,16880,"eyescenter",-1,0,0,1,(Apr 22 2014 12:02:28),7,TRUE,FALSE,4,FALSE
"62","A13B5ZQS4QB6WS","Apr 22 2014","12:02:28",2,"Social","Seven",4,0,"Same",1,"squirrel",0,"",0,3863,"eyescenter",-1,0,0,1,(Apr 22 2014 12:02:28),7,TRUE,FALSE,4,FALSE
"63","A13B5ZQS4QB6WS","Apr 22 2014","12:02:28",3,"Social","Seven",4,0,"Same",1,"tomato",1,"",0,2546,"eyescenter",-1,0,0,1,(Apr 22 2014 12:02:28),7,TRUE,FALSE,4,FALSE
"64","A13B5ZQS4QB6WS","Apr 22 2014","12:02:28",4,"Social","Seven",4,0,"Same",1,"tomato",2,"",0,2284,"eyescenter",-1,0,0,1,(Apr 22 2014 12:02:28),7,TRUE,FALSE,4,FALSE
"65","A13B5ZQS4QB6WS","Apr 22 2014","12:02:28",5,"Social","Seven",4,0,"Same",1,"Novel40",2,"Novel40",2,4875,"eyes_left",0,1,0,0,(Apr 22 2014 12:02:28),7,TRUE,FALSE,4,TRUE
"66","A13B5ZQS4QB6WS","Apr 22 2014","12:02:28",6,"Social","Seven",4,1,"Switch",0,"Novel52",0,"Novel133",3,6053,"eyes_down_right",2,1,0,0,(Apr 22 2014 12:02:28),7,TRUE,FALSE,4,FALSE
"67","A13B5ZQS4QB6WS","Apr 22 2014","12:02:28",7,"Social","Seven",4,2,"Same",0,"Novel128",1,"Novel128",1,3708,"eyes_right",3,1,0,0,(Apr 22 2014 12:02:28),7,TRUE,FALSE,4,TRUE
"68","A13B5ZQS4QB6WS","Apr 22 2014","12:02:28",8,"Social","Seven",4,3,"Switch",1,"Novel23",2,"Novel110",0,6004,"eyes_left",0,1,0,0,(Apr 22 2014 12:02:28),7,TRUE,FALSE,4,FALSE
"69","A13B5ZQS4QB6WS","Apr 22 2014","12:02:28",9,"Social","Seven",4,4,"Same",1,"Novel63",0,"Novel63",0,5140,"eyes_right",3,1,0,0,(Apr 22 2014 12:02:28),7,TRUE,FALSE,4,TRUE
"70","A13B5ZQS4QB6WS","Apr 22 2014","12:02:28",10,"Social","Seven",4,5,"Switch",0,"Novel3",1,"Novel32",3,6512,"eyes_down_left",1,1,0,0,(Apr 22 2014 12:02:28),7,TRUE,FALSE,4,FALSE
"71","A13B5ZQS4QB6WS","Apr 22 2014","12:02:28",11,"Social","Seven",4,6,"Same",0,"Novel121",3,"Novel121",3,4821,"eyes_right",3,1,0,0,(Apr 22 2014 12:02:28),7,TRUE,FALSE,4,TRUE
"72","A13B5ZQS4QB6WS","Apr 22 2014","12:02:28",12,"Social","Seven",4,7,"Switch",1,"Novel20",0,"Novel105",1,2655,"eyes_left",0,1,0,0,(Apr 22 2014 12:02:28),7,TRUE,FALSE,4,FALSE
"73","A13B5ZQS4QB6WS","Apr 22 2014","12:02:28",13,"Social","Seven",4,0,"Same",1,"Novel40",2,"Novel40",2,6550,"eyescenter",-1,0,1,0,(Apr 22 2014 12:02:28),7,TRUE,TRUE,4,TRUE
"74","A13B5ZQS4QB6WS","Apr 22 2014","12:02:28",14,"Social","Seven",4,1,"Switch",0,"Novel133",0,"Novel133",3,2217,"eyescenter",-1,0,1,0,(Apr 22 2014 12:02:28),7,TRUE,FALSE,4,TRUE
"75","A13B5ZQS4QB6WS","Apr 22 2014","12:02:28",15,"Social","Seven",4,2,"Same",0,"Novel96",1,"Novel128",1,5152,"eyescenter",-1,0,1,0,(Apr 22 2014 12:02:28),7,TRUE,FALSE,4,FALSE
"76","A13B5ZQS4QB6WS","Apr 22 2014","12:02:28",16,"Social","Seven",4,3,"Switch",1,"Novel102",3,"Novel110",0,3063,"eyescenter",-1,0,1,0,(Apr 22 2014 12:02:28),7,TRUE,FALSE,4,FALSE
"77","A13B5ZQS4QB6WS","Apr 22 2014","12:02:28",17,"Social","Seven",4,4,"Same",1,"Novel127",2,"Novel63",0,2039,"eyescenter",-1,0,1,0,(Apr 22 2014 12:02:28),7,TRUE,FALSE,4,FALSE
"78","A13B5ZQS4QB6WS","Apr 22 2014","12:02:28",18,"Social","Seven",4,5,"Switch",0,"Novel136",0,"Novel32",3,2374,"eyescenter",-1,0,1,0,(Apr 22 2014 12:02:28),7,TRUE,FALSE,4,FALSE
"79","A13B5ZQS4QB6WS","Apr 22 2014","12:02:28",19,"Social","Seven",4,6,"Same",0,"Novel108",0,"Novel121",3,3829,"eyescenter",-1,0,1,0,(Apr 22 2014 12:02:28),7,TRUE,FALSE,4,FALSE
"80","A13B5ZQS4QB6WS","Apr 22 2014","12:02:28",20,"Social","Seven",4,7,"Switch",1,"Novel9",3,"Novel105",1,2990,"eyescenter",-1,0,1,0,(Apr 22 2014 12:02:28),7,TRUE,FALSE,4,FALSE
"81","A13FEFBGV1ER31","Apr 22 2014","17:21:48",1,"Social","Zero",4,0,"Switch",1,"squirrel",0,"",0,2070,"eyescenter",-1,0,0,1,(Apr 22 2014 17:21:48),0,TRUE,FALSE,4,FALSE
"82","A13FEFBGV1ER31","Apr 22 2014","17:21:48",2,"Social","Zero",4,0,"Switch",1,"squirrel",0,"",0,2907,"eyescenter",-1,0,0,1,(Apr 22 2014 17:21:48),0,TRUE,FALSE,4,FALSE
"83","A13FEFBGV1ER31","Apr 22 2014","17:21:48",3,"Social","Zero",4,0,"Switch",1,"tomato",1,"",0,2704,"eyescenter",-1,0,0,1,(Apr 22 2014 17:21:48),0,TRUE,FALSE,4,FALSE
"84","A13FEFBGV1ER31","Apr 22 2014","17:21:48",4,"Social","Zero",4,0,"Switch",1,"tomato",2,"",0,1810,"eyescenter",-1,0,0,1,(Apr 22 2014 17:21:48),0,TRUE,FALSE,4,FALSE
"85","A13FEFBGV1ER31","Apr 22 2014","17:21:48",5,"Social","Zero",4,0,"Switch",1,"Novel107",0,"Novel5",1,4332,"eyes_down_right",2,1,0,0,(Apr 22 2014 17:21:48),0,TRUE,FALSE,4,FALSE
"86","A13FEFBGV1ER31","Apr 22 2014","17:21:48",6,"Social","Zero",4,0,"Switch",1,"Novel5",1,"Novel5",1,5547,"eyescenter",-1,0,1,0,(Apr 22 2014 17:21:48),0,TRUE,TRUE,4,TRUE
"87","A13FEFBGV1ER31","Apr 22 2014","17:21:48",7,"Social","Zero",4,1,"Same",1,"Novel47",1,"Novel47",1,2145,"eyes_right",3,1,0,0,(Apr 22 2014 17:21:48),0,TRUE,FALSE,4,TRUE
"88","A13FEFBGV1ER31","Apr 22 2014","17:21:48",8,"Social","Zero",4,1,"Same",1,"Novel47",1,"Novel47",1,906,"eyescenter",-1,0,1,0,(Apr 22 2014 17:21:48),0,TRUE,FALSE,4,TRUE
"89","A13FEFBGV1ER31","Apr 22 2014","17:21:48",9,"Social","Zero",4,2,"Switch",0,"Novel60",1,"Novel35",0,4048,"eyes_right",3,1,0,0,(Apr 22 2014 17:21:48),0,TRUE,FALSE,4,FALSE
"90","A13FEFBGV1ER31","Apr 22 2014","17:21:48",10,"Social","Zero",4,2,"Switch",0,"Novel35",2,"Novel35",0,1998,"eyescenter",-1,0,1,0,(Apr 22 2014 17:21:48),0,TRUE,FALSE,4,TRUE
"91","A13FEFBGV1ER31","Apr 22 2014","17:21:48",11,"Social","Zero",4,3,"Same",0,"Novel139",2,"Novel139",2,3846,"eyes_left",0,1,0,0,(Apr 22 2014 17:21:48),0,TRUE,FALSE,4,TRUE
"92","A13FEFBGV1ER31","Apr 22 2014","17:21:48",12,"Social","Zero",4,3,"Same",0,"Novel139",1,"Novel139",2,885,"eyescenter",-1,0,1,0,(Apr 22 2014 17:21:48),0,TRUE,FALSE,4,TRUE
"93","A13FEFBGV1ER31","Apr 22 2014","17:21:48",13,"Social","Zero",4,4,"Switch",0,"Novel105",2,"Novel74",0,3406,"eyes_left",0,1,0,0,(Apr 22 2014 17:21:48),0,TRUE,FALSE,4,FALSE
"94","A13FEFBGV1ER31","Apr 22 2014","17:21:48",14,"Social","Zero",4,4,"Switch",0,"Novel29",0,"Novel74",0,1102,"eyescenter",-1,0,1,0,(Apr 22 2014 17:21:48),0,TRUE,FALSE,4,FALSE
"95","A13FEFBGV1ER31","Apr 22 2014","17:21:48",15,"Social","Zero",4,5,"Same",1,"Novel82",1,"Novel82",1,4150,"eyes_left",0,1,0,0,(Apr 22 2014 17:21:48),0,TRUE,FALSE,4,TRUE
"96","A13FEFBGV1ER31","Apr 22 2014","17:21:48",16,"Social","Zero",4,5,"Same",1,"Novel82",1,"Novel82",1,778,"eyescenter",-1,0,1,0,(Apr 22 2014 17:21:48),0,TRUE,FALSE,4,TRUE
"97","A13FEFBGV1ER31","Apr 22 2014","17:21:48",17,"Social","Zero",4,6,"Switch",1,"Novel52",1,"Novel103",3,9423,"eyes_down_left",1,1,0,0,(Apr 22 2014 17:21:48),0,TRUE,FALSE,4,FALSE
"98","A13FEFBGV1ER31","Apr 22 2014","17:21:48",18,"Social","Zero",4,6,"Switch",1,"Novel103",3,"Novel103",3,1358,"eyescenter",-1,0,1,0,(Apr 22 2014 17:21:48),0,TRUE,FALSE,4,TRUE
"99","A13FEFBGV1ER31","Apr 22 2014","17:21:48",19,"Social","Zero",4,7,"Same",0,"Novel68",2,"Novel68",2,6151,"eyes_left",0,1,0,0,(Apr 22 2014 17:21:48),0,TRUE,FALSE,4,TRUE
"100","A13FEFBGV1ER31","Apr 22 2014","17:21:48",20,"Social","Zero",4,7,"Same",0,"Novel68",1,"Novel68",2,926,"eyescenter",-1,0,1,0,(Apr 22 2014 17:21:48),0,TRUE,FALSE,4,TRUE
"101","A13V5VK2KVLTBC","Apr 22 2014","11:46:49",1,"Social","One",4,0,"Switch",1,"squirrel",0,"",0,3482,"eyescenter",-1,0,0,1,(Apr 22 2014 11:46:49),1,TRUE,FALSE,4,FALSE
"102","A13V5VK2KVLTBC","Apr 22 2014","11:46:49",2,"Social","One",4,0,"Switch",1,"squirrel",0,"",0,1232,"eyescenter",-1,0,0,1,(Apr 22 2014 11:46:49),1,TRUE,FALSE,4,FALSE
"103","A13V5VK2KVLTBC","Apr 22 2014","11:46:49",3,"Social","One",4,0,"Switch",1,"tomato",1,"",0,1221,"eyescenter",-1,0,0,1,(Apr 22 2014 11:46:49),1,TRUE,FALSE,4,FALSE
"104","A13V5VK2KVLTBC","Apr 22 2014","11:46:49",4,"Social","One",4,0,"Switch",1,"tomato",2,"",0,1202,"eyescenter",-1,0,0,1,(Apr 22 2014 11:46:49),1,TRUE,FALSE,4,FALSE
"105","A13V5VK2KVLTBC","Apr 22 2014","11:46:49",5,"Social","One",4,0,"Switch",1,"Novel84",1,"Novel78",2,1296,"eyes_down_left",1,1,0,0,(Apr 22 2014 11:46:49),1,TRUE,FALSE,4,FALSE
"106","A13V5VK2KVLTBC","Apr 22 2014","11:46:49",6,"Social","One",4,1,"Same",1,"Novel26",0,"Novel26",0,1015,"eyes_left",0,1,0,0,(Apr 22 2014 11:46:49),1,TRUE,FALSE,4,TRUE
"107","A13V5VK2KVLTBC","Apr 22 2014","11:46:49",7,"Social","One",4,0,"Switch",1,"Novel111",3,"Novel78",2,5245,"eyescenter",-1,0,1,0,(Apr 22 2014 11:46:49),1,TRUE,TRUE,4,FALSE
"108","A13V5VK2KVLTBC","Apr 22 2014","11:46:49",8,"Social","One",4,1,"Same",1,"Novel26",0,"Novel26",0,2639,"eyescenter",-1,0,1,0,(Apr 22 2014 11:46:49),1,TRUE,FALSE,4,TRUE
"109","A13V5VK2KVLTBC","Apr 22 2014","11:46:49",9,"Social","One",4,2,"Switch",0,"Novel119",1,"Novel71",2,946,"eyes_down_left",1,1,0,0,(Apr 22 2014 11:46:49),1,TRUE,FALSE,4,FALSE
"110","A13V5VK2KVLTBC","Apr 22 2014","11:46:49",10,"Social","One",4,3,"Same",0,"Novel20",0,"Novel20",0,1135,"eyes_left",0,1,0,0,(Apr 22 2014 11:46:49),1,TRUE,FALSE,4,TRUE
"111","A13V5VK2KVLTBC","Apr 22 2014","11:46:49",11,"Social","One",4,2,"Switch",0,"Novel7",0,"Novel71",2,12846,"eyescenter",-1,0,1,0,(Apr 22 2014 11:46:49),1,TRUE,FALSE,4,FALSE
"112","A13V5VK2KVLTBC","Apr 22 2014","11:46:49",12,"Social","One",4,3,"Same",0,"Novel20",3,"Novel20",0,1121,"eyescenter",-1,0,1,0,(Apr 22 2014 11:46:49),1,TRUE,FALSE,4,TRUE
"113","A13V5VK2KVLTBC","Apr 22 2014","11:46:49",13,"Social","One",4,4,"Switch",0,"Novel70",3,"Novel55",1,881,"eyes_right",3,1,0,0,(Apr 22 2014 11:46:49),1,TRUE,FALSE,4,FALSE
"114","A13V5VK2KVLTBC","Apr 22 2014","11:46:49",14,"Social","One",4,5,"Same",1,"Novel37",0,"Novel37",0,594,"eyes_left",0,1,0,0,(Apr 22 2014 11:46:49),1,TRUE,FALSE,4,TRUE
"115","A13V5VK2KVLTBC","Apr 22 2014","11:46:49",15,"Social","One",4,4,"Switch",0,"Novel55",0,"Novel55",1,2495,"eyescenter",-1,0,1,0,(Apr 22 2014 11:46:49),1,TRUE,FALSE,4,TRUE
"116","A13V5VK2KVLTBC","Apr 22 2014","11:46:49",16,"Social","One",4,5,"Same",1,"Novel37",0,"Novel37",0,876,"eyescenter",-1,0,1,0,(Apr 22 2014 11:46:49),1,TRUE,FALSE,4,TRUE
"117","A13V5VK2KVLTBC","Apr 22 2014","11:46:49",17,"Social","One",4,6,"Switch",1,"Novel56",2,"Novel50",0,834,"eyes_down_right",2,1,0,0,(Apr 22 2014 11:46:49),1,TRUE,FALSE,4,FALSE
"118","A13V5VK2KVLTBC","Apr 22 2014","11:46:49",18,"Social","One",4,7,"Same",0,"Novel45",3,"Novel45",3,815,"eyes_right",3,1,0,0,(Apr 22 2014 11:46:49),1,TRUE,FALSE,4,TRUE
"119","A13V5VK2KVLTBC","Apr 22 2014","11:46:49",19,"Social","One",4,6,"Switch",1,"Novel52",1,"Novel50",0,2413,"eyescenter",-1,0,1,0,(Apr 22 2014 11:46:49),1,TRUE,FALSE,4,FALSE
"120","A13V5VK2KVLTBC","Apr 22 2014","11:46:49",20,"Social","One",4,7,"Same",0,"Novel45",1,"Novel45",3,353,"eyescenter",-1,0,1,0,(Apr 22 2014 11:46:49),1,TRUE,FALSE,4,TRUE
"121","A14B27LYCEDNC","Apr 21 2014","20:46:46",1,"Social","Seven",4,0,"Same",0,"squirrel",0,"",0,2652,"eyescenter",-1,0,0,1,(Apr 21 2014 20:46:46),7,TRUE,FALSE,4,FALSE
"122","A14B27LYCEDNC","Apr 21 2014","20:46:46",2,"Social","Seven",4,0,"Same",0,"squirrel",0,"",0,953,"eyescenter",-1,0,0,1,(Apr 21 2014 20:46:46),7,TRUE,FALSE,4,FALSE
"123","A14B27LYCEDNC","Apr 21 2014","20:46:46",3,"Social","Seven",4,0,"Same",0,"tomato",1,"",0,1493,"eyescenter",-1,0,0,1,(Apr 21 2014 20:46:46),7,TRUE,FALSE,4,FALSE
"124","A14B27LYCEDNC","Apr 21 2014","20:46:46",4,"Social","Seven",4,0,"Same",0,"tomato",2,"",0,1802,"eyescenter",-1,0,0,1,(Apr 21 2014 20:46:46),7,TRUE,FALSE,4,FALSE
"125","A14B27LYCEDNC","Apr 21 2014","20:46:46",5,"Social","Seven",4,0,"Same",0,"Novel50",3,"Novel50",3,10220,"eyes_right",3,1,0,0,(Apr 21 2014 20:46:46),7,TRUE,FALSE,4,TRUE
"126","A14B27LYCEDNC","Apr 21 2014","20:46:46",6,"Social","Seven",4,1,"Switch",0,"Novel85",0,"Novel57",2,2720,"eyes_left",0,1,0,0,(Apr 21 2014 20:46:46),7,TRUE,FALSE,4,FALSE
"127","A14B27LYCEDNC","Apr 21 2014","20:46:46",7,"Social","Seven",4,2,"Same",1,"Novel55",2,"Novel55",2,1408,"eyes_down_right",2,1,0,0,(Apr 21 2014 20:46:46),7,TRUE,FALSE,4,TRUE
"128","A14B27LYCEDNC","Apr 21 2014","20:46:46",8,"Social","Seven",4,3,"Switch",1,"Novel130",2,"Novel43",0,1000,"eyes_down_right",2,1,0,0,(Apr 21 2014 20:46:46),7,TRUE,FALSE,4,FALSE
"129","A14B27LYCEDNC","Apr 21 2014","20:46:46",9,"Social","Seven",4,4,"Same",1,"Novel76",0,"Novel76",0,1334,"eyes_left",0,1,0,0,(Apr 21 2014 20:46:46),7,TRUE,FALSE,4,TRUE
"130","A14B27LYCEDNC","Apr 21 2014","20:46:46",10,"Social","Seven",4,5,"Switch",0,"Novel28",2,"Novel127",1,819,"eyes_down_right",2,1,0,0,(Apr 21 2014 20:46:46),7,TRUE,FALSE,4,FALSE
"131","A14B27LYCEDNC","Apr 21 2014","20:46:46",11,"Social","Seven",4,6,"Same",0,"Novel63",2,"Novel63",2,1220,"eyes_down_right",2,1,0,0,(Apr 21 2014 20:46:46),7,TRUE,FALSE,4,TRUE
"132","A14B27LYCEDNC","Apr 21 2014","20:46:46",12,"Social","Seven",4,7,"Switch",1,"Novel90",3,"Novel132",0,775,"eyes_right",3,1,0,0,(Apr 21 2014 20:46:46),7,TRUE,FALSE,4,FALSE
"133","A14B27LYCEDNC","Apr 21 2014","20:46:46",13,"Social","Seven",4,0,"Same",0,"Novel50",0,"Novel50",3,2151,"eyescenter",-1,0,1,0,(Apr 21 2014 20:46:46),7,TRUE,TRUE,4,TRUE
"134","A14B27LYCEDNC","Apr 21 2014","20:46:46",14,"Social","Seven",4,1,"Switch",0,"Novel48",3,"Novel57",2,5723,"eyescenter",-1,0,1,0,(Apr 21 2014 20:46:46),7,TRUE,FALSE,4,FALSE
"135","A14B27LYCEDNC","Apr 21 2014","20:46:46",15,"Social","Seven",4,2,"Same",1,"Novel55",2,"Novel55",2,1342,"eyescenter",-1,0,1,0,(Apr 21 2014 20:46:46),7,TRUE,FALSE,4,TRUE
"136","A14B27LYCEDNC","Apr 21 2014","20:46:46",16,"Social","Seven",4,3,"Switch",1,"Novel137",3,"Novel43",0,5189,"eyescenter",-1,0,1,0,(Apr 21 2014 20:46:46),7,TRUE,FALSE,4,FALSE
"137","A14B27LYCEDNC","Apr 21 2014","20:46:46",17,"Social","Seven",4,4,"Same",1,"Novel76",0,"Novel76",0,1749,"eyescenter",-1,0,1,0,(Apr 21 2014 20:46:46),7,TRUE,FALSE,4,TRUE
"138","A14B27LYCEDNC","Apr 21 2014","20:46:46",18,"Social","Seven",4,5,"Switch",0,"Novel59",3,"Novel127",1,2567,"eyescenter",-1,0,1,0,(Apr 21 2014 20:46:46),7,TRUE,FALSE,4,FALSE
"139","A14B27LYCEDNC","Apr 21 2014","20:46:46",19,"Social","Seven",4,6,"Same",0,"Novel63",3,"Novel63",2,1646,"eyescenter",-1,0,1,0,(Apr 21 2014 20:46:46),7,TRUE,FALSE,4,TRUE
"140","A14B27LYCEDNC","Apr 21 2014","20:46:46",20,"Social","Seven",4,7,"Switch",1,"Novel68",3,"Novel132",0,1635,"eyescenter",-1,0,1,0,(Apr 21 2014 20:46:46),7,TRUE,FALSE,4,FALSE
"141","A14ZR4JF4V1S6I","Apr 20 2014","20:43:52",1,"Social","Three",4,0,"Switch",1,"squirrel",0,"",0,7040,"eyescenter",-1,0,0,1,(Apr 20 2014 20:43:52),3,TRUE,FALSE,4,FALSE
"142","A14ZR4JF4V1S6I","Apr 20 2014","20:43:52",2,"Social","Three",4,0,"Switch",1,"squirrel",0,"",0,2137,"eyescenter",-1,0,0,1,(Apr 20 2014 20:43:52),3,TRUE,FALSE,4,FALSE
"143","A14ZR4JF4V1S6I","Apr 20 2014","20:43:52",3,"Social","Three",4,0,"Switch",1,"tomato",1,"",0,2158,"eyescenter",-1,0,0,1,(Apr 20 2014 20:43:52),3,TRUE,FALSE,4,FALSE
"144","A14ZR4JF4V1S6I","Apr 20 2014","20:43:52",4,"Social","Three",4,0,"Switch",1,"tomato",2,"",0,1699,"eyescenter",-1,0,0,1,(Apr 20 2014 20:43:52),3,TRUE,FALSE,4,FALSE
"145","A14ZR4JF4V1S6I","Apr 20 2014","20:43:52",5,"Social","Three",4,0,"Switch",1,"Novel30",2,"Novel112",0,2205,"eyes_down_right",2,1,0,0,(Apr 20 2014 20:43:52),3,TRUE,FALSE,4,FALSE
"146","A14ZR4JF4V1S6I","Apr 20 2014","20:43:52",6,"Social","Three",4,1,"Same",0,"Novel78",0,"Novel78",0,1547,"eyes_left",0,1,0,0,(Apr 20 2014 20:43:52),3,TRUE,FALSE,4,TRUE
"147","A14ZR4JF4V1S6I","Apr 20 2014","20:43:52",7,"Social","Three",4,2,"Switch",0,"Novel64",1,"Novel94",3,1112,"eyes_down_left",1,1,0,0,(Apr 20 2014 20:43:52),3,TRUE,FALSE,4,FALSE
"148","A14ZR4JF4V1S6I","Apr 20 2014","20:43:52",8,"Social","Three",4,3,"Same",1,"Novel51",3,"Novel51",3,2887,"eyes_right",3,1,0,0,(Apr 20 2014 20:43:52),3,TRUE,FALSE,4,TRUE
"149","A14ZR4JF4V1S6I","Apr 20 2014","20:43:52",9,"Social","Three",4,0,"Switch",1,"Novel95",2,"Novel112",0,7990,"eyescenter",-1,0,1,0,(Apr 20 2014 20:43:52),3,TRUE,TRUE,4,FALSE
"150","A14ZR4JF4V1S6I","Apr 20 2014","20:43:52",10,"Social","Three",4,1,"Same",0,"Novel122",1,"Novel78",0,3950,"eyescenter",-1,0,1,0,(Apr 20 2014 20:43:52),3,TRUE,FALSE,4,FALSE
"151","A14ZR4JF4V1S6I","Apr 20 2014","20:43:52",11,"Social","Three",4,2,"Switch",0,"Novel69",0,"Novel94",3,4532,"eyescenter",-1,0,1,0,(Apr 20 2014 20:43:52),3,TRUE,FALSE,4,FALSE
"152","A14ZR4JF4V1S6I","Apr 20 2014","20:43:52",12,"Social","Three",4,3,"Same",1,"Novel131",1,"Novel51",3,4172,"eyescenter",-1,0,1,0,(Apr 20 2014 20:43:52),3,TRUE,FALSE,4,FALSE
"153","A14ZR4JF4V1S6I","Apr 20 2014","20:43:52",13,"Social","Three",4,4,"Switch",1,"Novel100",0,"Novel71",3,1858,"eyes_left",0,1,0,0,(Apr 20 2014 20:43:52),3,TRUE,FALSE,4,FALSE
"154","A14ZR4JF4V1S6I","Apr 20 2014","20:43:52",14,"Social","Three",4,5,"Same",1,"Novel44",0,"Novel44",0,1644,"eyes_left",0,1,0,0,(Apr 20 2014 20:43:52),3,TRUE,FALSE,4,TRUE
"155","A14ZR4JF4V1S6I","Apr 20 2014","20:43:52",15,"Social","Three",4,6,"Switch",0,"Novel77",2,"Novel2",3,1458,"eyes_down_right",2,1,0,0,(Apr 20 2014 20:43:52),3,TRUE,FALSE,4,FALSE
"156","A14ZR4JF4V1S6I","Apr 20 2014","20:43:52",16,"Social","Three",4,7,"Same",0,"Novel102",0,"Novel102",0,1293,"eyes_left",0,1,0,0,(Apr 20 2014 20:43:52),3,TRUE,FALSE,4,TRUE
"157","A14ZR4JF4V1S6I","Apr 20 2014","20:43:52",17,"Social","Three",4,4,"Switch",1,"Novel25",1,"Novel71",3,3044,"eyescenter",-1,0,1,0,(Apr 20 2014 20:43:52),3,TRUE,FALSE,4,FALSE
"158","A14ZR4JF4V1S6I","Apr 20 2014","20:43:52",18,"Social","Three",4,5,"Same",1,"Novel44",0,"Novel44",0,2322,"eyescenter",-1,0,1,0,(Apr 20 2014 20:43:52),3,TRUE,FALSE,4,TRUE
"159","A14ZR4JF4V1S6I","Apr 20 2014","20:43:52",19,"Social","Three",4,6,"Switch",0,"Novel2",1,"Novel2",3,2706,"eyescenter",-1,0,1,0,(Apr 20 2014 20:43:52),3,TRUE,FALSE,4,TRUE
"160","A14ZR4JF4V1S6I","Apr 20 2014","20:43:52",20,"Social","Three",4,7,"Same",0,"Novel102",3,"Novel102",0,2682,"eyescenter",-1,0,1,0,(Apr 20 2014 20:43:52),3,TRUE,FALSE,4,TRUE
"161","A15B9VEG75OAPW","Apr 22 2014","13:22:18",1,"Social","Seven",4,0,"Switch",0,"squirrel",0,"",0,2634,"eyescenter",-1,0,0,1,(Apr 22 2014 13:22:18),7,TRUE,FALSE,4,FALSE
"162","A15B9VEG75OAPW","Apr 22 2014","13:22:18",2,"Social","Seven",4,0,"Switch",0,"squirrel",0,"",0,2377,"eyescenter",-1,0,0,1,(Apr 22 2014 13:22:18),7,TRUE,FALSE,4,FALSE
"163","A15B9VEG75OAPW","Apr 22 2014","13:22:18",3,"Social","Seven",4,0,"Switch",0,"tomato",1,"",0,969,"eyescenter",-1,0,0,1,(Apr 22 2014 13:22:18),7,TRUE,FALSE,4,FALSE
"164","A15B9VEG75OAPW","Apr 22 2014","13:22:18",4,"Social","Seven",4,0,"Switch",0,"tomato",2,"",0,1076,"eyescenter",-1,0,0,1,(Apr 22 2014 13:22:18),7,TRUE,FALSE,4,FALSE
"165","A15B9VEG75OAPW","Apr 22 2014","13:22:18",5,"Social","Seven",4,0,"Switch",0,"Novel95",3,"Novel83",2,12076,"eyes_right",3,1,0,0,(Apr 22 2014 13:22:18),7,TRUE,FALSE,4,FALSE
"166","A15B9VEG75OAPW","Apr 22 2014","13:22:18",6,"Social","Seven",4,1,"Same",1,"Novel8",2,"Novel8",2,2400,"eyes_down_right",2,1,0,0,(Apr 22 2014 13:22:18),7,TRUE,FALSE,4,TRUE
"167","A15B9VEG75OAPW","Apr 22 2014","13:22:18",7,"Social","Seven",4,2,"Switch",1,"Novel33",0,"Novel7",2,3249,"eyes_left",0,1,0,0,(Apr 22 2014 13:22:18),7,TRUE,FALSE,4,FALSE
"168","A15B9VEG75OAPW","Apr 22 2014","13:22:18",8,"Social","Seven",4,3,"Same",0,"Novel110",2,"Novel110",2,2297,"eyes_down_right",2,1,0,0,(Apr 22 2014 13:22:18),7,TRUE,FALSE,4,TRUE
"169","A15B9VEG75OAPW","Apr 22 2014","13:22:18",9,"Social","Seven",4,4,"Switch",0,"Novel97",0,"Novel114",1,1582,"eyes_left",0,1,0,0,(Apr 22 2014 13:22:18),7,TRUE,FALSE,4,FALSE
"170","A15B9VEG75OAPW","Apr 22 2014","13:22:18",10,"Social","Seven",4,5,"Same",0,"Novel5",0,"Novel5",0,1082,"eyes_left",0,1,0,0,(Apr 22 2014 13:22:18),7,TRUE,FALSE,4,TRUE
"171","A15B9VEG75OAPW","Apr 22 2014","13:22:18",11,"Social","Seven",4,6,"Switch",1,"Novel127",0,"Novel18",3,1052,"eyes_left",0,1,0,0,(Apr 22 2014 13:22:18),7,TRUE,FALSE,4,FALSE
"172","A15B9VEG75OAPW","Apr 22 2014","13:22:18",12,"Social","Seven",4,7,"Same",1,"Novel126",3,"Novel126",3,1158,"eyes_right",3,1,0,0,(Apr 22 2014 13:22:18),7,TRUE,FALSE,4,TRUE
"173","A15B9VEG75OAPW","Apr 22 2014","13:22:18",13,"Social","Seven",4,0,"Switch",0,"Novel83",0,"Novel83",2,5171,"eyescenter",-1,0,1,0,(Apr 22 2014 13:22:18),7,TRUE,TRUE,4,TRUE
"174","A15B9VEG75OAPW","Apr 22 2014","13:22:18",14,"Social","Seven",4,1,"Same",1,"Novel8",2,"Novel8",2,1118,"eyescenter",-1,0,1,0,(Apr 22 2014 13:22:18),7,TRUE,FALSE,4,TRUE
"175","A15B9VEG75OAPW","Apr 22 2014","13:22:18",15,"Social","Seven",4,2,"Switch",1,"Novel7",2,"Novel7",2,4203,"eyescenter",-1,0,1,0,(Apr 22 2014 13:22:18),7,TRUE,FALSE,4,TRUE
"176","A15B9VEG75OAPW","Apr 22 2014","13:22:18",16,"Social","Seven",4,3,"Same",0,"Novel110",0,"Novel110",2,1994,"eyescenter",-1,0,1,0,(Apr 22 2014 13:22:18),7,TRUE,FALSE,4,TRUE
"177","A15B9VEG75OAPW","Apr 22 2014","13:22:18",17,"Social","Seven",4,4,"Switch",0,"Novel129",3,"Novel114",1,2543,"eyescenter",-1,0,1,0,(Apr 22 2014 13:22:18),7,TRUE,FALSE,4,FALSE
"178","A15B9VEG75OAPW","Apr 22 2014","13:22:18",18,"Social","Seven",4,5,"Same",0,"Novel5",1,"Novel5",0,1571,"eyescenter",-1,0,1,0,(Apr 22 2014 13:22:18),7,TRUE,FALSE,4,TRUE
"179","A15B9VEG75OAPW","Apr 22 2014","13:22:18",19,"Social","Seven",4,6,"Switch",1,"Novel12",0,"Novel18",3,3186,"eyescenter",-1,0,1,0,(Apr 22 2014 13:22:18),7,TRUE,FALSE,4,FALSE
"180","A15B9VEG75OAPW","Apr 22 2014","13:22:18",20,"Social","Seven",4,7,"Same",1,"Novel126",3,"Novel126",3,3303,"eyescenter",-1,0,1,0,(Apr 22 2014 13:22:18),7,TRUE,FALSE,4,TRUE
"181","A15CK5K2ES1WBK","Apr 20 2014","13:09:36",1,"Social","Three",4,0,"Switch",0,"squirrel",0,"",0,3237,"eyescenter",-1,0,0,1,(Apr 20 2014 13:09:36),3,TRUE,FALSE,4,FALSE
"182","A15CK5K2ES1WBK","Apr 20 2014","13:09:36",2,"Social","Three",4,0,"Switch",0,"squirrel",0,"",0,2711,"eyescenter",-1,0,0,1,(Apr 20 2014 13:09:36),3,TRUE,FALSE,4,FALSE
"183","A15CK5K2ES1WBK","Apr 20 2014","13:09:36",3,"Social","Three",4,0,"Switch",0,"tomato",1,"",0,1541,"eyescenter",-1,0,0,1,(Apr 20 2014 13:09:36),3,TRUE,FALSE,4,FALSE
"184","A15CK5K2ES1WBK","Apr 20 2014","13:09:36",4,"Social","Three",4,0,"Switch",0,"tomato",2,"",0,1468,"eyescenter",-1,0,0,1,(Apr 20 2014 13:09:36),3,TRUE,FALSE,4,FALSE
"185","A15CK5K2ES1WBK","Apr 20 2014","13:09:36",5,"Social","Three",4,0,"Switch",0,"Novel64",3,"Novel84",1,6991,"eyes_right",3,1,0,0,(Apr 20 2014 13:09:36),3,TRUE,FALSE,4,FALSE
"186","A15CK5K2ES1WBK","Apr 20 2014","13:09:36",6,"Social","Three",4,1,"Same",1,"Novel131",3,"Novel131",3,3673,"eyes_right",3,1,0,0,(Apr 20 2014 13:09:36),3,TRUE,FALSE,4,TRUE
"187","A15CK5K2ES1WBK","Apr 20 2014","13:09:36",7,"Social","Three",4,2,"Switch",1,"Novel92",1,"Novel43",3,1603,"eyes_down_left",1,1,0,0,(Apr 20 2014 13:09:36),3,TRUE,FALSE,4,FALSE
"188","A15CK5K2ES1WBK","Apr 20 2014","13:09:36",8,"Social","Three",4,3,"Same",0,"Novel36",1,"Novel36",1,1681,"eyes_down_left",1,1,0,0,(Apr 20 2014 13:09:36),3,TRUE,FALSE,4,TRUE
"189","A15CK5K2ES1WBK","Apr 20 2014","13:09:36",9,"Social","Three",4,0,"Switch",0,"Novel84",0,"Novel84",1,3064,"eyescenter",-1,0,1,0,(Apr 20 2014 13:09:36),3,TRUE,TRUE,4,TRUE
"190","A15CK5K2ES1WBK","Apr 20 2014","13:09:36",10,"Social","Three",4,1,"Same",1,"Novel131",3,"Novel131",3,2284,"eyescenter",-1,0,1,0,(Apr 20 2014 13:09:36),3,TRUE,FALSE,4,TRUE
"191","A15CK5K2ES1WBK","Apr 20 2014","13:09:36",11,"Social","Three",4,2,"Switch",1,"Novel7",2,"Novel43",3,3132,"eyescenter",-1,0,1,0,(Apr 20 2014 13:09:36),3,TRUE,FALSE,4,FALSE
"192","A15CK5K2ES1WBK","Apr 20 2014","13:09:36",12,"Social","Three",4,3,"Same",0,"Novel36",3,"Novel36",1,3771,"eyescenter",-1,0,1,0,(Apr 20 2014 13:09:36),3,TRUE,FALSE,4,TRUE
"193","A15CK5K2ES1WBK","Apr 20 2014","13:09:36",13,"Social","Three",4,4,"Switch",1,"Novel20",1,"Novel114",3,2029,"eyes_down_left",1,1,0,0,(Apr 20 2014 13:09:36),3,TRUE,FALSE,4,FALSE
"194","A15CK5K2ES1WBK","Apr 20 2014","13:09:36",14,"Social","Three",4,5,"Same",1,"Novel54",2,"Novel54",2,1013,"eyes_down_right",2,1,0,0,(Apr 20 2014 13:09:36),3,TRUE,FALSE,4,TRUE
"195","A15CK5K2ES1WBK","Apr 20 2014","13:09:36",15,"Social","Three",4,6,"Switch",0,"Novel79",3,"Novel67",0,751,"eyes_right",3,1,0,0,(Apr 20 2014 13:09:36),3,TRUE,FALSE,4,FALSE
"196","A15CK5K2ES1WBK","Apr 20 2014","13:09:36",16,"Social","Three",4,7,"Same",0,"Novel65",3,"Novel65",3,3375,"eyes_right",3,1,0,0,(Apr 20 2014 13:09:36),3,TRUE,FALSE,4,TRUE
"197","A15CK5K2ES1WBK","Apr 20 2014","13:09:36",17,"Social","Three",4,4,"Switch",1,"Novel61",1,"Novel114",3,2969,"eyescenter",-1,0,1,0,(Apr 20 2014 13:09:36),3,TRUE,FALSE,4,FALSE
"198","A15CK5K2ES1WBK","Apr 20 2014","13:09:36",18,"Social","Three",4,5,"Same",1,"Novel54",2,"Novel54",2,1570,"eyescenter",-1,0,1,0,(Apr 20 2014 13:09:36),3,TRUE,FALSE,4,TRUE
"199","A15CK5K2ES1WBK","Apr 20 2014","13:09:36",19,"Social","Three",4,6,"Switch",0,"Novel24",1,"Novel67",0,2467,"eyescenter",-1,0,1,0,(Apr 20 2014 13:09:36),3,TRUE,FALSE,4,FALSE
"200","A15CK5K2ES1WBK","Apr 20 2014","13:09:36",20,"Social","Three",4,7,"Same",0,"Novel65",1,"Novel65",3,821,"eyescenter",-1,0,1,0,(Apr 20 2014 13:09:36),3,TRUE,FALSE,4,TRUE
"201","A16GPKQ7EXUY3D","Apr 21 2014","07:38:10",1,"Social","Zero",4,0,"Same",1,"squirrel",0,"",0,3233,"eyescenter",-1,0,0,1,(Apr 21 2014 07:38:10),0,TRUE,FALSE,4,FALSE
"202","A16GPKQ7EXUY3D","Apr 21 2014","07:38:10",2,"Social","Zero",4,0,"Same",1,"squirrel",0,"",0,2311,"eyescenter",-1,0,0,1,(Apr 21 2014 07:38:10),0,TRUE,FALSE,4,FALSE
"203","A16GPKQ7EXUY3D","Apr 21 2014","07:38:10",3,"Social","Zero",4,0,"Same",1,"tomato",1,"",0,1658,"eyescenter",-1,0,0,1,(Apr 21 2014 07:38:10),0,TRUE,FALSE,4,FALSE
"204","A16GPKQ7EXUY3D","Apr 21 2014","07:38:10",4,"Social","Zero",4,0,"Same",1,"tomato",2,"",0,2200,"eyescenter",-1,0,0,1,(Apr 21 2014 07:38:10),0,TRUE,FALSE,4,FALSE
"205","A16GPKQ7EXUY3D","Apr 21 2014","07:38:10",5,"Social","Zero",4,0,"Same",1,"Novel63",2,"Novel63",2,2380,"eyes_down_right",2,1,0,0,(Apr 21 2014 07:38:10),0,TRUE,FALSE,4,TRUE
"206","A16GPKQ7EXUY3D","Apr 21 2014","07:38:10",6,"Social","Zero",4,0,"Same",1,"Novel63",2,"Novel63",2,1817,"eyescenter",-1,0,1,0,(Apr 21 2014 07:38:10),0,TRUE,TRUE,4,TRUE
"207","A16GPKQ7EXUY3D","Apr 21 2014","07:38:10",7,"Social","Zero",4,1,"Switch",0,"Novel123",1,"Novel22",0,1897,"eyes_down_left",1,1,0,0,(Apr 21 2014 07:38:10),0,TRUE,FALSE,4,FALSE
"208","A16GPKQ7EXUY3D","Apr 21 2014","07:38:10",8,"Social","Zero",4,1,"Switch",0,"Novel22",2,"Novel22",0,5981,"eyescenter",-1,0,1,0,(Apr 21 2014 07:38:10),0,TRUE,FALSE,4,TRUE
"209","A16GPKQ7EXUY3D","Apr 21 2014","07:38:10",9,"Social","Zero",4,2,"Same",0,"Novel40",0,"Novel40",0,3347,"eyes_left",0,1,0,0,(Apr 21 2014 07:38:10),0,TRUE,FALSE,4,TRUE
"210","A16GPKQ7EXUY3D","Apr 21 2014","07:38:10",10,"Social","Zero",4,2,"Same",0,"Novel40",2,"Novel40",0,1138,"eyescenter",-1,0,1,0,(Apr 21 2014 07:38:10),0,TRUE,FALSE,4,TRUE
"211","A16GPKQ7EXUY3D","Apr 21 2014","07:38:10",11,"Social","Zero",4,3,"Switch",1,"Novel11",3,"Novel36",2,2344,"eyes_right",3,1,0,0,(Apr 21 2014 07:38:10),0,TRUE,FALSE,4,FALSE
"212","A16GPKQ7EXUY3D","Apr 21 2014","07:38:10",12,"Social","Zero",4,3,"Switch",1,"Novel74",0,"Novel36",2,4731,"eyescenter",-1,0,1,0,(Apr 21 2014 07:38:10),0,TRUE,FALSE,4,FALSE
"213","A16GPKQ7EXUY3D","Apr 21 2014","07:38:10",13,"Social","Zero",4,4,"Same",1,"Novel20",3,"Novel20",3,1802,"eyes_right",3,1,0,0,(Apr 21 2014 07:38:10),0,TRUE,FALSE,4,TRUE
"214","A16GPKQ7EXUY3D","Apr 21 2014","07:38:10",14,"Social","Zero",4,4,"Same",1,"Novel20",3,"Novel20",3,994,"eyescenter",-1,0,1,0,(Apr 21 2014 07:38:10),0,TRUE,FALSE,4,TRUE
"215","A16GPKQ7EXUY3D","Apr 21 2014","07:38:10",15,"Social","Zero",4,5,"Switch",0,"Novel45",2,"Novel41",1,2415,"eyes_down_right",2,1,0,0,(Apr 21 2014 07:38:10),0,TRUE,FALSE,4,FALSE
"216","A16GPKQ7EXUY3D","Apr 21 2014","07:38:10",16,"Social","Zero",4,5,"Switch",0,"Novel32",3,"Novel41",1,2772,"eyescenter",-1,0,1,0,(Apr 21 2014 07:38:10),0,TRUE,FALSE,4,FALSE
"217","A16GPKQ7EXUY3D","Apr 21 2014","07:38:10",17,"Social","Zero",4,6,"Same",0,"Novel58",2,"Novel58",2,5565,"eyes_down_right",2,1,0,0,(Apr 21 2014 07:38:10),0,TRUE,FALSE,4,TRUE
"218","A16GPKQ7EXUY3D","Apr 21 2014","07:38:10",18,"Social","Zero",4,6,"Same",0,"Novel58",0,"Novel58",2,1077,"eyescenter",-1,0,1,0,(Apr 21 2014 07:38:10),0,TRUE,FALSE,4,TRUE
"219","A16GPKQ7EXUY3D","Apr 21 2014","07:38:10",19,"Social","Zero",4,7,"Switch",1,"Novel29",2,"Novel104",1,1459,"eyes_down_right",2,1,0,0,(Apr 21 2014 07:38:10),0,TRUE,FALSE,4,FALSE
"220","A16GPKQ7EXUY3D","Apr 21 2014","07:38:10",20,"Social","Zero",4,7,"Switch",1,"Novel108",2,"Novel104",1,4620,"eyescenter",-1,0,1,0,(Apr 21 2014 07:38:10),0,TRUE,FALSE,4,FALSE
"221","A17D7S6EGNBJNQ","Apr 22 2014","07:07:46",1,"Social","One",4,0,"Same",1,"squirrel",0,"",0,8288,"eyescenter",-1,0,0,1,(Apr 22 2014 07:07:46),1,TRUE,FALSE,4,FALSE
"222","A17D7S6EGNBJNQ","Apr 22 2014","07:07:46",2,"Social","One",4,0,"Same",1,"squirrel",0,"",0,2359,"eyescenter",-1,0,0,1,(Apr 22 2014 07:07:46),1,TRUE,FALSE,4,FALSE
"223","A17D7S6EGNBJNQ","Apr 22 2014","07:07:46",3,"Social","One",4,0,"Same",1,"tomato",1,"",0,1956,"eyescenter",-1,0,0,1,(Apr 22 2014 07:07:46),1,TRUE,FALSE,4,FALSE
"224","A17D7S6EGNBJNQ","Apr 22 2014","07:07:46",4,"Social","One",4,0,"Same",1,"tomato",2,"",0,4319,"eyescenter",-1,0,0,1,(Apr 22 2014 07:07:46),1,TRUE,FALSE,4,FALSE
"225","A17D7S6EGNBJNQ","Apr 22 2014","07:07:46",5,"Social","One",4,0,"Same",1,"Novel50",3,"Novel50",3,8004,"eyes_right",3,1,0,0,(Apr 22 2014 07:07:46),1,TRUE,FALSE,4,TRUE
"226","A17D7S6EGNBJNQ","Apr 22 2014","07:07:46",6,"Social","One",4,1,"Switch",0,"Novel85",3,"Novel48",1,3635,"eyes_right",3,1,0,0,(Apr 22 2014 07:07:46),1,TRUE,FALSE,4,FALSE
"227","A17D7S6EGNBJNQ","Apr 22 2014","07:07:46",7,"Social","One",4,0,"Same",1,"Novel50",3,"Novel50",3,1200,"eyescenter",-1,0,1,0,(Apr 22 2014 07:07:46),1,TRUE,TRUE,4,TRUE
"228","A17D7S6EGNBJNQ","Apr 22 2014","07:07:46",8,"Social","One",4,1,"Switch",0,"Novel19",0,"Novel48",1,8804,"eyescenter",-1,0,1,0,(Apr 22 2014 07:07:46),1,TRUE,FALSE,4,FALSE
"229","A17D7S6EGNBJNQ","Apr 22 2014","07:07:46",9,"Social","One",4,2,"Same",0,"Novel139",2,"Novel139",2,4092,"eyes_left",0,1,0,0,(Apr 22 2014 07:07:46),1,TRUE,FALSE,4,TRUE
"230","A17D7S6EGNBJNQ","Apr 22 2014","07:07:46",10,"Social","One",4,3,"Switch",0,"Novel5",2,"Novel52",0,2066,"eyes_down_right",2,1,0,0,(Apr 22 2014 07:07:46),1,TRUE,FALSE,4,FALSE
"231","A17D7S6EGNBJNQ","Apr 22 2014","07:07:46",11,"Social","One",4,2,"Same",0,"Novel139",1,"Novel139",2,1088,"eyescenter",-1,0,1,0,(Apr 22 2014 07:07:46),1,TRUE,FALSE,4,TRUE
"232","A17D7S6EGNBJNQ","Apr 22 2014","07:07:46",12,"Social","One",4,3,"Switch",0,"Novel52",3,"Novel52",0,2392,"eyescenter",-1,0,1,0,(Apr 22 2014 07:07:46),1,TRUE,FALSE,4,TRUE
"233","A17D7S6EGNBJNQ","Apr 22 2014","07:07:46",13,"Social","One",4,4,"Same",0,"Novel65",2,"Novel65",2,1270,"eyes_down_right",2,1,0,0,(Apr 22 2014 07:07:46),1,TRUE,FALSE,4,TRUE
"234","A17D7S6EGNBJNQ","Apr 22 2014","07:07:46",14,"Social","One",4,5,"Switch",1,"Novel13",0,"Novel21",1,1694,"eyes_left",0,1,0,0,(Apr 22 2014 07:07:46),1,TRUE,FALSE,4,FALSE
"235","A17D7S6EGNBJNQ","Apr 22 2014","07:07:46",15,"Social","One",4,4,"Same",0,"Novel65",1,"Novel65",2,2019,"eyescenter",-1,0,1,0,(Apr 22 2014 07:07:46),1,TRUE,FALSE,4,TRUE
"236","A17D7S6EGNBJNQ","Apr 22 2014","07:07:46",16,"Social","One",4,5,"Switch",1,"Novel7",3,"Novel21",1,2175,"eyescenter",-1,0,1,0,(Apr 22 2014 07:07:46),1,TRUE,FALSE,4,FALSE
"237","A17D7S6EGNBJNQ","Apr 22 2014","07:07:46",17,"Social","One",4,6,"Same",1,"Novel140",2,"Novel140",2,823,"eyes_down_right",2,1,0,0,(Apr 22 2014 07:07:46),1,TRUE,FALSE,4,TRUE
"238","A17D7S6EGNBJNQ","Apr 22 2014","07:07:46",18,"Social","One",4,7,"Switch",1,"Novel4",2,"Novel92",3,1006,"eyes_down_right",2,1,0,0,(Apr 22 2014 07:07:46),1,TRUE,FALSE,4,FALSE
"239","A17D7S6EGNBJNQ","Apr 22 2014","07:07:46",19,"Social","One",4,6,"Same",1,"Novel140",2,"Novel140",2,1567,"eyescenter",-1,0,1,0,(Apr 22 2014 07:07:46),1,TRUE,FALSE,4,TRUE
"240","A17D7S6EGNBJNQ","Apr 22 2014","07:07:46",20,"Social","One",4,7,"Switch",1,"Novel123",1,"Novel92",3,2782,"eyescenter",-1,0,1,0,(Apr 22 2014 07:07:46),1,TRUE,FALSE,4,FALSE
"241","A17GTPMTVW5OJQ","Apr 22 2014","11:13:10",1,"Social","Zero",4,0,"Switch",1,"squirrel",0,"",0,3034,"eyescenter",-1,0,0,1,(Apr 22 2014 11:13:10),0,TRUE,FALSE,4,FALSE
"242","A17GTPMTVW5OJQ","Apr 22 2014","11:13:10",2,"Social","Zero",4,0,"Switch",1,"squirrel",0,"",0,1185,"eyescenter",-1,0,0,1,(Apr 22 2014 11:13:10),0,TRUE,FALSE,4,FALSE
"243","A17GTPMTVW5OJQ","Apr 22 2014","11:13:10",3,"Social","Zero",4,0,"Switch",1,"tomato",1,"",0,1588,"eyescenter",-1,0,0,1,(Apr 22 2014 11:13:10),0,TRUE,FALSE,4,FALSE
"244","A17GTPMTVW5OJQ","Apr 22 2014","11:13:10",4,"Social","Zero",4,0,"Switch",1,"tomato",2,"",0,1273,"eyescenter",-1,0,0,1,(Apr 22 2014 11:13:10),0,TRUE,FALSE,4,FALSE
"245","A17GTPMTVW5OJQ","Apr 22 2014","11:13:10",5,"Social","Zero",4,0,"Switch",1,"Novel59",2,"Novel67",1,5521,"eyes_down_right",2,1,0,0,(Apr 22 2014 11:13:10),0,TRUE,FALSE,4,FALSE
"246","A17GTPMTVW5OJQ","Apr 22 2014","11:13:10",6,"Social","Zero",4,0,"Switch",1,"Novel81",0,"Novel67",1,4618,"eyescenter",-1,0,1,0,(Apr 22 2014 11:13:10),0,TRUE,TRUE,4,FALSE
"247","A17GTPMTVW5OJQ","Apr 22 2014","11:13:10",7,"Social","Zero",4,1,"Same",0,"Novel85",3,"Novel85",3,3635,"eyes_right",3,1,0,0,(Apr 22 2014 11:13:10),0,TRUE,FALSE,4,TRUE
"248","A17GTPMTVW5OJQ","Apr 22 2014","11:13:10",8,"Social","Zero",4,1,"Same",0,"Novel85",0,"Novel85",3,1185,"eyescenter",-1,0,1,0,(Apr 22 2014 11:13:10),0,TRUE,FALSE,4,TRUE
"249","A17GTPMTVW5OJQ","Apr 22 2014","11:13:10",9,"Social","Zero",4,2,"Switch",0,"Novel109",3,"Novel113",1,2834,"eyes_right",3,1,0,0,(Apr 22 2014 11:13:10),0,TRUE,FALSE,4,FALSE
"250","A17GTPMTVW5OJQ","Apr 22 2014","11:13:10",10,"Social","Zero",4,2,"Switch",0,"Novel105",0,"Novel113",1,1933,"eyescenter",-1,0,1,0,(Apr 22 2014 11:13:10),0,TRUE,FALSE,4,FALSE
"251","A17GTPMTVW5OJQ","Apr 22 2014","11:13:10",11,"Social","Zero",4,3,"Same",0,"Novel98",2,"Novel98",2,1418,"eyes_down_right",2,1,0,0,(Apr 22 2014 11:13:10),0,TRUE,FALSE,4,TRUE
"252","A17GTPMTVW5OJQ","Apr 22 2014","11:13:10",12,"Social","Zero",4,3,"Same",0,"Novel98",0,"Novel98",2,878,"eyescenter",-1,0,1,0,(Apr 22 2014 11:13:10),0,TRUE,FALSE,4,TRUE
"253","A17GTPMTVW5OJQ","Apr 22 2014","11:13:10",13,"Social","Zero",4,4,"Switch",1,"Novel61",1,"Novel92",2,1430,"eyes_down_left",1,1,0,0,(Apr 22 2014 11:13:10),0,TRUE,FALSE,4,FALSE
"254","A17GTPMTVW5OJQ","Apr 22 2014","11:13:10",14,"Social","Zero",4,4,"Switch",1,"Novel4",1,"Novel92",2,1516,"eyescenter",-1,0,1,0,(Apr 22 2014 11:13:10),0,TRUE,FALSE,4,FALSE
"255","A17GTPMTVW5OJQ","Apr 22 2014","11:13:10",15,"Social","Zero",4,5,"Same",1,"Novel73",3,"Novel73",3,3298,"eyes_right",3,1,0,0,(Apr 22 2014 11:13:10),0,TRUE,FALSE,4,TRUE
"256","A17GTPMTVW5OJQ","Apr 22 2014","11:13:10",16,"Social","Zero",4,5,"Same",1,"Novel73",3,"Novel73",3,887,"eyescenter",-1,0,1,0,(Apr 22 2014 11:13:10),0,TRUE,FALSE,4,TRUE
"257","A17GTPMTVW5OJQ","Apr 22 2014","11:13:10",17,"Social","Zero",4,6,"Switch",0,"Novel8",2,"Novel65",3,1934,"eyes_down_right",2,1,0,0,(Apr 22 2014 11:13:10),0,TRUE,FALSE,4,FALSE
"258","A17GTPMTVW5OJQ","Apr 22 2014","11:13:10",18,"Social","Zero",4,6,"Switch",0,"Novel21",1,"Novel65",3,1253,"eyescenter",-1,0,1,0,(Apr 22 2014 11:13:10),0,TRUE,FALSE,4,FALSE
"259","A17GTPMTVW5OJQ","Apr 22 2014","11:13:10",19,"Social","Zero",4,7,"Same",1,"Novel5",2,"Novel5",2,1517,"eyes_down_right",2,1,0,0,(Apr 22 2014 11:13:10),0,TRUE,FALSE,4,TRUE
"260","A17GTPMTVW5OJQ","Apr 22 2014","11:13:10",20,"Social","Zero",4,7,"Same",1,"Novel5",2,"Novel5",2,1386,"eyescenter",-1,0,1,0,(Apr 22 2014 11:13:10),0,TRUE,FALSE,4,TRUE
"261","A18BJSQ4JHXUWX","Apr 21 2014","17:42:41",1,"Social","One",4,0,"Switch",1,"squirrel",0,"",0,3411,"eyescenter",-1,0,0,1,(Apr 21 2014 17:42:41),1,TRUE,FALSE,4,FALSE
"262","A18BJSQ4JHXUWX","Apr 21 2014","17:42:41",2,"Social","One",4,0,"Switch",1,"squirrel",0,"",0,1632,"eyescenter",-1,0,0,1,(Apr 21 2014 17:42:41),1,TRUE,FALSE,4,FALSE
"263","A18BJSQ4JHXUWX","Apr 21 2014","17:42:41",3,"Social","One",4,0,"Switch",1,"tomato",1,"",0,1616,"eyescenter",-1,0,0,1,(Apr 21 2014 17:42:41),1,TRUE,FALSE,4,FALSE
"264","A18BJSQ4JHXUWX","Apr 21 2014","17:42:41",4,"Social","One",4,0,"Switch",1,"tomato",2,"",0,1127,"eyescenter",-1,0,0,1,(Apr 21 2014 17:42:41),1,TRUE,FALSE,4,FALSE
"265","A18BJSQ4JHXUWX","Apr 21 2014","17:42:41",5,"Social","One",4,0,"Switch",1,"Novel114",0,"Novel105",1,5384,"eyes_right",3,1,0,0,(Apr 21 2014 17:42:41),1,TRUE,FALSE,4,FALSE
"266","A18BJSQ4JHXUWX","Apr 21 2014","17:42:41",6,"Social","One",4,1,"Same",0,"Novel128",2,"Novel128",2,1482,"eyes_down_right",2,1,0,0,(Apr 21 2014 17:42:41),1,TRUE,FALSE,4,TRUE
"267","A18BJSQ4JHXUWX","Apr 21 2014","17:42:41",7,"Social","One",4,0,"Switch",1,"Novel106",0,"Novel105",1,3698,"eyescenter",-1,0,1,0,(Apr 21 2014 17:42:41),1,TRUE,TRUE,4,FALSE
"268","A18BJSQ4JHXUWX","Apr 21 2014","17:42:41",8,"Social","One",4,1,"Same",0,"Novel128",3,"Novel128",2,1129,"eyescenter",-1,0,1,0,(Apr 21 2014 17:42:41),1,TRUE,FALSE,4,TRUE
"269","A18BJSQ4JHXUWX","Apr 21 2014","17:42:41",9,"Social","One",4,2,"Switch",0,"Novel50",3,"Novel101",2,2831,"eyes_right",3,1,0,0,(Apr 21 2014 17:42:41),1,TRUE,FALSE,4,FALSE
"270","A18BJSQ4JHXUWX","Apr 21 2014","17:42:41",10,"Social","One",4,3,"Same",1,"Novel99",1,"Novel99",1,1564,"eyes_down_left",1,1,0,0,(Apr 21 2014 17:42:41),1,TRUE,FALSE,4,TRUE
"271","A18BJSQ4JHXUWX","Apr 21 2014","17:42:41",11,"Social","One",4,2,"Switch",0,"Novel82",2,"Novel101",2,6551,"eyescenter",-1,0,1,0,(Apr 21 2014 17:42:41),1,TRUE,FALSE,4,FALSE
"272","A18BJSQ4JHXUWX","Apr 21 2014","17:42:41",12,"Social","One",4,3,"Same",1,"Novel99",1,"Novel99",1,997,"eyescenter",-1,0,1,0,(Apr 21 2014 17:42:41),1,TRUE,FALSE,4,TRUE
"273","A18BJSQ4JHXUWX","Apr 21 2014","17:42:41",13,"Social","One",4,4,"Switch",1,"Novel7",1,"Novel136",3,2861,"eyes_down_left",1,1,0,0,(Apr 21 2014 17:42:41),1,TRUE,FALSE,4,FALSE
"274","A18BJSQ4JHXUWX","Apr 21 2014","17:42:41",14,"Social","One",4,5,"Same",1,"Novel17",3,"Novel17",3,1283,"eyes_right",3,1,0,0,(Apr 21 2014 17:42:41),1,TRUE,FALSE,4,TRUE
"275","A18BJSQ4JHXUWX","Apr 21 2014","17:42:41",15,"Social","One",4,4,"Switch",1,"Novel57",1,"Novel136",3,8251,"eyescenter",-1,0,1,0,(Apr 21 2014 17:42:41),1,TRUE,FALSE,4,FALSE
"276","A18BJSQ4JHXUWX","Apr 21 2014","17:42:41",16,"Social","One",4,5,"Same",1,"Novel17",3,"Novel17",3,1430,"eyescenter",-1,0,1,0,(Apr 21 2014 17:42:41),1,TRUE,FALSE,4,TRUE
"277","A18BJSQ4JHXUWX","Apr 21 2014","17:42:41",17,"Social","One",4,6,"Switch",0,"Novel88",1,"Novel102",3,2337,"eyes_down_left",1,1,0,0,(Apr 21 2014 17:42:41),1,TRUE,FALSE,4,FALSE
"278","A18BJSQ4JHXUWX","Apr 21 2014","17:42:41",18,"Social","One",4,7,"Same",0,"Novel129",2,"Novel129",2,1297,"eyes_down_right",2,1,0,0,(Apr 21 2014 17:42:41),1,TRUE,FALSE,4,TRUE
"279","A18BJSQ4JHXUWX","Apr 21 2014","17:42:41",19,"Social","One",4,6,"Switch",0,"Novel70",0,"Novel102",3,2513,"eyescenter",-1,0,1,0,(Apr 21 2014 17:42:41),1,TRUE,FALSE,4,FALSE
"280","A18BJSQ4JHXUWX","Apr 21 2014","17:42:41",20,"Social","One",4,7,"Same",0,"Novel129",1,"Novel129",2,997,"eyescenter",-1,0,1,0,(Apr 21 2014 17:42:41),1,TRUE,FALSE,4,TRUE
"281","A18NG2NADHTA0","Apr 22 2014","01:27:49",1,"Social","Seven",4,0,"Same",0,"squirrel",0,"",0,787,"eyescenter",-1,0,0,1,(Apr 22 2014 01:27:49),7,TRUE,FALSE,4,FALSE
"282","A18NG2NADHTA0","Apr 22 2014","01:27:49",2,"Social","Seven",4,0,"Same",0,"squirrel",0,"",0,691,"eyescenter",-1,0,0,1,(Apr 22 2014 01:27:49),7,TRUE,FALSE,4,FALSE
"283","A18NG2NADHTA0","Apr 22 2014","01:27:49",3,"Social","Seven",4,0,"Same",0,"tomato",1,"",0,522,"eyescenter",-1,0,0,1,(Apr 22 2014 01:27:49),7,TRUE,FALSE,4,FALSE
"284","A18NG2NADHTA0","Apr 22 2014","01:27:49",4,"Social","Seven",4,0,"Same",0,"tomato",2,"",0,915,"eyescenter",-1,0,0,1,(Apr 22 2014 01:27:49),7,TRUE,FALSE,4,FALSE
"285","A18NG2NADHTA0","Apr 22 2014","01:27:49",5,"Social","Seven",4,0,"Same",0,"Novel73",2,"Novel73",2,9563,"eyes_left",0,1,0,0,(Apr 22 2014 01:27:49),7,TRUE,FALSE,4,TRUE
"286","A18NG2NADHTA0","Apr 22 2014","01:27:49",6,"Social","Seven",4,1,"Switch",1,"Novel62",2,"Novel42",3,9982,"eyes_right",3,1,0,0,(Apr 22 2014 01:27:49),7,TRUE,FALSE,4,FALSE
"287","A18NG2NADHTA0","Apr 22 2014","01:27:49",7,"Social","Seven",4,2,"Same",1,"Novel16",2,"Novel16",2,12258,"eyes_down_left",1,1,0,0,(Apr 22 2014 01:27:49),7,TRUE,FALSE,4,TRUE
"288","A18NG2NADHTA0","Apr 22 2014","01:27:49",8,"Social","Seven",4,3,"Switch",1,"Novel140",0,"Novel68",1,5353,"eyes_left",0,1,0,0,(Apr 22 2014 01:27:49),7,TRUE,FALSE,4,FALSE
"289","A18NG2NADHTA0","Apr 22 2014","01:27:49",9,"Social","Seven",4,4,"Same",0,"Novel60",2,"Novel60",2,3794,"eyes_down_left",1,1,0,0,(Apr 22 2014 01:27:49),7,TRUE,FALSE,4,TRUE
"290","A18NG2NADHTA0","Apr 22 2014","01:27:49",10,"Social","Seven",4,5,"Switch",0,"Novel33",1,"Novel96",3,4117,"eyes_right",3,1,0,0,(Apr 22 2014 01:27:49),7,TRUE,FALSE,4,FALSE
"291","A18NG2NADHTA0","Apr 22 2014","01:27:49",11,"Social","Seven",4,6,"Same",1,"Novel99",2,"Novel99",2,2485,"eyes_down_right",2,1,0,0,(Apr 22 2014 01:27:49),7,TRUE,FALSE,4,TRUE
"292","A18NG2NADHTA0","Apr 22 2014","01:27:49",12,"Social","Seven",4,7,"Switch",0,"Novel58",0,"Novel55",3,5032,"eyes_down_right",2,1,0,0,(Apr 22 2014 01:27:49),7,TRUE,FALSE,4,FALSE
"293","A18NG2NADHTA0","Apr 22 2014","01:27:49",13,"Social","Seven",4,0,"Same",0,"Novel73",1,"Novel73",2,10064,"eyescenter",-1,0,1,0,(Apr 22 2014 01:27:49),7,TRUE,TRUE,4,TRUE
"294","A18NG2NADHTA0","Apr 22 2014","01:27:49",14,"Social","Seven",4,1,"Switch",1,"Novel42",3,"Novel42",3,3689,"eyescenter",-1,0,1,0,(Apr 22 2014 01:27:49),7,TRUE,FALSE,4,TRUE
"295","A18NG2NADHTA0","Apr 22 2014","01:27:49",15,"Social","Seven",4,2,"Same",1,"Novel16",2,"Novel16",2,3807,"eyescenter",-1,0,1,0,(Apr 22 2014 01:27:49),7,TRUE,FALSE,4,TRUE
"296","A18NG2NADHTA0","Apr 22 2014","01:27:49",16,"Social","Seven",4,3,"Switch",1,"Novel69",2,"Novel68",1,4146,"eyescenter",-1,0,1,0,(Apr 22 2014 01:27:49),7,TRUE,FALSE,4,FALSE
"297","A18NG2NADHTA0","Apr 22 2014","01:27:49",17,"Social","Seven",4,4,"Same",0,"Novel60",1,"Novel60",2,3347,"eyescenter",-1,0,1,0,(Apr 22 2014 01:27:49),7,TRUE,FALSE,4,TRUE
"298","A18NG2NADHTA0","Apr 22 2014","01:27:49",18,"Social","Seven",4,5,"Switch",0,"Novel96",0,"Novel96",3,1329,"eyescenter",-1,0,1,0,(Apr 22 2014 01:27:49),7,TRUE,FALSE,4,TRUE
"299","A18NG2NADHTA0","Apr 22 2014","01:27:49",19,"Social","Seven",4,6,"Same",1,"Novel99",2,"Novel99",2,1277,"eyescenter",-1,0,1,0,(Apr 22 2014 01:27:49),7,TRUE,FALSE,4,TRUE
"300","A18NG2NADHTA0","Apr 22 2014","01:27:49",20,"Social","Seven",4,7,"Switch",0,"Novel55",2,"Novel55",3,4631,"eyescenter",-1,0,1,0,(Apr 22 2014 01:27:49),7,TRUE,FALSE,4,TRUE
"301","A190AP330PQ1WK","Apr 20 2014","20:00:47",1,"Social","One",4,0,"Same",0,"squirrel",0,"",0,5053,"eyescenter",-1,0,0,1,(Apr 20 2014 20:00:47),1,TRUE,FALSE,4,FALSE
"302","A190AP330PQ1WK","Apr 20 2014","20:00:47",2,"Social","One",4,0,"Same",0,"squirrel",0,"",0,4286,"eyescenter",-1,0,0,1,(Apr 20 2014 20:00:47),1,TRUE,FALSE,4,FALSE
"303","A190AP330PQ1WK","Apr 20 2014","20:00:47",3,"Social","One",4,0,"Same",0,"tomato",1,"",0,3099,"eyescenter",-1,0,0,1,(Apr 20 2014 20:00:47),1,TRUE,FALSE,4,FALSE
"304","A190AP330PQ1WK","Apr 20 2014","20:00:47",4,"Social","One",4,0,"Same",0,"tomato",2,"",0,1035,"eyescenter",-1,0,0,1,(Apr 20 2014 20:00:47),1,TRUE,FALSE,4,FALSE
"305","A190AP330PQ1WK","Apr 20 2014","20:00:47",5,"Social","One",4,0,"Same",0,"Novel121",3,"Novel121",3,7594,"eyes_right",3,1,0,0,(Apr 20 2014 20:00:47),1,TRUE,FALSE,4,TRUE
"306","A190AP330PQ1WK","Apr 20 2014","20:00:47",6,"Social","One",4,1,"Switch",1,"Novel1",2,"Novel101",1,4994,"eyes_down_right",2,1,0,0,(Apr 20 2014 20:00:47),1,TRUE,FALSE,4,FALSE
"307","A190AP330PQ1WK","Apr 20 2014","20:00:47",7,"Social","One",4,0,"Same",0,"Novel121",1,"Novel121",3,4088,"eyescenter",-1,0,1,0,(Apr 20 2014 20:00:47),1,TRUE,TRUE,4,TRUE
"308","A190AP330PQ1WK","Apr 20 2014","20:00:47",8,"Social","One",4,1,"Switch",1,"Novel75",3,"Novel101",1,7052,"eyescenter",-1,0,1,0,(Apr 20 2014 20:00:47),1,TRUE,FALSE,4,FALSE
"309","A190AP330PQ1WK","Apr 20 2014","20:00:47",9,"Social","One",4,2,"Same",0,"Novel140",1,"Novel140",1,3266,"eyes_left",0,1,0,0,(Apr 20 2014 20:00:47),1,TRUE,FALSE,4,TRUE
"310","A190AP330PQ1WK","Apr 20 2014","20:00:47",10,"Social","One",4,3,"Switch",0,"Novel96",3,"Novel124",0,8132,"eyes_down_right",2,1,0,0,(Apr 20 2014 20:00:47),1,TRUE,FALSE,4,FALSE
"311","A190AP330PQ1WK","Apr 20 2014","20:00:47",11,"Social","One",4,2,"Same",0,"Novel74",1,"Novel140",1,2864,"eyescenter",-1,0,1,0,(Apr 20 2014 20:00:47),1,TRUE,FALSE,4,FALSE
"312","A190AP330PQ1WK","Apr 20 2014","20:00:47",12,"Social","One",4,3,"Switch",0,"Novel39",3,"Novel124",0,2569,"eyescenter",-1,0,1,0,(Apr 20 2014 20:00:47),1,TRUE,FALSE,4,FALSE
"313","A190AP330PQ1WK","Apr 20 2014","20:00:47",13,"Social","One",4,4,"Same",1,"Novel71",2,"Novel71",2,1892,"eyes_down_right",2,1,0,0,(Apr 20 2014 20:00:47),1,TRUE,FALSE,4,TRUE
"314","A190AP330PQ1WK","Apr 20 2014","20:00:47",14,"Social","One",4,5,"Switch",0,"Novel134",3,"Novel15",2,4121,"eyes_right",3,1,0,0,(Apr 20 2014 20:00:47),1,TRUE,FALSE,4,FALSE
"315","A190AP330PQ1WK","Apr 20 2014","20:00:47",15,"Social","One",4,4,"Same",1,"Novel71",2,"Novel71",2,3781,"eyescenter",-1,0,1,0,(Apr 20 2014 20:00:47),1,TRUE,FALSE,4,TRUE
"316","A190AP330PQ1WK","Apr 20 2014","20:00:47",16,"Social","One",4,5,"Switch",0,"Novel120",3,"Novel15",2,2239,"eyescenter",-1,0,1,0,(Apr 20 2014 20:00:47),1,TRUE,FALSE,4,FALSE
"317","A190AP330PQ1WK","Apr 20 2014","20:00:47",17,"Social","One",4,6,"Same",1,"Novel22",1,"Novel22",1,1972,"eyes_down_left",1,1,0,0,(Apr 20 2014 20:00:47),1,TRUE,FALSE,4,TRUE
"318","A190AP330PQ1WK","Apr 20 2014","20:00:47",18,"Social","One",4,7,"Switch",1,"Novel55",2,"Novel73",0,2017,"eyes_down_right",2,1,0,0,(Apr 20 2014 20:00:47),1,TRUE,FALSE,4,FALSE
"319","A190AP330PQ1WK","Apr 20 2014","20:00:47",19,"Social","One",4,6,"Same",1,"Novel122",0,"Novel22",1,2439,"eyescenter",-1,0,1,0,(Apr 20 2014 20:00:47),1,TRUE,FALSE,4,FALSE
"320","A190AP330PQ1WK","Apr 20 2014","20:00:47",20,"Social","One",4,7,"Switch",1,"Novel100",2,"Novel73",0,613,"eyescenter",-1,0,1,0,(Apr 20 2014 20:00:47),1,TRUE,FALSE,4,FALSE
"321","A1AD0ZR6DCPIFO","Apr 22 2014","01:07:28",1,"Social","One",4,0,"Switch",1,"squirrel",0,"",0,3938,"eyescenter",-1,0,0,1,(Apr 22 2014 01:07:28),1,TRUE,FALSE,4,FALSE
"322","A1AD0ZR6DCPIFO","Apr 22 2014","01:07:28",2,"Social","One",4,0,"Switch",1,"squirrel",0,"",0,1055,"eyescenter",-1,0,0,1,(Apr 22 2014 01:07:28),1,TRUE,FALSE,4,FALSE
"323","A1AD0ZR6DCPIFO","Apr 22 2014","01:07:28",3,"Social","One",4,0,"Switch",1,"tomato",1,"",0,1189,"eyescenter",-1,0,0,1,(Apr 22 2014 01:07:28),1,TRUE,FALSE,4,FALSE
"324","A1AD0ZR6DCPIFO","Apr 22 2014","01:07:28",4,"Social","One",4,0,"Switch",1,"tomato",2,"",0,758,"eyescenter",-1,0,0,1,(Apr 22 2014 01:07:28),1,TRUE,FALSE,4,FALSE
"325","A1AD0ZR6DCPIFO","Apr 22 2014","01:07:28",5,"Social","One",4,0,"Switch",1,"Novel18",3,"Novel73",1,3195,"eyes_right",3,1,0,0,(Apr 22 2014 01:07:28),1,TRUE,FALSE,4,FALSE
"326","A1AD0ZR6DCPIFO","Apr 22 2014","01:07:28",6,"Social","One",4,1,"Same",0,"Novel61",1,"Novel61",1,3733,"eyes_left",0,1,0,0,(Apr 22 2014 01:07:28),1,TRUE,FALSE,4,TRUE
"327","A1AD0ZR6DCPIFO","Apr 22 2014","01:07:28",7,"Social","One",4,0,"Switch",1,"Novel73",1,"Novel73",1,4481,"eyescenter",-1,0,1,0,(Apr 22 2014 01:07:28),1,TRUE,TRUE,4,TRUE
"328","A1AD0ZR6DCPIFO","Apr 22 2014","01:07:28",8,"Social","One",4,1,"Same",0,"Novel61",0,"Novel61",1,1225,"eyescenter",-1,0,1,0,(Apr 22 2014 01:07:28),1,TRUE,FALSE,4,TRUE
"329","A1AD0ZR6DCPIFO","Apr 22 2014","01:07:28",9,"Social","One",4,2,"Switch",0,"Novel30",1,"Novel78",2,3540,"eyes_down_left",1,1,0,0,(Apr 22 2014 01:07:28),1,TRUE,FALSE,4,FALSE
"330","A1AD0ZR6DCPIFO","Apr 22 2014","01:07:28",10,"Social","One",4,3,"Same",1,"Novel91",0,"Novel91",0,1110,"eyes_left",0,1,0,0,(Apr 22 2014 01:07:28),1,TRUE,FALSE,4,TRUE
"331","A1AD0ZR6DCPIFO","Apr 22 2014","01:07:28",11,"Social","One",4,2,"Switch",0,"Novel78",3,"Novel78",2,3270,"eyescenter",-1,0,1,0,(Apr 22 2014 01:07:28),1,TRUE,FALSE,4,TRUE
"332","A1AD0ZR6DCPIFO","Apr 22 2014","01:07:28",12,"Social","One",4,3,"Same",1,"Novel91",0,"Novel91",0,1485,"eyescenter",-1,0,1,0,(Apr 22 2014 01:07:28),1,TRUE,FALSE,4,TRUE
"333","A1AD0ZR6DCPIFO","Apr 22 2014","01:07:28",13,"Social","One",4,4,"Switch",0,"Novel26",0,"Novel81",3,736,"eyes_left",0,1,0,0,(Apr 22 2014 01:07:28),1,TRUE,FALSE,4,FALSE
"334","A1AD0ZR6DCPIFO","Apr 22 2014","01:07:28",14,"Social","One",4,5,"Same",0,"Novel139",3,"Novel139",3,1234,"eyes_right",3,1,0,0,(Apr 22 2014 01:07:28),1,TRUE,FALSE,4,TRUE
"335","A1AD0ZR6DCPIFO","Apr 22 2014","01:07:28",15,"Social","One",4,4,"Switch",0,"Novel21",0,"Novel81",3,5713,"eyescenter",-1,0,1,0,(Apr 22 2014 01:07:28),1,TRUE,FALSE,4,FALSE
"336","A1AD0ZR6DCPIFO","Apr 22 2014","01:07:28",16,"Social","One",4,5,"Same",0,"Novel139",1,"Novel139",3,1817,"eyescenter",-1,0,1,0,(Apr 22 2014 01:07:28),1,TRUE,FALSE,4,TRUE
"337","A1AD0ZR6DCPIFO","Apr 22 2014","01:07:28",17,"Social","One",4,6,"Switch",1,"Novel44",3,"Novel15",0,1101,"eyes_right",3,1,0,0,(Apr 22 2014 01:07:28),1,TRUE,FALSE,4,FALSE
"338","A1AD0ZR6DCPIFO","Apr 22 2014","01:07:28",18,"Social","One",4,7,"Same",1,"Novel32",3,"Novel32",3,925,"eyes_right",3,1,0,0,(Apr 22 2014 01:07:28),1,TRUE,FALSE,4,TRUE
"339","A1AD0ZR6DCPIFO","Apr 22 2014","01:07:28",19,"Social","One",4,6,"Switch",1,"Novel105",2,"Novel15",0,1092,"eyescenter",-1,0,1,0,(Apr 22 2014 01:07:28),1,TRUE,FALSE,4,FALSE
"340","A1AD0ZR6DCPIFO","Apr 22 2014","01:07:28",20,"Social","One",4,7,"Same",1,"Novel32",3,"Novel32",3,1017,"eyescenter",-1,0,1,0,(Apr 22 2014 01:07:28),1,TRUE,FALSE,4,TRUE
"341","A1ADI35KR2J6SX","Apr 22 2014","06:50:28",1,"Social","Seven",4,0,"Same",0,"squirrel",0,"",0,1421,"eyescenter",-1,0,0,1,(Apr 22 2014 06:50:28),7,TRUE,FALSE,4,FALSE
"342","A1ADI35KR2J6SX","Apr 22 2014","06:50:28",2,"Social","Seven",4,0,"Same",0,"squirrel",0,"",0,1021,"eyescenter",-1,0,0,1,(Apr 22 2014 06:50:28),7,TRUE,FALSE,4,FALSE
"343","A1ADI35KR2J6SX","Apr 22 2014","06:50:28",3,"Social","Seven",4,0,"Same",0,"tomato",1,"",0,1256,"eyescenter",-1,0,0,1,(Apr 22 2014 06:50:28),7,TRUE,FALSE,4,FALSE
"344","A1ADI35KR2J6SX","Apr 22 2014","06:50:28",4,"Social","Seven",4,0,"Same",0,"tomato",2,"",0,1349,"eyescenter",-1,0,0,1,(Apr 22 2014 06:50:28),7,TRUE,FALSE,4,FALSE
"345","A1ADI35KR2J6SX","Apr 22 2014","06:50:28",5,"Social","Seven",4,0,"Same",0,"Novel107",2,"Novel107",2,8212,"eyes_down_right",2,1,0,0,(Apr 22 2014 06:50:28),7,TRUE,FALSE,4,TRUE
"346","A1ADI35KR2J6SX","Apr 22 2014","06:50:28",6,"Social","Seven",4,1,"Switch",1,"Novel131",1,"Novel39",2,2168,"eyes_right",3,1,0,0,(Apr 22 2014 06:50:28),7,TRUE,FALSE,4,FALSE
"347","A1ADI35KR2J6SX","Apr 22 2014","06:50:28",7,"Social","Seven",4,2,"Same",0,"Novel71",0,"Novel71",0,1860,"eyes_down_left",1,1,0,0,(Apr 22 2014 06:50:28),7,TRUE,FALSE,4,TRUE
"348","A1ADI35KR2J6SX","Apr 22 2014","06:50:28",8,"Social","Seven",4,3,"Switch",0,"Novel33",3,"Novel62",0,2010,"eyes_right",3,1,0,0,(Apr 22 2014 06:50:28),7,TRUE,FALSE,4,FALSE
"349","A1ADI35KR2J6SX","Apr 22 2014","06:50:28",9,"Social","Seven",4,4,"Same",1,"Novel99",0,"Novel99",0,2799,"eyes_left",0,1,0,0,(Apr 22 2014 06:50:28),7,TRUE,FALSE,4,TRUE
"350","A1ADI35KR2J6SX","Apr 22 2014","06:50:28",10,"Social","Seven",4,5,"Switch",1,"Novel115",3,"Novel134",0,1293,"eyes_right",3,1,0,0,(Apr 22 2014 06:50:28),7,TRUE,FALSE,4,FALSE
"351","A1ADI35KR2J6SX","Apr 22 2014","06:50:28",11,"Social","Seven",4,6,"Same",1,"Novel31",1,"Novel31",1,1671,"eyes_down_left",1,1,0,0,(Apr 22 2014 06:50:28),7,TRUE,FALSE,4,TRUE
"352","A1ADI35KR2J6SX","Apr 22 2014","06:50:28",12,"Social","Seven",4,7,"Switch",0,"Novel9",1,"Novel12",2,1475,"eyes_down_left",1,1,0,0,(Apr 22 2014 06:50:28),7,TRUE,FALSE,4,FALSE
"353","A1ADI35KR2J6SX","Apr 22 2014","06:50:28",13,"Social","Seven",4,0,"Same",0,"Novel129",2,"Novel107",2,2602,"eyescenter",-1,0,1,0,(Apr 22 2014 06:50:28),7,TRUE,TRUE,4,FALSE
"354","A1ADI35KR2J6SX","Apr 22 2014","06:50:28",14,"Social","Seven",4,1,"Switch",1,"Novel4",1,"Novel39",2,1908,"eyescenter",-1,0,1,0,(Apr 22 2014 06:50:28),7,TRUE,FALSE,4,FALSE
"355","A1ADI35KR2J6SX","Apr 22 2014","06:50:28",15,"Social","Seven",4,2,"Same",0,"Novel71",2,"Novel71",0,1334,"eyescenter",-1,0,1,0,(Apr 22 2014 06:50:28),7,TRUE,FALSE,4,TRUE
"356","A1ADI35KR2J6SX","Apr 22 2014","06:50:28",16,"Social","Seven",4,3,"Switch",0,"Novel62",3,"Novel62",0,1414,"eyescenter",-1,0,1,0,(Apr 22 2014 06:50:28),7,TRUE,FALSE,4,TRUE
"357","A1ADI35KR2J6SX","Apr 22 2014","06:50:28",17,"Social","Seven",4,4,"Same",1,"Novel127",2,"Novel99",0,1469,"eyescenter",-1,0,1,0,(Apr 22 2014 06:50:28),7,TRUE,FALSE,4,FALSE
"358","A1ADI35KR2J6SX","Apr 22 2014","06:50:28",18,"Social","Seven",4,5,"Switch",1,"Novel52",1,"Novel134",0,2311,"eyescenter",-1,0,1,0,(Apr 22 2014 06:50:28),7,TRUE,FALSE,4,FALSE
"359","A1ADI35KR2J6SX","Apr 22 2014","06:50:28",19,"Social","Seven",4,6,"Same",1,"Novel81",3,"Novel31",1,1310,"eyescenter",-1,0,1,0,(Apr 22 2014 06:50:28),7,TRUE,FALSE,4,FALSE
"360","A1ADI35KR2J6SX","Apr 22 2014","06:50:28",20,"Social","Seven",4,7,"Switch",0,"Novel72",3,"Novel12",2,1193,"eyescenter",-1,0,1,0,(Apr 22 2014 06:50:28),7,TRUE,FALSE,4,FALSE
"361","A1CF6YCOON6VMI","Apr 22 2014","07:02:00",1,"Social","Three",4,0,"Same",1,"squirrel",0,"",0,1603,"eyescenter",-1,0,0,1,(Apr 22 2014 07:02:00),3,TRUE,FALSE,4,FALSE
"362","A1CF6YCOON6VMI","Apr 22 2014","07:02:00",2,"Social","Three",4,0,"Same",1,"squirrel",0,"",0,1357,"eyescenter",-1,0,0,1,(Apr 22 2014 07:02:00),3,TRUE,FALSE,4,FALSE
"363","A1CF6YCOON6VMI","Apr 22 2014","07:02:00",3,"Social","Three",4,0,"Same",1,"tomato",1,"",0,1326,"eyescenter",-1,0,0,1,(Apr 22 2014 07:02:00),3,TRUE,FALSE,4,FALSE
"364","A1CF6YCOON6VMI","Apr 22 2014","07:02:00",4,"Social","Three",4,0,"Same",1,"tomato",2,"",0,1129,"eyescenter",-1,0,0,1,(Apr 22 2014 07:02:00),3,TRUE,FALSE,4,FALSE
"365","A1CF6YCOON6VMI","Apr 22 2014","07:02:00",5,"Social","Three",4,0,"Same",1,"Novel30",1,"Novel30",1,3237,"eyes_down_left",1,1,0,0,(Apr 22 2014 07:02:00),3,TRUE,FALSE,4,TRUE
"366","A1CF6YCOON6VMI","Apr 22 2014","07:02:00",6,"Social","Three",4,1,"Switch",0,"Novel37",2,"Novel118",0,2817,"eyes_down_right",2,1,0,0,(Apr 22 2014 07:02:00),3,TRUE,FALSE,4,FALSE
"367","A1CF6YCOON6VMI","Apr 22 2014","07:02:00",7,"Social","Three",4,2,"Same",0,"Novel140",3,"Novel140",3,2340,"eyes_right",3,1,0,0,(Apr 22 2014 07:02:00),3,TRUE,FALSE,4,TRUE
"368","A1CF6YCOON6VMI","Apr 22 2014","07:02:00",8,"Social","Three",4,3,"Switch",1,"Novel29",0,"Novel89",2,1011,"eyes_left",0,1,0,0,(Apr 22 2014 07:02:00),3,TRUE,FALSE,4,FALSE
"369","A1CF6YCOON6VMI","Apr 22 2014","07:02:00",9,"Social","Three",4,0,"Same",1,"Novel30",1,"Novel30",1,2362,"eyescenter",-1,0,1,0,(Apr 22 2014 07:02:00),3,TRUE,TRUE,4,TRUE
"370","A1CF6YCOON6VMI","Apr 22 2014","07:02:00",10,"Social","Three",4,1,"Switch",0,"Novel113",2,"Novel118",0,1994,"eyescenter",-1,0,1,0,(Apr 22 2014 07:02:00),3,TRUE,FALSE,4,FALSE
"371","A1CF6YCOON6VMI","Apr 22 2014","07:02:00",11,"Social","Three",4,2,"Same",0,"Novel18",3,"Novel140",3,1869,"eyescenter",-1,0,1,0,(Apr 22 2014 07:02:00),3,TRUE,FALSE,4,FALSE
"372","A1CF6YCOON6VMI","Apr 22 2014","07:02:00",12,"Social","Three",4,3,"Switch",1,"Novel44",0,"Novel89",2,779,"eyescenter",-1,0,1,0,(Apr 22 2014 07:02:00),3,TRUE,FALSE,4,FALSE
"373","A1CF6YCOON6VMI","Apr 22 2014","07:02:00",13,"Social","Three",4,4,"Same",0,"Novel121",2,"Novel121",2,1553,"eyes_down_right",2,1,0,0,(Apr 22 2014 07:02:00),3,TRUE,FALSE,4,TRUE
"374","A1CF6YCOON6VMI","Apr 22 2014","07:02:00",14,"Social","Three",4,5,"Switch",1,"Novel80",0,"Novel95",2,1130,"eyes_left",0,1,0,0,(Apr 22 2014 07:02:00),3,TRUE,FALSE,4,FALSE
"375","A1CF6YCOON6VMI","Apr 22 2014","07:02:00",15,"Social","Three",4,6,"Same",1,"Novel72",3,"Novel72",3,1322,"eyes_right",3,1,0,0,(Apr 22 2014 07:02:00),3,TRUE,FALSE,4,TRUE
"376","A1CF6YCOON6VMI","Apr 22 2014","07:02:00",16,"Social","Three",4,7,"Switch",0,"Novel50",2,"Novel129",1,788,"eyes_down_right",2,1,0,0,(Apr 22 2014 07:02:00),3,TRUE,FALSE,4,FALSE
"377","A1CF6YCOON6VMI","Apr 22 2014","07:02:00",17,"Social","Three",4,4,"Same",0,"Novel117",2,"Novel121",2,638,"eyescenter",-1,0,1,0,(Apr 22 2014 07:02:00),3,TRUE,FALSE,4,FALSE
"378","A1CF6YCOON6VMI","Apr 22 2014","07:02:00",18,"Social","Three",4,5,"Switch",1,"Novel1",0,"Novel95",2,2554,"eyescenter",-1,0,1,0,(Apr 22 2014 07:02:00),3,TRUE,FALSE,4,FALSE
"379","A1CF6YCOON6VMI","Apr 22 2014","07:02:00",19,"Social","Three",4,6,"Same",1,"Novel43",1,"Novel72",3,2466,"eyescenter",-1,0,1,0,(Apr 22 2014 07:02:00),3,TRUE,FALSE,4,FALSE
"380","A1CF6YCOON6VMI","Apr 22 2014","07:02:00",20,"Social","Three",4,7,"Switch",0,"Novel3",3,"Novel129",1,1435,"eyescenter",-1,0,1,0,(Apr 22 2014 07:02:00),3,TRUE,FALSE,4,FALSE
"381","A1CHPKYI790EE2","Apr 22 2014","00:35:07",1,"Social","Seven",4,0,"Same",0,"squirrel",0,"",0,1688,"eyescenter",-1,0,0,1,(Apr 22 2014 00:35:07),7,TRUE,FALSE,4,FALSE
"382","A1CHPKYI790EE2","Apr 22 2014","00:35:07",2,"Social","Seven",4,0,"Same",0,"squirrel",0,"",0,3762,"eyescenter",-1,0,0,1,(Apr 22 2014 00:35:07),7,TRUE,FALSE,4,FALSE
"383","A1CHPKYI790EE2","Apr 22 2014","00:35:07",3,"Social","Seven",4,0,"Same",0,"tomato",1,"",0,1014,"eyescenter",-1,0,0,1,(Apr 22 2014 00:35:07),7,TRUE,FALSE,4,FALSE
"384","A1CHPKYI790EE2","Apr 22 2014","00:35:07",4,"Social","Seven",4,0,"Same",0,"tomato",2,"",0,1031,"eyescenter",-1,0,0,1,(Apr 22 2014 00:35:07),7,TRUE,FALSE,4,FALSE
"385","A1CHPKYI790EE2","Apr 22 2014","00:35:07",5,"Social","Seven",4,0,"Same",0,"Novel4",2,"Novel4",2,2451,"eyes_down_right",2,1,0,0,(Apr 22 2014 00:35:07),7,TRUE,FALSE,4,TRUE
"386","A1CHPKYI790EE2","Apr 22 2014","00:35:07",6,"Social","Seven",4,1,"Switch",0,"Novel52",3,"Novel9",2,2224,"eyes_right",3,1,0,0,(Apr 22 2014 00:35:07),7,TRUE,FALSE,4,FALSE
"387","A1CHPKYI790EE2","Apr 22 2014","00:35:07",7,"Social","Seven",4,2,"Same",1,"Novel73",3,"Novel73",3,2013,"eyes_right",3,1,0,0,(Apr 22 2014 00:35:07),7,TRUE,FALSE,4,TRUE
"388","A1CHPKYI790EE2","Apr 22 2014","00:35:07",8,"Social","Seven",4,3,"Switch",1,"Novel15",0,"Novel75",1,4696,"eyes_down_left",1,1,0,0,(Apr 22 2014 00:35:07),7,TRUE,FALSE,4,FALSE
"389","A1CHPKYI790EE2","Apr 22 2014","00:35:07",9,"Social","Seven",4,4,"Same",1,"Novel117",3,"Novel117",3,1534,"eyes_right",3,1,0,0,(Apr 22 2014 00:35:07),7,TRUE,FALSE,4,TRUE
"390","A1CHPKYI790EE2","Apr 22 2014","00:35:07",10,"Social","Seven",4,5,"Switch",1,"Novel27",1,"Novel84",2,2554,"eyes_right",3,1,0,0,(Apr 22 2014 00:35:07),7,TRUE,FALSE,4,FALSE
"391","A1CHPKYI790EE2","Apr 22 2014","00:35:07",11,"Social","Seven",4,6,"Same",0,"Novel104",2,"Novel104",2,1146,"eyes_down_right",2,1,0,0,(Apr 22 2014 00:35:07),7,TRUE,FALSE,4,TRUE
"392","A1CHPKYI790EE2","Apr 22 2014","00:35:07",12,"Social","Seven",4,7,"Switch",0,"Novel36",3,"Novel135",1,1206,"eyes_right",3,1,0,0,(Apr 22 2014 00:35:07),7,TRUE,FALSE,4,FALSE
"393","A1CHPKYI790EE2","Apr 22 2014","00:35:07",13,"Social","Seven",4,0,"Same",0,"Novel99",0,"Novel4",2,3620,"eyescenter",-1,0,1,0,(Apr 22 2014 00:35:07),7,TRUE,TRUE,4,FALSE
"394","A1CHPKYI790EE2","Apr 22 2014","00:35:07",14,"Social","Seven",4,1,"Switch",0,"Novel32",0,"Novel9",2,3069,"eyescenter",-1,0,1,0,(Apr 22 2014 00:35:07),7,TRUE,FALSE,4,FALSE
"395","A1CHPKYI790EE2","Apr 22 2014","00:35:07",15,"Social","Seven",4,2,"Same",1,"Novel73",3,"Novel73",3,2421,"eyescenter",-1,0,1,0,(Apr 22 2014 00:35:07),7,TRUE,FALSE,4,TRUE
"396","A1CHPKYI790EE2","Apr 22 2014","00:35:07",16,"Social","Seven",4,3,"Switch",1,"Novel2",3,"Novel75",1,3214,"eyescenter",-1,0,1,0,(Apr 22 2014 00:35:07),7,TRUE,FALSE,4,FALSE
"397","A1CHPKYI790EE2","Apr 22 2014","00:35:07",17,"Social","Seven",4,4,"Same",1,"Novel114",1,"Novel117",3,2387,"eyescenter",-1,0,1,0,(Apr 22 2014 00:35:07),7,TRUE,FALSE,4,FALSE
"398","A1CHPKYI790EE2","Apr 22 2014","00:35:07",18,"Social","Seven",4,5,"Switch",1,"Novel133",1,"Novel84",2,3297,"eyescenter",-1,0,1,0,(Apr 22 2014 00:35:07),7,TRUE,FALSE,4,FALSE
"399","A1CHPKYI790EE2","Apr 22 2014","00:35:07",19,"Social","Seven",4,6,"Same",0,"Novel104",3,"Novel104",2,3139,"eyescenter",-1,0,1,0,(Apr 22 2014 00:35:07),7,TRUE,FALSE,4,TRUE
"400","A1CHPKYI790EE2","Apr 22 2014","00:35:07",20,"Social","Seven",4,7,"Switch",0,"Novel135",0,"Novel135",1,3107,"eyescenter",-1,0,1,0,(Apr 22 2014 00:35:07),7,TRUE,FALSE,4,TRUE
"401","A1CXXG7SJUHRN1","Apr 22 2014","08:45:20",1,"Social","Zero",4,0,"Same",1,"squirrel",0,"",0,2740,"eyescenter",-1,0,0,1,(Apr 22 2014 08:45:20),0,TRUE,FALSE,4,FALSE
"402","A1CXXG7SJUHRN1","Apr 22 2014","08:45:20",2,"Social","Zero",4,0,"Same",1,"squirrel",0,"",0,2129,"eyescenter",-1,0,0,1,(Apr 22 2014 08:45:20),0,TRUE,FALSE,4,FALSE
"403","A1CXXG7SJUHRN1","Apr 22 2014","08:45:20",3,"Social","Zero",4,0,"Same",1,"tomato",1,"",0,1448,"eyescenter",-1,0,0,1,(Apr 22 2014 08:45:20),0,TRUE,FALSE,4,FALSE
"404","A1CXXG7SJUHRN1","Apr 22 2014","08:45:20",4,"Social","Zero",4,0,"Same",1,"tomato",2,"",0,1050,"eyescenter",-1,0,0,1,(Apr 22 2014 08:45:20),0,TRUE,FALSE,4,FALSE
"405","A1CXXG7SJUHRN1","Apr 22 2014","08:45:20",5,"Social","Zero",4,0,"Same",1,"Novel30",2,"Novel30",2,5871,"eyes_down_left",1,1,0,0,(Apr 22 2014 08:45:20),0,TRUE,FALSE,4,TRUE
"406","A1CXXG7SJUHRN1","Apr 22 2014","08:45:20",6,"Social","Zero",4,0,"Same",1,"Novel30",2,"Novel30",2,2247,"eyescenter",-1,0,1,0,(Apr 22 2014 08:45:20),0,TRUE,TRUE,4,TRUE
"407","A1CXXG7SJUHRN1","Apr 22 2014","08:45:20",7,"Social","Zero",4,1,"Switch",1,"Novel61",0,"Novel49",2,6394,"eyes_down_left",1,1,0,0,(Apr 22 2014 08:45:20),0,TRUE,FALSE,4,FALSE
"408","A1CXXG7SJUHRN1","Apr 22 2014","08:45:20",8,"Social","Zero",4,1,"Switch",1,"Novel49",2,"Novel49",2,2442,"eyescenter",-1,0,1,0,(Apr 22 2014 08:45:20),0,TRUE,FALSE,4,TRUE
"409","A1CXXG7SJUHRN1","Apr 22 2014","08:45:20",9,"Social","Zero",4,2,"Same",1,"Novel58",3,"Novel58",3,1900,"eyes_down_right",2,1,0,0,(Apr 22 2014 08:45:20),0,TRUE,FALSE,4,TRUE
"410","A1CXXG7SJUHRN1","Apr 22 2014","08:45:20",10,"Social","Zero",4,2,"Same",1,"Novel58",3,"Novel58",3,1245,"eyescenter",-1,0,1,0,(Apr 22 2014 08:45:20),0,TRUE,FALSE,4,TRUE
"411","A1CXXG7SJUHRN1","Apr 22 2014","08:45:20",11,"Social","Zero",4,3,"Switch",0,"Novel48",2,"Novel76",0,2613,"eyes_down_left",1,1,0,0,(Apr 22 2014 08:45:20),0,TRUE,FALSE,4,FALSE
"412","A1CXXG7SJUHRN1","Apr 22 2014","08:45:20",12,"Social","Zero",4,3,"Switch",0,"Novel63",2,"Novel76",0,3766,"eyescenter",-1,0,1,0,(Apr 22 2014 08:45:20),0,TRUE,FALSE,4,FALSE
"413","A1CXXG7SJUHRN1","Apr 22 2014","08:45:20",13,"Social","Zero",4,4,"Same",0,"Novel127",1,"Novel127",1,2525,"eyes_left",0,1,0,0,(Apr 22 2014 08:45:20),0,TRUE,FALSE,4,TRUE
"414","A1CXXG7SJUHRN1","Apr 22 2014","08:45:20",14,"Social","Zero",4,4,"Same",0,"Novel127",0,"Novel127",1,1756,"eyescenter",-1,0,1,0,(Apr 22 2014 08:45:20),0,TRUE,FALSE,4,TRUE
"415","A1CXXG7SJUHRN1","Apr 22 2014","08:45:20",15,"Social","Zero",4,5,"Switch",0,"Novel7",3,"Novel98",0,2315,"eyes_down_left",1,1,0,0,(Apr 22 2014 08:45:20),0,TRUE,FALSE,4,FALSE
"416","A1CXXG7SJUHRN1","Apr 22 2014","08:45:20",16,"Social","Zero",4,5,"Switch",0,"Novel64",3,"Novel98",0,4715,"eyescenter",-1,0,1,0,(Apr 22 2014 08:45:20),0,TRUE,FALSE,4,FALSE
"417","A1CXXG7SJUHRN1","Apr 22 2014","08:45:20",17,"Social","Zero",4,6,"Same",0,"Novel11",2,"Novel11",2,1814,"eyes_down_left",1,1,0,0,(Apr 22 2014 08:45:20),0,TRUE,FALSE,4,TRUE
"418","A1CXXG7SJUHRN1","Apr 22 2014","08:45:20",18,"Social","Zero",4,6,"Same",0,"Novel11",0,"Novel11",2,692,"eyescenter",-1,0,1,0,(Apr 22 2014 08:45:20),0,TRUE,FALSE,4,TRUE
"419","A1CXXG7SJUHRN1","Apr 22 2014","08:45:20",19,"Social","Zero",4,7,"Switch",1,"Novel88",2,"Novel123",1,1652,"eyes_down_right",2,1,0,0,(Apr 22 2014 08:45:20),0,TRUE,FALSE,4,FALSE
"420","A1CXXG7SJUHRN1","Apr 22 2014","08:45:20",20,"Social","Zero",4,7,"Switch",1,"Novel89",2,"Novel123",1,3475,"eyescenter",-1,0,1,0,(Apr 22 2014 08:45:20),0,TRUE,FALSE,4,FALSE
"421","A1D4XBPYMV5GP0","Apr 22 2014","14:55:21",1,"Social","Seven",4,0,"Same",0,"squirrel",0,"",0,4751,"eyescenter",-1,0,0,1,(Apr 22 2014 14:55:21),7,TRUE,FALSE,4,FALSE
"422","A1D4XBPYMV5GP0","Apr 22 2014","14:55:21",2,"Social","Seven",4,0,"Same",0,"squirrel",0,"",0,2554,"eyescenter",-1,0,0,1,(Apr 22 2014 14:55:21),7,TRUE,FALSE,4,FALSE
"423","A1D4XBPYMV5GP0","Apr 22 2014","14:55:21",3,"Social","Seven",4,0,"Same",0,"tomato",1,"",0,1829,"eyescenter",-1,0,0,1,(Apr 22 2014 14:55:21),7,TRUE,FALSE,4,FALSE
"424","A1D4XBPYMV5GP0","Apr 22 2014","14:55:21",4,"Social","Seven",4,0,"Same",0,"tomato",2,"",0,1126,"eyescenter",-1,0,0,1,(Apr 22 2014 14:55:21),7,TRUE,FALSE,4,FALSE
"425","A1D4XBPYMV5GP0","Apr 22 2014","14:55:21",5,"Social","Seven",4,0,"Same",0,"Novel93",0,"Novel93",0,10658,"eyes_left",0,1,0,0,(Apr 22 2014 14:55:21),7,TRUE,FALSE,4,TRUE
"426","A1D4XBPYMV5GP0","Apr 22 2014","14:55:21",6,"Social","Seven",4,1,"Switch",0,"Novel9",1,"Novel8",3,4163,"eyes_down_left",1,1,0,0,(Apr 22 2014 14:55:21),7,TRUE,FALSE,4,FALSE
"427","A1D4XBPYMV5GP0","Apr 22 2014","14:55:21",7,"Social","Seven",4,2,"Same",0,"Novel77",0,"Novel77",0,3458,"eyes_left",0,1,0,0,(Apr 22 2014 14:55:21),7,TRUE,FALSE,4,TRUE
"428","A1D4XBPYMV5GP0","Apr 22 2014","14:55:21",8,"Social","Seven",4,3,"Switch",1,"Novel114",3,"Novel122",2,2860,"eyes_right",3,1,0,0,(Apr 22 2014 14:55:21),7,TRUE,FALSE,4,FALSE
"429","A1D4XBPYMV5GP0","Apr 22 2014","14:55:21",9,"Social","Seven",4,4,"Same",1,"Novel90",2,"Novel90",2,1517,"eyes_down_right",2,1,0,0,(Apr 22 2014 14:55:21),7,TRUE,FALSE,4,TRUE
"430","A1D4XBPYMV5GP0","Apr 22 2014","14:55:21",10,"Social","Seven",4,5,"Switch",1,"Novel129",2,"Novel51",0,1330,"eyes_down_right",2,1,0,0,(Apr 22 2014 14:55:21),7,TRUE,FALSE,4,FALSE
"431","A1D4XBPYMV5GP0","Apr 22 2014","14:55:21",11,"Social","Seven",4,6,"Same",1,"Novel89",1,"Novel89",1,1278,"eyes_down_left",1,1,0,0,(Apr 22 2014 14:55:21),7,TRUE,FALSE,4,TRUE
"432","A1D4XBPYMV5GP0","Apr 22 2014","14:55:21",12,"Social","Seven",4,7,"Switch",0,"Novel28",0,"Novel137",3,1421,"eyes_left",0,1,0,0,(Apr 22 2014 14:55:21),7,TRUE,FALSE,4,FALSE
"433","A1D4XBPYMV5GP0","Apr 22 2014","14:55:21",13,"Social","Seven",4,0,"Same",0,"Novel47",1,"Novel93",0,4284,"eyescenter",-1,0,1,0,(Apr 22 2014 14:55:21),7,TRUE,TRUE,4,FALSE
"434","A1D4XBPYMV5GP0","Apr 22 2014","14:55:21",14,"Social","Seven",4,1,"Switch",0,"Novel121",2,"Novel8",3,1769,"eyescenter",-1,0,1,0,(Apr 22 2014 14:55:21),7,TRUE,FALSE,4,FALSE
"435","A1D4XBPYMV5GP0","Apr 22 2014","14:55:21",15,"Social","Seven",4,2,"Same",0,"Novel77",3,"Novel77",0,1732,"eyescenter",-1,0,1,0,(Apr 22 2014 14:55:21),7,TRUE,FALSE,4,TRUE
"436","A1D4XBPYMV5GP0","Apr 22 2014","14:55:21",16,"Social","Seven",4,3,"Switch",1,"Novel5",1,"Novel122",2,3798,"eyescenter",-1,0,1,0,(Apr 22 2014 14:55:21),7,TRUE,FALSE,4,FALSE
"437","A1D4XBPYMV5GP0","Apr 22 2014","14:55:21",17,"Social","Seven",4,4,"Same",1,"Novel90",2,"Novel90",2,1425,"eyescenter",-1,0,1,0,(Apr 22 2014 14:55:21),7,TRUE,FALSE,4,TRUE
"438","A1D4XBPYMV5GP0","Apr 22 2014","14:55:21",18,"Social","Seven",4,5,"Switch",1,"Novel51",0,"Novel51",0,2877,"eyescenter",-1,0,1,0,(Apr 22 2014 14:55:21),7,TRUE,FALSE,4,TRUE
"439","A1D4XBPYMV5GP0","Apr 22 2014","14:55:21",19,"Social","Seven",4,6,"Same",1,"Novel89",1,"Novel89",1,1193,"eyescenter",-1,0,1,0,(Apr 22 2014 14:55:21),7,TRUE,FALSE,4,TRUE
"440","A1D4XBPYMV5GP0","Apr 22 2014","14:55:21",20,"Social","Seven",4,7,"Switch",0,"Novel137",1,"Novel137",3,4937,"eyescenter",-1,0,1,0,(Apr 22 2014 14:55:21),7,TRUE,FALSE,4,TRUE
"441","A1DGT3D07TLHCD","Apr 22 2014","01:01:01",1,"Social","Three",4,0,"Switch",1,"squirrel",0,"",0,16415,"eyescenter",-1,0,0,1,(Apr 22 2014 01:01:01),3,TRUE,FALSE,4,FALSE
"442","A1DGT3D07TLHCD","Apr 22 2014","01:01:01",2,"Social","Three",4,0,"Switch",1,"squirrel",0,"",0,1479,"eyescenter",-1,0,0,1,(Apr 22 2014 01:01:01),3,TRUE,FALSE,4,FALSE
"443","A1DGT3D07TLHCD","Apr 22 2014","01:01:01",3,"Social","Three",4,0,"Switch",1,"tomato",1,"",0,1082,"eyescenter",-1,0,0,1,(Apr 22 2014 01:01:01),3,TRUE,FALSE,4,FALSE
"444","A1DGT3D07TLHCD","Apr 22 2014","01:01:01",4,"Social","Three",4,0,"Switch",1,"tomato",2,"",0,955,"eyescenter",-1,0,0,1,(Apr 22 2014 01:01:01),3,TRUE,FALSE,4,FALSE
"445","A1DGT3D07TLHCD","Apr 22 2014","01:01:01",5,"Social","Three",4,0,"Switch",1,"Novel92",2,"Novel60",1,4294,"eyes_down_left",1,1,0,0,(Apr 22 2014 01:01:01),3,TRUE,FALSE,4,FALSE
"446","A1DGT3D07TLHCD","Apr 22 2014","01:01:01",6,"Social","Three",4,1,"Same",1,"Novel112",0,"Novel112",0,5332,"eyes_down_left",1,1,0,0,(Apr 22 2014 01:01:01),3,TRUE,FALSE,4,TRUE
"447","A1DGT3D07TLHCD","Apr 22 2014","01:01:01",7,"Social","Three",4,2,"Switch",0,"Novel6",3,"Novel31",1,5457,"eyes_down_right",2,1,0,0,(Apr 22 2014 01:01:01),3,TRUE,FALSE,4,FALSE
"448","A1DGT3D07TLHCD","Apr 22 2014","01:01:01",8,"Social","Three",4,3,"Same",1,"Novel94",2,"Novel94",2,2875,"eyes_left",0,1,0,0,(Apr 22 2014 01:01:01),3,TRUE,FALSE,4,TRUE
"449","A1DGT3D07TLHCD","Apr 22 2014","01:01:01",9,"Social","Three",4,0,"Switch",1,"Novel128",0,"Novel60",1,4396,"eyescenter",-1,0,1,0,(Apr 22 2014 01:01:01),3,TRUE,TRUE,4,FALSE
"450","A1DGT3D07TLHCD","Apr 22 2014","01:01:01",10,"Social","Three",4,1,"Same",1,"Novel112",0,"Novel112",0,4434,"eyescenter",-1,0,1,0,(Apr 22 2014 01:01:01),3,TRUE,FALSE,4,TRUE
"451","A1DGT3D07TLHCD","Apr 22 2014","01:01:01",11,"Social","Three",4,2,"Switch",0,"Novel83",1,"Novel31",1,3402,"eyescenter",-1,0,1,0,(Apr 22 2014 01:01:01),3,TRUE,FALSE,4,FALSE
"452","A1DGT3D07TLHCD","Apr 22 2014","01:01:01",12,"Social","Three",4,3,"Same",1,"Novel79",0,"Novel94",2,6756,"eyescenter",-1,0,1,0,(Apr 22 2014 01:01:01),3,TRUE,FALSE,4,FALSE
"453","A1DGT3D07TLHCD","Apr 22 2014","01:01:01",13,"Social","Three",4,4,"Switch",0,"Novel40",1,"Novel9",2,5027,"eyes_down_left",1,1,0,0,(Apr 22 2014 01:01:01),3,TRUE,FALSE,4,FALSE
"454","A1DGT3D07TLHCD","Apr 22 2014","01:01:01",14,"Social","Three",4,5,"Same",0,"Novel46",0,"Novel46",0,4854,"eyes_right",3,1,0,0,(Apr 22 2014 01:01:01),3,TRUE,FALSE,4,TRUE
"455","A1DGT3D07TLHCD","Apr 22 2014","01:01:01",15,"Social","Three",4,6,"Switch",1,"Novel12",2,"Novel53",0,4848,"eyes_down_right",2,1,0,0,(Apr 22 2014 01:01:01),3,TRUE,FALSE,4,FALSE
"456","A1DGT3D07TLHCD","Apr 22 2014","01:01:01",16,"Social","Three",4,7,"Same",0,"Novel108",3,"Novel108",3,3445,"eyes_right",3,1,0,0,(Apr 22 2014 01:01:01),3,TRUE,FALSE,4,TRUE
"457","A1DGT3D07TLHCD","Apr 22 2014","01:01:01",17,"Social","Three",4,4,"Switch",0,"Novel132",1,"Novel9",2,6231,"eyescenter",-1,0,1,0,(Apr 22 2014 01:01:01),3,TRUE,FALSE,4,FALSE
"458","A1DGT3D07TLHCD","Apr 22 2014","01:01:01",18,"Social","Three",4,5,"Same",0,"Novel25",0,"Novel46",0,6292,"eyescenter",-1,0,1,0,(Apr 22 2014 01:01:01),3,TRUE,FALSE,4,FALSE
"459","A1DGT3D07TLHCD","Apr 22 2014","01:01:01",19,"Social","Three",4,6,"Switch",1,"Novel53",0,"Novel53",0,3898,"eyescenter",-1,0,1,0,(Apr 22 2014 01:01:01),3,TRUE,FALSE,4,TRUE
"460","A1DGT3D07TLHCD","Apr 22 2014","01:01:01",20,"Social","Three",4,7,"Same",0,"Novel3",1,"Novel108",3,4472,"eyescenter",-1,0,1,0,(Apr 22 2014 01:01:01),3,TRUE,FALSE,4,FALSE
"461","A1EITLFAMKA61U","Apr 22 2014","01:25:02",1,"Social","Seven",4,0,"Switch",1,"squirrel",0,"",0,7891,"eyescenter",-1,0,0,1,(Apr 22 2014 01:25:02),7,TRUE,FALSE,4,FALSE
"462","A1EITLFAMKA61U","Apr 22 2014","01:25:02",2,"Social","Seven",4,0,"Switch",1,"squirrel",0,"",0,1162,"eyescenter",-1,0,0,1,(Apr 22 2014 01:25:02),7,TRUE,FALSE,4,FALSE
"463","A1EITLFAMKA61U","Apr 22 2014","01:25:02",3,"Social","Seven",4,0,"Switch",1,"tomato",1,"",0,1204,"eyescenter",-1,0,0,1,(Apr 22 2014 01:25:02),7,TRUE,FALSE,4,FALSE
"464","A1EITLFAMKA61U","Apr 22 2014","01:25:02",4,"Social","Seven",4,0,"Switch",1,"tomato",2,"",0,1035,"eyescenter",-1,0,0,1,(Apr 22 2014 01:25:02),7,TRUE,FALSE,4,FALSE
"465","A1EITLFAMKA61U","Apr 22 2014","01:25:02",5,"Social","Seven",4,0,"Switch",1,"Novel27",3,"Novel94",1,6192,"eyes_right",3,1,0,0,(Apr 22 2014 01:25:02),7,TRUE,FALSE,4,FALSE
"466","A1EITLFAMKA61U","Apr 22 2014","01:25:02",6,"Social","Seven",4,1,"Same",1,"Novel129",3,"Novel129",3,1168,"eyes_right",3,1,0,0,(Apr 22 2014 01:25:02),7,TRUE,FALSE,4,TRUE
"467","A1EITLFAMKA61U","Apr 22 2014","01:25:02",7,"Social","Seven",4,2,"Switch",1,"Novel62",1,"Novel26",3,1488,"eyes_down_left",1,1,0,0,(Apr 22 2014 01:25:02),7,TRUE,FALSE,4,FALSE
"468","A1EITLFAMKA61U","Apr 22 2014","01:25:02",8,"Social","Seven",4,3,"Same",0,"Novel115",1,"Novel115",1,1436,"eyes_down_left",1,1,0,0,(Apr 22 2014 01:25:02),7,TRUE,FALSE,4,TRUE
"469","A1EITLFAMKA61U","Apr 22 2014","01:25:02",9,"Social","Seven",4,4,"Switch",0,"Novel17",3,"Novel58",0,1199,"eyes_right",3,1,0,0,(Apr 22 2014 01:25:02),7,TRUE,FALSE,4,FALSE
"470","A1EITLFAMKA61U","Apr 22 2014","01:25:02",10,"Social","Seven",4,5,"Same",1,"Novel16",3,"Novel16",3,1271,"eyes_right",3,1,0,0,(Apr 22 2014 01:25:02),7,TRUE,FALSE,4,TRUE
"471","A1EITLFAMKA61U","Apr 22 2014","01:25:02",11,"Social","Seven",4,6,"Switch",0,"Novel46",0,"Novel105",1,1194,"eyes_left",0,1,0,0,(Apr 22 2014 01:25:02),7,TRUE,FALSE,4,FALSE
"472","A1EITLFAMKA61U","Apr 22 2014","01:25:02",12,"Social","Seven",4,7,"Same",0,"Novel133",1,"Novel133",1,865,"eyes_down_left",1,1,0,0,(Apr 22 2014 01:25:02),7,TRUE,FALSE,4,TRUE
"473","A1EITLFAMKA61U","Apr 22 2014","01:25:02",13,"Social","Seven",4,0,"Switch",1,"Novel118",2,"Novel94",1,5659,"eyescenter",-1,0,1,0,(Apr 22 2014 01:25:02),7,TRUE,TRUE,4,FALSE
"474","A1EITLFAMKA61U","Apr 22 2014","01:25:02",14,"Social","Seven",4,1,"Same",1,"Novel129",3,"Novel129",3,1637,"eyescenter",-1,0,1,0,(Apr 22 2014 01:25:02),7,TRUE,FALSE,4,TRUE
"475","A1EITLFAMKA61U","Apr 22 2014","01:25:02",15,"Social","Seven",4,2,"Switch",1,"Novel26",3,"Novel26",3,2648,"eyescenter",-1,0,1,0,(Apr 22 2014 01:25:02),7,TRUE,FALSE,4,TRUE
"476","A1EITLFAMKA61U","Apr 22 2014","01:25:02",16,"Social","Seven",4,3,"Same",0,"Novel115",0,"Novel115",1,1669,"eyescenter",-1,0,1,0,(Apr 22 2014 01:25:02),7,TRUE,FALSE,4,TRUE
"477","A1EITLFAMKA61U","Apr 22 2014","01:25:02",17,"Social","Seven",4,4,"Switch",0,"Novel76",3,"Novel58",0,2181,"eyescenter",-1,0,1,0,(Apr 22 2014 01:25:02),7,TRUE,FALSE,4,FALSE
"478","A1EITLFAMKA61U","Apr 22 2014","01:25:02",18,"Social","Seven",4,5,"Same",1,"Novel16",3,"Novel16",3,2422,"eyescenter",-1,0,1,0,(Apr 22 2014 01:25:02),7,TRUE,FALSE,4,TRUE
"479","A1EITLFAMKA61U","Apr 22 2014","01:25:02",19,"Social","Seven",4,6,"Switch",0,"Novel85",3,"Novel105",1,1493,"eyescenter",-1,0,1,0,(Apr 22 2014 01:25:02),7,TRUE,FALSE,4,FALSE
"480","A1EITLFAMKA61U","Apr 22 2014","01:25:02",20,"Social","Seven",4,7,"Same",0,"Novel133",2,"Novel133",1,973,"eyescenter",-1,0,1,0,(Apr 22 2014 01:25:02),7,TRUE,FALSE,4,TRUE
"481","A1FKM9IOGKIVSB","Apr 19 2014","15:33:15",1,"Social","Zero",4,0,"Switch",1,"squirrel",0,"",0,7830,"eyescenter",-1,0,0,1,(Apr 19 2014 15:33:15),0,TRUE,FALSE,4,FALSE
"482","A1FKM9IOGKIVSB","Apr 19 2014","15:33:15",2,"Social","Zero",4,0,"Switch",1,"squirrel",0,"",0,3156,"eyescenter",-1,0,0,1,(Apr 19 2014 15:33:15),0,TRUE,FALSE,4,FALSE
"483","A1FKM9IOGKIVSB","Apr 19 2014","15:33:15",3,"Social","Zero",4,0,"Switch",1,"tomato",1,"",0,6094,"eyescenter",-1,0,0,1,(Apr 19 2014 15:33:15),0,TRUE,FALSE,4,FALSE
"484","A1FKM9IOGKIVSB","Apr 19 2014","15:33:15",4,"Social","Zero",4,0,"Switch",1,"tomato",2,"",0,4995,"eyescenter",-1,0,0,1,(Apr 19 2014 15:33:15),0,TRUE,FALSE,4,FALSE
"485","A1FKM9IOGKIVSB","Apr 19 2014","15:33:15",5,"Social","Zero",4,0,"Switch",1,"Novel118",3,"Novel93",1,6813,"eyes_down_left",1,1,0,0,(Apr 19 2014 15:33:15),0,TRUE,FALSE,4,FALSE
"486","A1FKM9IOGKIVSB","Apr 19 2014","15:33:15",6,"Social","Zero",4,0,"Switch",1,"Novel73",3,"Novel93",1,5900,"eyescenter",-1,0,1,0,(Apr 19 2014 15:33:15),0,TRUE,TRUE,4,FALSE
"487","A1FKM9IOGKIVSB","Apr 19 2014","15:33:15",7,"Social","Zero",4,1,"Same",1,"Novel81",2,"Novel81",2,6374,"eyes_down_right",2,1,0,0,(Apr 19 2014 15:33:15),0,TRUE,FALSE,4,TRUE
"488","A1FKM9IOGKIVSB","Apr 19 2014","15:33:15",8,"Social","Zero",4,1,"Same",1,"Novel81",2,"Novel81",2,1460,"eyescenter",-1,0,1,0,(Apr 19 2014 15:33:15),0,TRUE,FALSE,4,TRUE
"489","A1FKM9IOGKIVSB","Apr 19 2014","15:33:15",9,"Social","Zero",4,2,"Switch",1,"Novel86",2,"Novel36",0,4319,"eyes_right",3,1,0,0,(Apr 19 2014 15:33:15),0,TRUE,FALSE,4,FALSE
"490","A1FKM9IOGKIVSB","Apr 19 2014","15:33:15",10,"Social","Zero",4,2,"Switch",1,"Novel24",2,"Novel36",0,2717,"eyescenter",-1,0,1,0,(Apr 19 2014 15:33:15),0,TRUE,FALSE,4,FALSE
"491","A1FKM9IOGKIVSB","Apr 19 2014","15:33:15",11,"Social","Zero",4,3,"Same",1,"Novel120",3,"Novel120",3,3924,"eyes_down_left",1,1,0,0,(Apr 19 2014 15:33:15),0,TRUE,FALSE,4,TRUE
"492","A1FKM9IOGKIVSB","Apr 19 2014","15:33:15",12,"Social","Zero",4,3,"Same",1,"Novel120",3,"Novel120",3,118,"eyescenter",-1,0,1,0,(Apr 19 2014 15:33:15),0,TRUE,FALSE,4,TRUE
"493","A1FKM9IOGKIVSB","Apr 19 2014","15:33:15",13,"Social","Zero",4,4,"Switch",0,"Novel87",3,"Novel12",2,7196,"eyes_left",0,1,0,0,(Apr 19 2014 15:33:15),0,TRUE,FALSE,4,FALSE
"494","A1FKM9IOGKIVSB","Apr 19 2014","15:33:15",14,"Social","Zero",4,4,"Switch",0,"Novel7",1,"Novel12",2,2627,"eyescenter",-1,0,1,0,(Apr 19 2014 15:33:15),0,TRUE,FALSE,4,FALSE
"495","A1FKM9IOGKIVSB","Apr 19 2014","15:33:15",15,"Social","Zero",4,5,"Same",0,"Novel10",1,"Novel10",1,2229,"eyes_down_left",1,1,0,0,(Apr 19 2014 15:33:15),0,TRUE,FALSE,4,TRUE
"496","A1FKM9IOGKIVSB","Apr 19 2014","15:33:15",16,"Social","Zero",4,5,"Same",0,"Novel10",3,"Novel10",1,1129,"eyescenter",-1,0,1,0,(Apr 19 2014 15:33:15),0,TRUE,FALSE,4,TRUE
"497","A1FKM9IOGKIVSB","Apr 19 2014","15:33:15",17,"Social","Zero",4,6,"Switch",0,"Novel27",1,"Novel64",3,2381,"eyes_right",3,1,0,0,(Apr 19 2014 15:33:15),0,TRUE,FALSE,4,FALSE
"498","A1FKM9IOGKIVSB","Apr 19 2014","15:33:15",18,"Social","Zero",4,6,"Switch",0,"Novel128",3,"Novel64",3,3020,"eyescenter",-1,0,1,0,(Apr 19 2014 15:33:15),0,TRUE,FALSE,4,FALSE
"499","A1FKM9IOGKIVSB","Apr 19 2014","15:33:15",19,"Social","Zero",4,7,"Same",0,"Novel125",0,"Novel125",0,2645,"eyes_down_right",2,1,0,0,(Apr 19 2014 15:33:15),0,TRUE,FALSE,4,TRUE
"500","A1FKM9IOGKIVSB","Apr 19 2014","15:33:15",20,"Social","Zero",4,7,"Same",0,"Novel125",2,"Novel125",0,908,"eyescenter",-1,0,1,0,(Apr 19 2014 15:33:15),0,TRUE,FALSE,4,TRUE
"501","A1FZ3BW8I5T2YD","Apr 22 2014","11:28:33",1,"Social","Seven",4,0,"Switch",1,"squirrel",0,"",0,1306,"eyescenter",-1,0,0,1,(Apr 22 2014 11:28:33),7,TRUE,FALSE,4,FALSE
"502","A1FZ3BW8I5T2YD","Apr 22 2014","11:28:33",2,"Social","Seven",4,0,"Switch",1,"squirrel",0,"",0,1099,"eyescenter",-1,0,0,1,(Apr 22 2014 11:28:33),7,TRUE,FALSE,4,FALSE
"503","A1FZ3BW8I5T2YD","Apr 22 2014","11:28:33",3,"Social","Seven",4,0,"Switch",1,"tomato",1,"",0,1210,"eyescenter",-1,0,0,1,(Apr 22 2014 11:28:33),7,TRUE,FALSE,4,FALSE
"504","A1FZ3BW8I5T2YD","Apr 22 2014","11:28:33",4,"Social","Seven",4,0,"Switch",1,"tomato",2,"",0,1204,"eyescenter",-1,0,0,1,(Apr 22 2014 11:28:33),7,TRUE,FALSE,4,FALSE
"505","A1FZ3BW8I5T2YD","Apr 22 2014","11:28:33",5,"Social","Seven",4,0,"Switch",1,"Novel11",0,"Novel25",1,4518,"eyes_left",0,1,0,0,(Apr 22 2014 11:28:33),7,TRUE,FALSE,4,FALSE
"506","A1FZ3BW8I5T2YD","Apr 22 2014","11:28:33",6,"Social","Seven",4,1,"Same",1,"Novel17",2,"Novel17",2,2041,"eyes_left",0,1,0,0,(Apr 22 2014 11:28:33),7,TRUE,FALSE,4,TRUE
"507","A1FZ3BW8I5T2YD","Apr 22 2014","11:28:33",7,"Social","Seven",4,2,"Switch",0,"Novel108",2,"Novel133",3,2968,"eyes_down_right",2,1,0,0,(Apr 22 2014 11:28:33),7,TRUE,FALSE,4,FALSE
"508","A1FZ3BW8I5T2YD","Apr 22 2014","11:28:33",8,"Social","Seven",4,3,"Same",0,"Novel48",3,"Novel48",3,2632,"eyes_down_right",2,1,0,0,(Apr 22 2014 11:28:33),7,TRUE,FALSE,4,TRUE
"509","A1FZ3BW8I5T2YD","Apr 22 2014","11:28:33",9,"Social","Seven",4,4,"Switch",1,"Novel63",1,"Novel3",2,2299,"eyes_right",3,1,0,0,(Apr 22 2014 11:28:33),7,TRUE,FALSE,4,FALSE
"510","A1FZ3BW8I5T2YD","Apr 22 2014","11:28:33",10,"Social","Seven",4,5,"Same",1,"Novel138",1,"Novel138",1,2298,"eyes_down_right",2,1,0,0,(Apr 22 2014 11:28:33),7,TRUE,FALSE,4,TRUE
"511","A1FZ3BW8I5T2YD","Apr 22 2014","11:28:33",11,"Social","Seven",4,6,"Switch",0,"Novel50",0,"Novel57",2,1249,"eyes_right",3,1,0,0,(Apr 22 2014 11:28:33),7,TRUE,FALSE,4,FALSE
"512","A1FZ3BW8I5T2YD","Apr 22 2014","11:28:33",12,"Social","Seven",4,7,"Same",0,"Novel113",2,"Novel113",2,1327,"eyes_down_right",2,1,0,0,(Apr 22 2014 11:28:33),7,TRUE,FALSE,4,TRUE
"513","A1FZ3BW8I5T2YD","Apr 22 2014","11:28:33",13,"Social","Seven",4,0,"Switch",1,"Novel25",1,"Novel25",1,3007,"eyescenter",-1,0,1,0,(Apr 22 2014 11:28:33),7,TRUE,TRUE,4,TRUE
"514","A1FZ3BW8I5T2YD","Apr 22 2014","11:28:33",14,"Social","Seven",4,1,"Same",1,"Novel17",2,"Novel17",2,1133,"eyescenter",-1,0,1,0,(Apr 22 2014 11:28:33),7,TRUE,FALSE,4,TRUE
"515","A1FZ3BW8I5T2YD","Apr 22 2014","11:28:33",15,"Social","Seven",4,2,"Switch",0,"Novel133",0,"Novel133",3,2976,"eyescenter",-1,0,1,0,(Apr 22 2014 11:28:33),7,TRUE,FALSE,4,TRUE
"516","A1FZ3BW8I5T2YD","Apr 22 2014","11:28:33",16,"Social","Seven",4,3,"Same",0,"Novel117",3,"Novel48",3,2743,"eyescenter",-1,0,1,0,(Apr 22 2014 11:28:33),7,TRUE,FALSE,4,FALSE
"517","A1FZ3BW8I5T2YD","Apr 22 2014","11:28:33",17,"Social","Seven",4,4,"Switch",1,"Novel21",1,"Novel3",2,2389,"eyescenter",-1,0,1,0,(Apr 22 2014 11:28:33),7,TRUE,FALSE,4,FALSE
"518","A1FZ3BW8I5T2YD","Apr 22 2014","11:28:33",18,"Social","Seven",4,5,"Same",1,"Novel138",1,"Novel138",1,1164,"eyescenter",-1,0,1,0,(Apr 22 2014 11:28:33),7,TRUE,FALSE,4,TRUE
"519","A1FZ3BW8I5T2YD","Apr 22 2014","11:28:33",19,"Social","Seven",4,6,"Switch",0,"Novel64",2,"Novel57",2,1844,"eyescenter",-1,0,1,0,(Apr 22 2014 11:28:33),7,TRUE,FALSE,4,FALSE
"520","A1FZ3BW8I5T2YD","Apr 22 2014","11:28:33",20,"Social","Seven",4,7,"Same",0,"Novel113",1,"Novel113",2,1305,"eyescenter",-1,0,1,0,(Apr 22 2014 11:28:33),7,TRUE,FALSE,4,TRUE
"521","A1GV0UZU0T2ORS","Apr 22 2014","06:50:24",1,"Social","Seven",4,0,"Same",0,"squirrel",0,"",0,5121,"eyescenter",-1,0,0,1,(Apr 22 2014 06:50:24),7,TRUE,FALSE,4,FALSE
"522","A1GV0UZU0T2ORS","Apr 22 2014","06:50:24",2,"Social","Seven",4,0,"Same",0,"squirrel",0,"",0,1444,"eyescenter",-1,0,0,1,(Apr 22 2014 06:50:24),7,TRUE,FALSE,4,FALSE
"523","A1GV0UZU0T2ORS","Apr 22 2014","06:50:24",3,"Social","Seven",4,0,"Same",0,"tomato",1,"",0,1117,"eyescenter",-1,0,0,1,(Apr 22 2014 06:50:24),7,TRUE,FALSE,4,FALSE
"524","A1GV0UZU0T2ORS","Apr 22 2014","06:50:24",4,"Social","Seven",4,0,"Same",0,"tomato",2,"",0,1291,"eyescenter",-1,0,0,1,(Apr 22 2014 06:50:24),7,TRUE,FALSE,4,FALSE
"525","A1GV0UZU0T2ORS","Apr 22 2014","06:50:24",5,"Social","Seven",4,0,"Same",0,"Novel24",3,"Novel24",3,8060,"eyes_left",0,1,0,0,(Apr 22 2014 06:50:24),7,TRUE,FALSE,4,TRUE
"526","A1GV0UZU0T2ORS","Apr 22 2014","06:50:24",6,"Social","Seven",4,1,"Switch",1,"Novel72",1,"Novel13",3,7469,"eyes_down_right",2,1,0,0,(Apr 22 2014 06:50:24),7,TRUE,FALSE,4,FALSE
"527","A1GV0UZU0T2ORS","Apr 22 2014","06:50:24",7,"Social","Seven",4,2,"Same",1,"Novel50",2,"Novel50",2,4528,"eyes_right",3,1,0,0,(Apr 22 2014 06:50:24),7,TRUE,FALSE,4,TRUE
"528","A1GV0UZU0T2ORS","Apr 22 2014","06:50:24",8,"Social","Seven",4,3,"Switch",0,"Novel76",0,"Novel108",3,5648,"eyes_right",3,1,0,0,(Apr 22 2014 06:50:24),7,TRUE,FALSE,4,FALSE
"529","A1GV0UZU0T2ORS","Apr 22 2014","06:50:24",9,"Social","Seven",4,4,"Same",1,"Novel70",3,"Novel70",3,2188,"eyes_down_right",2,1,0,0,(Apr 22 2014 06:50:24),7,TRUE,FALSE,4,TRUE
"530","A1GV0UZU0T2ORS","Apr 22 2014","06:50:24",10,"Social","Seven",4,5,"Switch",0,"Novel8",1,"Novel61",0,2549,"eyes_down_right",2,1,0,0,(Apr 22 2014 06:50:24),7,TRUE,FALSE,4,FALSE
"531","A1GV0UZU0T2ORS","Apr 22 2014","06:50:24",11,"Social","Seven",4,6,"Same",0,"Novel83",0,"Novel83",0,2295,"eyes_left",0,1,0,0,(Apr 22 2014 06:50:24),7,TRUE,FALSE,4,TRUE
"532","A1GV0UZU0T2ORS","Apr 22 2014","06:50:24",12,"Social","Seven",4,7,"Switch",1,"Novel2",2,"Novel59",0,1530,"eyes_down_right",2,1,0,0,(Apr 22 2014 06:50:24),7,TRUE,FALSE,4,FALSE
"533","A1GV0UZU0T2ORS","Apr 22 2014","06:50:24",13,"Social","Seven",4,0,"Same",0,"Novel41",1,"Novel24",3,2995,"eyescenter",-1,0,1,0,(Apr 22 2014 06:50:24),7,TRUE,TRUE,4,FALSE
"534","A1GV0UZU0T2ORS","Apr 22 2014","06:50:24",14,"Social","Seven",4,1,"Switch",1,"Novel95",0,"Novel13",3,2840,"eyescenter",-1,0,1,0,(Apr 22 2014 06:50:24),7,TRUE,FALSE,4,FALSE
"535","A1GV0UZU0T2ORS","Apr 22 2014","06:50:24",15,"Social","Seven",4,2,"Same",1,"Novel28",3,"Novel50",2,1740,"eyescenter",-1,0,1,0,(Apr 22 2014 06:50:24),7,TRUE,FALSE,4,FALSE
"536","A1GV0UZU0T2ORS","Apr 22 2014","06:50:24",16,"Social","Seven",4,3,"Switch",0,"Novel37",2,"Novel108",3,2235,"eyescenter",-1,0,1,0,(Apr 22 2014 06:50:24),7,TRUE,FALSE,4,FALSE
"537","A1GV0UZU0T2ORS","Apr 22 2014","06:50:24",17,"Social","Seven",4,4,"Same",1,"Novel120",0,"Novel70",3,3726,"eyescenter",-1,0,1,0,(Apr 22 2014 06:50:24),7,TRUE,FALSE,4,FALSE
"538","A1GV0UZU0T2ORS","Apr 22 2014","06:50:24",18,"Social","Seven",4,5,"Switch",0,"Novel135",0,"Novel61",0,2375,"eyescenter",-1,0,1,0,(Apr 22 2014 06:50:24),7,TRUE,FALSE,4,FALSE
"539","A1GV0UZU0T2ORS","Apr 22 2014","06:50:24",19,"Social","Seven",4,6,"Same",0,"Novel66",2,"Novel83",0,2422,"eyescenter",-1,0,1,0,(Apr 22 2014 06:50:24),7,TRUE,FALSE,4,FALSE
"540","A1GV0UZU0T2ORS","Apr 22 2014","06:50:24",20,"Social","Seven",4,7,"Switch",1,"Novel137",2,"Novel59",0,1825,"eyescenter",-1,0,1,0,(Apr 22 2014 06:50:24),7,TRUE,FALSE,4,FALSE
"541","A1H162QMRV01SA","Apr 19 2014","16:01:32",1,"Social","Three",4,0,"Switch",1,"squirrel",0,"",0,1946,"eyescenter",-1,0,0,1,(Apr 19 2014 16:01:32),3,TRUE,FALSE,4,FALSE
"542","A1H162QMRV01SA","Apr 19 2014","16:01:32",2,"Social","Three",4,0,"Switch",1,"squirrel",0,"",0,1634,"eyescenter",-1,0,0,1,(Apr 19 2014 16:01:32),3,TRUE,FALSE,4,FALSE
"543","A1H162QMRV01SA","Apr 19 2014","16:01:32",3,"Social","Three",4,0,"Switch",1,"tomato",1,"",0,1199,"eyescenter",-1,0,0,1,(Apr 19 2014 16:01:32),3,TRUE,FALSE,4,FALSE
"544","A1H162QMRV01SA","Apr 19 2014","16:01:32",4,"Social","Three",4,0,"Switch",1,"tomato",2,"",0,991,"eyescenter",-1,0,0,1,(Apr 19 2014 16:01:32),3,TRUE,FALSE,4,FALSE
"545","A1H162QMRV01SA","Apr 19 2014","16:01:32",5,"Social","Three",4,0,"Switch",1,"Novel126",0,"Novel72",1,3046,"eyes_right",3,1,0,0,(Apr 19 2014 16:01:32),3,TRUE,FALSE,4,FALSE
"546","A1H162QMRV01SA","Apr 19 2014","16:01:32",6,"Social","Three",4,1,"Same",0,"Novel88",3,"Novel88",3,2066,"eyes_right",3,1,0,0,(Apr 19 2014 16:01:32),3,TRUE,FALSE,4,TRUE
"547","A1H162QMRV01SA","Apr 19 2014","16:01:32",7,"Social","Three",4,2,"Switch",1,"Novel34",2,"Novel12",3,1906,"eyes_down_left",1,1,0,0,(Apr 19 2014 16:01:32),3,TRUE,FALSE,4,FALSE
"548","A1H162QMRV01SA","Apr 19 2014","16:01:32",8,"Social","Three",4,3,"Same",1,"Novel111",1,"Novel111",1,3358,"eyes_left",0,1,0,0,(Apr 19 2014 16:01:32),3,TRUE,FALSE,4,TRUE
"549","A1H162QMRV01SA","Apr 19 2014","16:01:32",9,"Social","Three",4,0,"Switch",1,"Novel72",1,"Novel72",1,5420,"eyescenter",-1,0,1,0,(Apr 19 2014 16:01:32),3,TRUE,TRUE,4,TRUE
"550","A1H162QMRV01SA","Apr 19 2014","16:01:32",10,"Social","Three",4,1,"Same",0,"Novel49",3,"Novel88",3,2766,"eyescenter",-1,0,1,0,(Apr 19 2014 16:01:32),3,TRUE,FALSE,4,FALSE
"551","A1H162QMRV01SA","Apr 19 2014","16:01:32",11,"Social","Three",4,2,"Switch",1,"Novel12",3,"Novel12",3,1994,"eyescenter",-1,0,1,0,(Apr 19 2014 16:01:32),3,TRUE,FALSE,4,TRUE
"552","A1H162QMRV01SA","Apr 19 2014","16:01:32",12,"Social","Three",4,3,"Same",1,"Novel13",0,"Novel111",1,2677,"eyescenter",-1,0,1,0,(Apr 19 2014 16:01:32),3,TRUE,FALSE,4,FALSE
"553","A1H162QMRV01SA","Apr 19 2014","16:01:32",13,"Social","Three",4,4,"Switch",0,"Novel137",2,"Novel43",3,3344,"eyes_left",0,1,0,0,(Apr 19 2014 16:01:32),3,TRUE,FALSE,4,FALSE
"554","A1H162QMRV01SA","Apr 19 2014","16:01:32",14,"Social","Three",4,5,"Same",0,"Novel82",3,"Novel82",3,1855,"eyes_right",3,1,0,0,(Apr 19 2014 16:01:32),3,TRUE,FALSE,4,TRUE
"555","A1H162QMRV01SA","Apr 19 2014","16:01:32",15,"Social","Three",4,6,"Switch",0,"Novel19",0,"Novel39",2,1498,"eyes_down_right",2,1,0,0,(Apr 19 2014 16:01:32),3,TRUE,FALSE,4,FALSE
"556","A1H162QMRV01SA","Apr 19 2014","16:01:32",16,"Social","Three",4,7,"Same",1,"Novel102",3,"Novel102",3,1998,"eyes_down_right",2,1,0,0,(Apr 19 2014 16:01:32),3,TRUE,FALSE,4,TRUE
"557","A1H162QMRV01SA","Apr 19 2014","16:01:32",17,"Social","Three",4,4,"Switch",0,"Novel43",1,"Novel43",3,2500,"eyescenter",-1,0,1,0,(Apr 19 2014 16:01:32),3,TRUE,FALSE,4,TRUE
"558","A1H162QMRV01SA","Apr 19 2014","16:01:32",18,"Social","Three",4,5,"Same",0,"Novel80",0,"Novel82",3,3056,"eyescenter",-1,0,1,0,(Apr 19 2014 16:01:32),3,TRUE,FALSE,4,FALSE
"559","A1H162QMRV01SA","Apr 19 2014","16:01:32",19,"Social","Three",4,6,"Switch",0,"Novel9",2,"Novel39",2,2930,"eyescenter",-1,0,1,0,(Apr 19 2014 16:01:32),3,TRUE,FALSE,4,FALSE
"560","A1H162QMRV01SA","Apr 19 2014","16:01:32",20,"Social","Three",4,7,"Same",1,"Novel102",3,"Novel102",3,3019,"eyescenter",-1,0,1,0,(Apr 19 2014 16:01:32),3,TRUE,FALSE,4,TRUE
"561","A1HQL1FCG3DL81","Apr 22 2014","12:06:23",1,"Social","Zero",4,0,"Switch",0,"squirrel",0,"",0,1742,"eyescenter",-1,0,0,1,(Apr 22 2014 12:06:23),0,TRUE,FALSE,4,FALSE
"562","A1HQL1FCG3DL81","Apr 22 2014","12:06:23",2,"Social","Zero",4,0,"Switch",0,"squirrel",0,"",0,999,"eyescenter",-1,0,0,1,(Apr 22 2014 12:06:23),0,TRUE,FALSE,4,FALSE
"563","A1HQL1FCG3DL81","Apr 22 2014","12:06:23",3,"Social","Zero",4,0,"Switch",0,"tomato",1,"",0,964,"eyescenter",-1,0,0,1,(Apr 22 2014 12:06:23),0,TRUE,FALSE,4,FALSE
"564","A1HQL1FCG3DL81","Apr 22 2014","12:06:23",4,"Social","Zero",4,0,"Switch",0,"tomato",2,"",0,905,"eyescenter",-1,0,0,1,(Apr 22 2014 12:06:23),0,TRUE,FALSE,4,FALSE
"565","A1HQL1FCG3DL81","Apr 22 2014","12:06:23",5,"Social","Zero",4,0,"Switch",0,"Novel31",0,"Novel125",1,1796,"eyes_left",0,1,0,0,(Apr 22 2014 12:06:23),0,TRUE,FALSE,4,FALSE
"566","A1HQL1FCG3DL81","Apr 22 2014","12:06:23",6,"Social","Zero",4,0,"Switch",0,"Novel107",1,"Novel125",1,5938,"eyescenter",-1,0,1,0,(Apr 22 2014 12:06:23),0,TRUE,TRUE,4,FALSE
"567","A1HQL1FCG3DL81","Apr 22 2014","12:06:23",7,"Social","Zero",4,1,"Same",1,"Novel75",0,"Novel75",0,1451,"eyes_left",0,1,0,0,(Apr 22 2014 12:06:23),0,TRUE,FALSE,4,TRUE
"568","A1HQL1FCG3DL81","Apr 22 2014","12:06:23",8,"Social","Zero",4,1,"Same",1,"Novel75",0,"Novel75",0,697,"eyescenter",-1,0,1,0,(Apr 22 2014 12:06:23),0,TRUE,FALSE,4,TRUE
"569","A1HQL1FCG3DL81","Apr 22 2014","12:06:23",9,"Social","Zero",4,2,"Switch",1,"Novel51",1,"Novel34",3,1183,"eyes_down_left",1,1,0,0,(Apr 22 2014 12:06:23),0,TRUE,FALSE,4,FALSE
"570","A1HQL1FCG3DL81","Apr 22 2014","12:06:23",10,"Social","Zero",4,2,"Switch",1,"Novel101",0,"Novel34",3,1441,"eyescenter",-1,0,1,0,(Apr 22 2014 12:06:23),0,TRUE,FALSE,4,FALSE
