"submit.date","submit.time","trial.num","gazeLength","condition","interval","numPic","browser","itemNum","trialType","samePos","chosen","chosenIdx","kept","keptIdx","rt","face","faceIdx","trial_cat","intervalNum","include","first.trial","numPicN","correct","subids"
"Dec 05 2014","12:00:52",1,"Live","No-socialFirst","Zero",4,"Chrome",0,"Switch",1,"squirrel",0,"",0,3184,"up-left-4sec","0","example",0,TRUE,FALSE,4,TRUE,"1"
"Dec 05 2014","12:00:52",2,"Live","No-socialFirst","Zero",4,"Chrome",0,"Switch",1,"squirrel",0,"",0,2975,"up-left-4sec","0","example",0,TRUE,FALSE,4,TRUE,"1"
"Dec 05 2014","12:00:52",3,"Live","No-socialFirst","Zero",4,"Chrome",0,"Switch",1,"tomato",1,"",0,2756,"up-right-4sec","1","example",0,TRUE,FALSE,4,TRUE,"1"
"Dec 05 2014","12:00:52",4,"Live","No-socialFirst","Zero",4,"Chrome",0,"Switch",1,"tomato",2,"",0,1950,"down-left-4sec","2","example",0,TRUE,FALSE,4,TRUE,"1"
"Dec 05 2014","12:00:52",5,"Live","No-socialFirst","Zero",4,"Chrome",0,"Switch",1,"Novel134",1,"Novel35",0,5650,"straight-ahead","-1","exposure",0,TRUE,FALSE,4,FALSE,"1"
"Dec 05 2014","12:00:52",6,"Live","No-socialFirst","Zero",4,"Chrome",0,"Switch",1,"Novel35",0,"Novel35",0,6358,"straight-ahead","-1","test",0,TRUE,TRUE,4,TRUE,"1"
"Dec 05 2014","12:00:52",7,"Live","No-socialFirst","Zero",4,"Chrome",1,"Same",0,"Novel20",1,"Novel20",1,3796,"straight-ahead","-1","exposure",0,TRUE,FALSE,4,FALSE,"1"
"Dec 05 2014","12:00:52",8,"Live","No-socialFirst","Zero",4,"Chrome",1,"Same",0,"Novel20",0,"Novel20",1,2013,"straight-ahead","-1","test",0,TRUE,FALSE,4,TRUE,"1"
"Dec 05 2014","12:00:52",9,"Live","No-socialFirst","Zero",4,"Chrome",2,"Switch",0,"Novel100",2,"Novel138",0,4488,"straight-ahead","-1","exposure",0,TRUE,FALSE,4,FALSE,"1"
"Dec 05 2014","12:00:52",10,"Live","No-socialFirst","Zero",4,"Chrome",2,"Switch",0,"Novel138",2,"Novel138",0,2282,"straight-ahead","-1","test",0,TRUE,FALSE,4,TRUE,"1"
"Dec 05 2014","12:00:52",11,"Live","No-socialFirst","Zero",4,"Chrome",3,"Same",0,"Novel21",2,"Novel21",2,2909,"straight-ahead","-1","exposure",0,TRUE,FALSE,4,FALSE,"1"
"Dec 05 2014","12:00:52",12,"Live","No-socialFirst","Zero",4,"Chrome",3,"Same",0,"Novel21",1,"Novel21",2,1618,"straight-ahead","-1","test",0,TRUE,FALSE,4,TRUE,"1"
"Dec 05 2014","12:00:52",13,"Live","No-socialFirst","Zero",4,"Chrome",4,"Switch",0,"Novel98",2,"Novel47",3,3895,"straight-ahead","-1","exposure",0,TRUE,FALSE,4,FALSE,"1"
"Dec 05 2014","12:00:52",14,"Live","No-socialFirst","Zero",4,"Chrome",4,"Switch",0,"Novel47",2,"Novel47",3,2075,"straight-ahead","-1","test",0,TRUE,FALSE,4,TRUE,"1"
"Dec 05 2014","12:00:52",15,"Live","No-socialFirst","Zero",4,"Chrome",5,"Same",1,"Novel104",2,"Novel104",2,5933,"straight-ahead","-1","exposure",0,TRUE,FALSE,4,FALSE,"1"
"Dec 05 2014","12:00:52",16,"Live","No-socialFirst","Zero",4,"Chrome",5,"Same",1,"Novel104",2,"Novel104",2,2838,"straight-ahead","-1","test",0,TRUE,FALSE,4,TRUE,"1"
"Dec 05 2014","12:00:52",17,"Live","No-socialFirst","Zero",4,"Chrome",6,"Switch",1,"Novel64",1,"Novel109",2,8284,"straight-ahead","-1","exposure",0,TRUE,FALSE,4,FALSE,"1"
"Dec 05 2014","12:00:52",18,"Live","No-socialFirst","Zero",4,"Chrome",6,"Switch",1,"Novel109",2,"Novel109",2,1331,"straight-ahead","-1","test",0,TRUE,FALSE,4,TRUE,"1"
"Dec 05 2014","12:00:52",19,"Live","No-socialFirst","Zero",4,"Chrome",7,"Same",1,"Novel83",1,"Novel83",1,4312,"straight-ahead","-1","exposure",0,TRUE,FALSE,4,FALSE,"1"
"Dec 05 2014","12:00:52",20,"Live","No-socialFirst","Zero",4,"Chrome",7,"Same",1,"Novel83",1,"Novel83",1,2363,"straight-ahead","-1","test",0,TRUE,FALSE,4,TRUE,"1"
"Dec 05 2014","12:00:52",21,"Live","No-socialFirst","Zero",4,"Chrome",8,"Switch",1,"Novel25",0,"Novel22",3,2180,"up-left-4sec","0","exposure",0,TRUE,FALSE,4,TRUE,"1"
"Dec 05 2014","12:00:52",22,"Live","No-socialFirst","Zero",4,"Chrome",8,"Switch",1,"Novel22",3,"Novel22",3,2077,"straight-ahead","-1","test",0,TRUE,FALSE,4,TRUE,"1"
"Dec 05 2014","12:00:52",23,"Live","No-socialFirst","Zero",4,"Chrome",9,"Same",0,"Novel96",0,"Novel96",0,3829,"down-right-4sec","3","exposure",0,TRUE,FALSE,4,FALSE,"1"
"Dec 05 2014","12:00:52",24,"Live","No-socialFirst","Zero",4,"Chrome",9,"Same",0,"Novel96",2,"Novel96",0,1858,"straight-ahead","-1","test",0,TRUE,FALSE,4,TRUE,"1"
"Dec 05 2014","12:00:52",25,"Live","No-socialFirst","Zero",4,"Chrome",10,"Switch",0,"Novel130",3,"Novel94",1,1933,"up-left-4sec","0","exposure",0,TRUE,FALSE,4,FALSE,"1"
"Dec 05 2014","12:00:52",26,"Live","No-socialFirst","Zero",4,"Chrome",10,"Switch",0,"Novel13",2,"Novel94",1,1614,"straight-ahead","-1","test",0,TRUE,FALSE,4,FALSE,"1"
"Dec 05 2014","12:00:52",27,"Live","No-socialFirst","Zero",4,"Chrome",11,"Same",0,"Novel32",1,"Novel32",1,3649,"up-left-4sec","0","exposure",0,TRUE,FALSE,4,FALSE,"1"
"Dec 05 2014","12:00:52",28,"Live","No-socialFirst","Zero",4,"Chrome",11,"Same",0,"Novel32",2,"Novel32",1,1444,"straight-ahead","-1","test",0,TRUE,FALSE,4,TRUE,"1"
"Dec 05 2014","12:00:52",29,"Live","No-socialFirst","Zero",4,"Chrome",12,"Switch",0,"Novel55",2,"Novel84",1,2409,"up-right-4sec","1","exposure",0,TRUE,FALSE,4,FALSE,"1"
"Dec 05 2014","12:00:52",30,"Live","No-socialFirst","Zero",4,"Chrome",12,"Switch",0,"Novel9",2,"Novel84",1,37,"straight-ahead","-1","test",0,TRUE,FALSE,4,FALSE,"1"
"Dec 05 2014","12:00:52",31,"Live","No-socialFirst","Zero",4,"Chrome",13,"Same",1,"Novel51",3,"Novel51",3,2102,"down-left-4sec","2","exposure",0,TRUE,FALSE,4,FALSE,"1"
"Dec 05 2014","12:00:52",32,"Live","No-socialFirst","Zero",4,"Chrome",13,"Same",1,"Novel51",3,"Novel51",3,1429,"straight-ahead","-1","test",0,TRUE,FALSE,4,TRUE,"1"
"Dec 05 2014","12:00:52",33,"Live","No-socialFirst","Zero",4,"Chrome",14,"Switch",1,"Novel72",1,"Novel44",3,2069,"down-left-4sec","2","exposure",0,TRUE,FALSE,4,FALSE,"1"
"Dec 05 2014","12:00:52",34,"Live","No-socialFirst","Zero",4,"Chrome",14,"Switch",1,"Novel44",3,"Novel44",3,2398,"straight-ahead","-1","test",0,TRUE,FALSE,4,TRUE,"1"
"Dec 05 2014","12:00:52",35,"Live","No-socialFirst","Zero",4,"Chrome",15,"Same",1,"Novel33",2,"Novel33",2,3300,"up-left-4sec","0","exposure",0,TRUE,FALSE,4,FALSE,"1"
"Dec 05 2014","12:00:52",36,"Live","No-socialFirst","Zero",4,"Chrome",15,"Same",1,"Novel33",2,"Novel33",2,1380,"straight-ahead","-1","test",0,TRUE,FALSE,4,TRUE,"1"
"Dec 05 2014","14:09:14",1,"Live","SocialFirst","Zero",4,"Chrome",0,"Switch",0,"squirrel",0,"",0,1988,"up-left-4sec","0","example",0,TRUE,FALSE,4,TRUE,"2"
"Dec 05 2014","14:09:14",2,"Live","SocialFirst","Zero",4,"Chrome",0,"Switch",0,"squirrel",0,"",0,1762,"up-left-4sec","0","example",0,TRUE,FALSE,4,TRUE,"2"
"Dec 05 2014","14:09:14",3,"Live","SocialFirst","Zero",4,"Chrome",0,"Switch",0,"tomato",1,"",0,1802,"up-right-4sec","1","example",0,TRUE,FALSE,4,TRUE,"2"
"Dec 05 2014","14:09:14",4,"Live","SocialFirst","Zero",4,"Chrome",0,"Switch",0,"tomato",2,"",0,2001,"down-left-4sec","2","example",0,TRUE,FALSE,4,TRUE,"2"
"Dec 05 2014","14:09:14",5,"Live","SocialFirst","Zero",4,"Chrome",0,"Switch",0,"Novel64",1,"Novel137",0,1756,"up-right-4sec","1","exposure",0,TRUE,FALSE,4,TRUE,"2"
"Dec 05 2014","14:09:14",6,"Live","SocialFirst","Zero",4,"Chrome",0,"Switch",0,"Novel11",0,"Novel137",0,3799,"straight-ahead","-1","test",0,TRUE,TRUE,4,FALSE,"2"
"Dec 05 2014","14:09:14",7,"Live","SocialFirst","Zero",4,"Chrome",1,"Same",1,"Novel15",3,"Novel15",3,2122,"down-right-4sec","3","exposure",0,TRUE,FALSE,4,TRUE,"2"
"Dec 05 2014","14:09:14",8,"Live","SocialFirst","Zero",4,"Chrome",1,"Same",1,"Novel15",3,"Novel15",3,1354,"straight-ahead","-1","test",0,TRUE,FALSE,4,TRUE,"2"
"Dec 05 2014","14:09:14",9,"Live","SocialFirst","Zero",4,"Chrome",2,"Switch",1,"Novel25",3,"Novel106",2,1717,"down-right-4sec","3","exposure",0,TRUE,FALSE,4,TRUE,"2"
"Dec 05 2014","14:09:14",10,"Live","SocialFirst","Zero",4,"Chrome",2,"Switch",1,"Novel106",2,"Novel106",2,2380,"straight-ahead","-1","test",0,TRUE,FALSE,4,TRUE,"2"
"Dec 05 2014","14:09:14",11,"Live","SocialFirst","Zero",4,"Chrome",3,"Same",0,"Novel20",2,"Novel20",2,3576,"down-left-4sec","2","exposure",0,TRUE,FALSE,4,TRUE,"2"
"Dec 05 2014","14:09:14",12,"Live","SocialFirst","Zero",4,"Chrome",3,"Same",0,"Novel20",0,"Novel20",2,1471,"straight-ahead","-1","test",0,TRUE,FALSE,4,TRUE,"2"
"Dec 05 2014","14:09:14",13,"Live","SocialFirst","Zero",4,"Chrome",4,"Switch",1,"Novel21",3,"Novel73",2,2351,"down-right-4sec","3","exposure",0,TRUE,FALSE,4,TRUE,"2"
"Dec 05 2014","14:09:14",14,"Live","SocialFirst","Zero",4,"Chrome",4,"Switch",1,"Novel26",3,"Novel73",2,2700,"straight-ahead","-1","test",0,TRUE,FALSE,4,FALSE,"2"
"Dec 05 2014","14:09:14",15,"Live","SocialFirst","Zero",4,"Chrome",5,"Same",0,"Novel34",0,"Novel34",0,2159,"up-left-4sec","0","exposure",0,TRUE,FALSE,4,TRUE,"2"
"Dec 05 2014","14:09:14",16,"Live","SocialFirst","Zero",4,"Chrome",5,"Same",0,"Novel34",2,"Novel34",0,1911,"straight-ahead","-1","test",0,TRUE,FALSE,4,TRUE,"2"
"Dec 05 2014","14:09:14",17,"Live","SocialFirst","Zero",4,"Chrome",6,"Switch",0,"Novel57",1,"Novel33",0,2402,"up-right-4sec","1","exposure",0,TRUE,FALSE,4,TRUE,"2"
"Dec 05 2014","14:09:14",18,"Live","SocialFirst","Zero",4,"Chrome",6,"Switch",0,"Novel46",1,"Novel33",0,2903,"straight-ahead","-1","test",0,TRUE,FALSE,4,FALSE,"2"
"Dec 05 2014","14:09:14",19,"Live","SocialFirst","Zero",4,"Chrome",7,"Same",1,"Novel116",1,"Novel116",1,1725,"up-right-4sec","1","exposure",0,TRUE,FALSE,4,TRUE,"2"
"Dec 05 2014","14:09:14",20,"Live","SocialFirst","Zero",4,"Chrome",7,"Same",1,"Novel116",1,"Novel116",1,1640,"straight-ahead","-1","test",0,TRUE,FALSE,4,TRUE,"2"
"Dec 05 2014","14:09:14",21,"Live","SocialFirst","Zero",4,"Chrome",8,"Switch",0,"Novel101",1,"Novel91",0,5298,"straight-ahead","-1","exposure",0,TRUE,FALSE,4,FALSE,"2"
"Dec 05 2014","14:09:14",22,"Live","SocialFirst","Zero",4,"Chrome",8,"Switch",0,"Novel91",3,"Novel91",0,3479,"straight-ahead","-1","test",0,TRUE,FALSE,4,TRUE,"2"
"Dec 05 2014","14:09:14",23,"Live","SocialFirst","Zero",4,"Chrome",9,"Same",1,"Novel87",2,"Novel87",2,2601,"straight-ahead","-1","exposure",0,TRUE,FALSE,4,FALSE,"2"
"Dec 05 2014","14:09:14",24,"Live","SocialFirst","Zero",4,"Chrome",9,"Same",1,"Novel87",2,"Novel87",2,1930,"straight-ahead","-1","test",0,TRUE,FALSE,4,TRUE,"2"
"Dec 05 2014","14:09:14",25,"Live","SocialFirst","Zero",4,"Chrome",10,"Switch",1,"Novel3",2,"Novel5",3,5767,"straight-ahead","-1","exposure",0,TRUE,FALSE,4,FALSE,"2"
"Dec 05 2014","14:09:14",26,"Live","SocialFirst","Zero",4,"Chrome",10,"Switch",1,"Novel78",0,"Novel5",3,2909,"straight-ahead","-1","test",0,TRUE,FALSE,4,FALSE,"2"
"Dec 05 2014","14:09:14",27,"Live","SocialFirst","Zero",4,"Chrome",11,"Same",0,"Novel18",1,"Novel18",1,3288,"straight-ahead","-1","exposure",0,TRUE,FALSE,4,FALSE,"2"
"Dec 05 2014","14:09:14",28,"Live","SocialFirst","Zero",4,"Chrome",11,"Same",0,"Novel18",0,"Novel18",1,2398,"straight-ahead","-1","test",0,TRUE,FALSE,4,TRUE,"2"
"Dec 05 2014","14:09:14",29,"Live","SocialFirst","Zero",4,"Chrome",12,"Switch",1,"Novel125",3,"Novel76",1,2638,"straight-ahead","-1","exposure",0,TRUE,FALSE,4,FALSE,"2"
"Dec 05 2014","14:09:14",30,"Live","SocialFirst","Zero",4,"Chrome",12,"Switch",1,"Novel108",2,"Novel76",1,1759,"straight-ahead","-1","test",0,TRUE,FALSE,4,FALSE,"2"
"Dec 05 2014","14:09:14",31,"Live","SocialFirst","Zero",4,"Chrome",13,"Same",0,"Novel99",2,"Novel99",2,2360,"straight-ahead","-1","exposure",0,TRUE,FALSE,4,FALSE,"2"
"Dec 05 2014","14:09:14",32,"Live","SocialFirst","Zero",4,"Chrome",13,"Same",0,"Novel99",1,"Novel99",2,1417,"straight-ahead","-1","test",0,TRUE,FALSE,4,TRUE,"2"
"Dec 05 2014","14:09:14",33,"Live","SocialFirst","Zero",4,"Chrome",14,"Switch",0,"Novel29",3,"Novel23",2,3230,"straight-ahead","-1","exposure",0,TRUE,FALSE,4,FALSE,"2"
"Dec 05 2014","14:09:14",34,"Live","SocialFirst","Zero",4,"Chrome",14,"Switch",0,"Novel31",0,"Novel23",2,1756,"straight-ahead","-1","test",0,TRUE,FALSE,4,FALSE,"2"
"Dec 05 2014","14:09:14",35,"Live","SocialFirst","Zero",4,"Chrome",15,"Same",1,"Novel111",1,"Novel111",1,2551,"straight-ahead","-1","exposure",0,TRUE,FALSE,4,FALSE,"2"
"Dec 05 2014","14:09:14",36,"Live","SocialFirst","Zero",4,"Chrome",15,"Same",1,"Novel111",1,"Novel111",1,2334,"straight-ahead","-1","test",0,TRUE,FALSE,4,TRUE,"2"
"Dec 06 2014","21:42:30",1,"Live","SocialFirst","Zero",4,"Chrome",0,"Same",1,"squirrel",0,"",0,8673,"up-left-4sec","0","example",0,TRUE,FALSE,4,TRUE,"3"
"Dec 06 2014","21:42:30",2,"Live","SocialFirst","Zero",4,"Chrome",0,"Same",1,"squirrel",0,"",0,4169,"up-left-4sec","0","example",0,TRUE,FALSE,4,TRUE,"3"
"Dec 06 2014","21:42:30",3,"Live","SocialFirst","Zero",4,"Chrome",0,"Same",1,"tomato",1,"",0,3522,"up-right-4sec","1","example",0,TRUE,FALSE,4,TRUE,"3"
"Dec 06 2014","21:42:30",4,"Live","SocialFirst","Zero",4,"Chrome",0,"Same",1,"tomato",2,"",0,4282,"down-left-4sec","2","example",0,TRUE,FALSE,4,TRUE,"3"
"Dec 06 2014","21:42:30",5,"Live","SocialFirst","Zero",4,"Chrome",0,"Same",1,"Novel33",2,"Novel33",2,10500,"up-left-4sec","0","exposure",0,TRUE,FALSE,4,FALSE,"3"
"Dec 06 2014","21:42:30",6,"Live","SocialFirst","Zero",4,"Chrome",0,"Same",1,"Novel68",0,"Novel33",2,6598,"straight-ahead","-1","test",0,TRUE,TRUE,4,FALSE,"3"
"Dec 06 2014","21:42:30",7,"Live","SocialFirst","Zero",4,"Chrome",1,"Switch",1,"Novel105",1,"Novel112",0,6452,"up-right-4sec","1","exposure",0,TRUE,FALSE,4,TRUE,"3"
"Dec 06 2014","21:42:30",8,"Live","SocialFirst","Zero",4,"Chrome",1,"Switch",1,"Novel15",1,"Novel112",0,13453,"straight-ahead","-1","test",0,TRUE,FALSE,4,FALSE,"3"
"Dec 06 2014","21:42:30",9,"Live","SocialFirst","Zero",4,"Chrome",2,"Same",0,"Novel137",2,"Novel137",2,5534,"down-left-4sec","2","exposure",0,TRUE,FALSE,4,TRUE,"3"
"Dec 06 2014","21:42:30",10,"Live","SocialFirst","Zero",4,"Chrome",2,"Same",0,"Novel137",0,"Novel137",2,5765,"straight-ahead","-1","test",0,TRUE,FALSE,4,TRUE,"3"
"Dec 06 2014","21:42:30",11,"Live","SocialFirst","Zero",4,"Chrome",3,"Switch",0,"Novel91",2,"Novel36",0,7249,"down-left-4sec","2","exposure",0,TRUE,FALSE,4,TRUE,"3"
"Dec 06 2014","21:42:30",12,"Live","SocialFirst","Zero",4,"Chrome",3,"Switch",0,"Novel36",3,"Novel36",0,7362,"straight-ahead","-1","test",0,TRUE,FALSE,4,TRUE,"3"
"Dec 06 2014","21:42:30",13,"Live","SocialFirst","Zero",4,"Chrome",4,"Same",1,"Novel121",2,"Novel121",2,5378,"down-left-4sec","2","exposure",0,TRUE,FALSE,4,TRUE,"3"
"Dec 06 2014","21:42:30",14,"Live","SocialFirst","Zero",4,"Chrome",4,"Same",1,"Novel121",2,"Novel121",2,3976,"straight-ahead","-1","test",0,TRUE,FALSE,4,TRUE,"3"
"Dec 06 2014","21:42:30",15,"Live","SocialFirst","Zero",4,"Chrome",5,"Switch",1,"Novel40",1,"Novel116",0,6149,"up-right-4sec","1","exposure",0,TRUE,FALSE,4,TRUE,"3"
"Dec 06 2014","21:42:30",16,"Live","SocialFirst","Zero",4,"Chrome",5,"Switch",1,"Novel110",2,"Novel116",0,6456,"straight-ahead","-1","test",0,TRUE,FALSE,4,FALSE,"3"
"Dec 06 2014","21:42:30",17,"Live","SocialFirst","Zero",4,"Chrome",6,"Same",0,"Novel63",1,"Novel63",1,5516,"up-right-4sec","1","exposure",0,TRUE,FALSE,4,TRUE,"3"
"Dec 06 2014","21:42:30",18,"Live","SocialFirst","Zero",4,"Chrome",6,"Same",0,"Novel63",2,"Novel63",1,3112,"straight-ahead","-1","test",0,TRUE,FALSE,4,TRUE,"3"
"Dec 06 2014","21:42:30",19,"Live","SocialFirst","Zero",4,"Chrome",7,"Switch",0,"Novel2",2,"Novel43",0,10677,"down-left-4sec","2","exposure",0,TRUE,FALSE,4,TRUE,"3"
"Dec 06 2014","21:42:30",20,"Live","SocialFirst","Zero",4,"Chrome",7,"Switch",0,"Novel118",0,"Novel43",0,4581,"straight-ahead","-1","test",0,TRUE,FALSE,4,FALSE,"3"
"Dec 06 2014","21:42:30",21,"Live","SocialFirst","Zero",4,"Chrome",8,"Same",1,"Novel79",0,"Novel79",0,6949,"straight-ahead","-1","exposure",0,TRUE,FALSE,4,FALSE,"3"
"Dec 06 2014","21:42:30",22,"Live","SocialFirst","Zero",4,"Chrome",8,"Same",1,"Novel79",0,"Novel79",0,2289,"straight-ahead","-1","test",0,TRUE,FALSE,4,TRUE,"3"
"Dec 06 2014","21:42:30",23,"Live","SocialFirst","Zero",4,"Chrome",9,"Switch",1,"Novel134",0,"Novel54",1,10648,"straight-ahead","-1","exposure",0,TRUE,FALSE,4,FALSE,"3"
"Dec 06 2014","21:42:30",24,"Live","SocialFirst","Zero",4,"Chrome",9,"Switch",1,"Novel87",2,"Novel54",1,4422,"straight-ahead","-1","test",0,TRUE,FALSE,4,FALSE,"3"
"Dec 06 2014","21:42:30",25,"Live","SocialFirst","Zero",4,"Chrome",10,"Same",0,"Novel65",3,"Novel65",3,5398,"straight-ahead","-1","exposure",0,TRUE,FALSE,4,FALSE,"3"
"Dec 06 2014","21:42:30",26,"Live","SocialFirst","Zero",4,"Chrome",10,"Same",0,"Novel65",2,"Novel65",3,2511,"straight-ahead","-1","test",0,TRUE,FALSE,4,TRUE,"3"
"Dec 06 2014","21:42:30",27,"Live","SocialFirst","Zero",4,"Chrome",11,"Switch",0,"Novel29",0,"Novel82",1,7226,"straight-ahead","-1","exposure",0,TRUE,FALSE,4,FALSE,"3"
"Dec 06 2014","21:42:30",28,"Live","SocialFirst","Zero",4,"Chrome",11,"Switch",0,"Novel82",0,"Novel82",1,3297,"straight-ahead","-1","test",0,TRUE,FALSE,4,TRUE,"3"
"Dec 06 2014","21:42:30",29,"Live","SocialFirst","Zero",4,"Chrome",12,"Same",1,"Novel80",0,"Novel80",0,8227,"straight-ahead","-1","exposure",0,TRUE,FALSE,4,FALSE,"3"
"Dec 06 2014","21:42:30",30,"Live","SocialFirst","Zero",4,"Chrome",12,"Same",1,"Novel80",0,"Novel80",0,2180,"straight-ahead","-1","test",0,TRUE,FALSE,4,TRUE,"3"
"Dec 06 2014","21:42:30",31,"Live","SocialFirst","Zero",4,"Chrome",13,"Switch",1,"Novel13",1,"Novel59",2,5148,"straight-ahead","-1","exposure",0,TRUE,FALSE,4,FALSE,"3"
"Dec 06 2014","21:42:30",32,"Live","SocialFirst","Zero",4,"Chrome",13,"Switch",1,"Novel18",0,"Novel59",2,3276,"straight-ahead","-1","test",0,TRUE,FALSE,4,FALSE,"3"
"Dec 06 2014","21:42:30",33,"Live","SocialFirst","Zero",4,"Chrome",14,"Same",0,"Novel81",1,"Novel81",1,4474,"straight-ahead","-1","exposure",0,TRUE,FALSE,4,FALSE,"3"
"Dec 06 2014","21:42:30",34,"Live","SocialFirst","Zero",4,"Chrome",14,"Same",0,"Novel81",2,"Novel81",1,2294,"straight-ahead","-1","test",0,TRUE,FALSE,4,TRUE,"3"
"Dec 06 2014","21:42:30",35,"Live","SocialFirst","Zero",4,"Chrome",15,"Switch",0,"Novel38",1,"Novel30",2,4355,"straight-ahead","-1","exposure",0,TRUE,FALSE,4,FALSE,"3"
"Dec 06 2014","21:42:30",36,"Live","SocialFirst","Zero",4,"Chrome",15,"Switch",0,"Novel30",1,"Novel30",2,2360,"straight-ahead","-1","test",0,TRUE,FALSE,4,TRUE,"3"
"Dec 05 2014","12:43:54",1,"Live","SocialFirst","Zero",4,"Chrome",0,"Same",0,"squirrel",0,"",0,17440,"up-left-4sec","0","example",0,TRUE,FALSE,4,TRUE,"4"
"Dec 05 2014","12:43:54",2,"Live","SocialFirst","Zero",4,"Chrome",0,"Same",0,"squirrel",0,"",0,5758,"up-left-4sec","0","example",0,TRUE,FALSE,4,TRUE,"4"
"Dec 05 2014","12:43:54",3,"Live","SocialFirst","Zero",4,"Chrome",0,"Same",0,"tomato",1,"",0,1806,"up-right-4sec","1","example",0,TRUE,FALSE,4,TRUE,"4"
"Dec 05 2014","12:43:54",4,"Live","SocialFirst","Zero",4,"Chrome",0,"Same",0,"tomato",2,"",0,8211,"down-left-4sec","2","example",0,TRUE,FALSE,4,TRUE,"4"
"Dec 05 2014","12:43:54",5,"Live","SocialFirst","Zero",4,"Chrome",0,"Same",0,"Novel93",3,"Novel93",3,2261,"down-right-4sec","3","exposure",0,TRUE,FALSE,4,TRUE,"4"
"Dec 05 2014","12:43:54",6,"Live","SocialFirst","Zero",4,"Chrome",0,"Same",0,"Novel93",0,"Novel93",3,3763,"straight-ahead","-1","test",0,TRUE,TRUE,4,TRUE,"4"
"Dec 05 2014","12:43:54",7,"Live","SocialFirst","Zero",4,"Chrome",1,"Switch",0,"Novel90",0,"Novel122",2,2360,"up-left-4sec","0","exposure",0,TRUE,FALSE,4,TRUE,"4"
"Dec 05 2014","12:43:54",8,"Live","SocialFirst","Zero",4,"Chrome",1,"Switch",0,"Novel123",1,"Novel122",2,2407,"straight-ahead","-1","test",0,TRUE,FALSE,4,FALSE,"4"
"Dec 05 2014","12:43:54",9,"Live","SocialFirst","Zero",4,"Chrome",2,"Same",0,"Novel139",1,"Novel139",1,2799,"up-right-4sec","1","exposure",0,TRUE,FALSE,4,TRUE,"4"
"Dec 05 2014","12:43:54",10,"Live","SocialFirst","Zero",4,"Chrome",2,"Same",0,"Novel4",2,"Novel139",1,3681,"straight-ahead","-1","test",0,TRUE,FALSE,4,FALSE,"4"
"Dec 05 2014","12:43:54",11,"Live","SocialFirst","Zero",4,"Chrome",3,"Switch",1,"Novel32",0,"Novel85",2,9588,"up-left-4sec","0","exposure",0,TRUE,FALSE,4,TRUE,"4"
"Dec 05 2014","12:43:54",12,"Live","SocialFirst","Zero",4,"Chrome",3,"Switch",1,"Novel116",1,"Novel85",2,3054,"straight-ahead","-1","test",0,TRUE,FALSE,4,FALSE,"4"
"Dec 05 2014","12:43:54",13,"Live","SocialFirst","Zero",4,"Chrome",4,"Same",1,"Novel134",1,"Novel134",1,1629,"up-right-4sec","1","exposure",0,TRUE,FALSE,4,TRUE,"4"
"Dec 05 2014","12:43:54",14,"Live","SocialFirst","Zero",4,"Chrome",4,"Same",1,"Novel134",1,"Novel134",1,1317,"straight-ahead","-1","test",0,TRUE,FALSE,4,TRUE,"4"
"Dec 05 2014","12:43:54",15,"Live","SocialFirst","Zero",4,"Chrome",5,"Switch",0,"Novel6",3,"Novel61",2,1835,"down-right-4sec","3","exposure",0,TRUE,FALSE,4,TRUE,"4"
"Dec 05 2014","12:43:54",16,"Live","SocialFirst","Zero",4,"Chrome",5,"Switch",0,"Novel69",1,"Novel61",2,2002,"straight-ahead","-1","test",0,TRUE,FALSE,4,FALSE,"4"
"Dec 05 2014","12:43:54",17,"Live","SocialFirst","Zero",4,"Chrome",6,"Same",1,"Novel102",3,"Novel102",3,1571,"down-right-4sec","3","exposure",0,TRUE,FALSE,4,TRUE,"4"
"Dec 05 2014","12:43:54",18,"Live","SocialFirst","Zero",4,"Chrome",6,"Same",1,"Novel102",3,"Novel102",3,2709,"straight-ahead","-1","test",0,TRUE,FALSE,4,TRUE,"4"
"Dec 05 2014","12:43:54",19,"Live","SocialFirst","Zero",4,"Chrome",7,"Switch",1,"Novel76",0,"Novel127",2,6016,"up-left-4sec","0","exposure",0,TRUE,FALSE,4,TRUE,"4"
"Dec 05 2014","12:43:54",20,"Live","SocialFirst","Zero",4,"Chrome",7,"Switch",1,"Novel127",2,"Novel127",2,3107,"straight-ahead","-1","test",0,TRUE,FALSE,4,TRUE,"4"
"Dec 05 2014","12:43:54",21,"Live","SocialFirst","Zero",4,"Chrome",8,"Same",0,"Novel28",0,"Novel28",0,9050,"straight-ahead","-1","exposure",0,TRUE,FALSE,4,FALSE,"4"
"Dec 05 2014","12:43:54",22,"Live","SocialFirst","Zero",4,"Chrome",8,"Same",0,"Novel136",3,"Novel28",0,3111,"straight-ahead","-1","test",0,TRUE,FALSE,4,FALSE,"4"
"Dec 05 2014","12:43:54",23,"Live","SocialFirst","Zero",4,"Chrome",9,"Switch",0,"Novel18",2,"Novel38",1,2724,"straight-ahead","-1","exposure",0,TRUE,FALSE,4,FALSE,"4"
"Dec 05 2014","12:43:54",24,"Live","SocialFirst","Zero",4,"Chrome",9,"Switch",0,"Novel38",0,"Novel38",1,3786,"straight-ahead","-1","test",0,TRUE,FALSE,4,TRUE,"4"
"Dec 05 2014","12:43:54",25,"Live","SocialFirst","Zero",4,"Chrome",10,"Same",0,"Novel23",1,"Novel23",1,3262,"straight-ahead","-1","exposure",0,TRUE,FALSE,4,FALSE,"4"
"Dec 05 2014","12:43:54",26,"Live","SocialFirst","Zero",4,"Chrome",10,"Same",0,"Novel23",0,"Novel23",1,1911,"straight-ahead","-1","test",0,TRUE,FALSE,4,TRUE,"4"
"Dec 05 2014","12:43:54",27,"Live","SocialFirst","Zero",4,"Chrome",11,"Switch",1,"Novel95",3,"Novel128",0,3781,"straight-ahead","-1","exposure",0,TRUE,FALSE,4,FALSE,"4"
"Dec 05 2014","12:43:54",28,"Live","SocialFirst","Zero",4,"Chrome",11,"Switch",1,"Novel39",1,"Novel128",0,1699,"straight-ahead","-1","test",0,TRUE,FALSE,4,FALSE,"4"
"Dec 05 2014","12:43:54",29,"Live","SocialFirst","Zero",4,"Chrome",12,"Same",1,"Novel97",1,"Novel97",1,2770,"straight-ahead","-1","exposure",0,TRUE,FALSE,4,FALSE,"4"
"Dec 05 2014","12:43:54",30,"Live","SocialFirst","Zero",4,"Chrome",12,"Same",1,"Novel97",1,"Novel97",1,2328,"straight-ahead","-1","test",0,TRUE,FALSE,4,TRUE,"4"
"Dec 05 2014","12:43:54",31,"Live","SocialFirst","Zero",4,"Chrome",13,"Switch",0,"Novel81",2,"Novel106",0,2833,"straight-ahead","-1","exposure",0,TRUE,FALSE,4,FALSE,"4"
"Dec 05 2014","12:43:54",32,"Live","SocialFirst","Zero",4,"Chrome",13,"Switch",0,"Novel60",0,"Novel106",0,1785,"straight-ahead","-1","test",0,TRUE,FALSE,4,FALSE,"4"
"Dec 05 2014","12:43:54",33,"Live","SocialFirst","Zero",4,"Chrome",14,"Same",1,"Novel26",1,"Novel26",1,4003,"straight-ahead","-1","exposure",0,TRUE,FALSE,4,FALSE,"4"
"Dec 05 2014","12:43:54",34,"Live","SocialFirst","Zero",4,"Chrome",14,"Same",1,"Novel26",1,"Novel26",1,1730,"straight-ahead","-1","test",0,TRUE,FALSE,4,TRUE,"4"
"Dec 05 2014","12:43:54",35,"Live","SocialFirst","Zero",4,"Chrome",15,"Switch",1,"Novel21",3,"Novel68",0,3353,"straight-ahead","-1","exposure",0,TRUE,FALSE,4,FALSE,"4"
"Dec 05 2014","12:43:54",36,"Live","SocialFirst","Zero",4,"Chrome",15,"Switch",1,"Novel68",0,"Novel68",0,4528,"straight-ahead","-1","test",0,TRUE,FALSE,4,TRUE,"4"
"Dec 05 2014","22:21:59",1,"Live","SocialFirst","Zero",4,"Chrome",0,"Same",0,"squirrel",0,"",0,4138,"up-left-4sec","0","example",0,TRUE,FALSE,4,TRUE,"5"
"Dec 05 2014","22:21:59",2,"Live","SocialFirst","Zero",4,"Chrome",0,"Same",0,"squirrel",0,"",0,1633,"up-left-4sec","0","example",0,TRUE,FALSE,4,TRUE,"5"
"Dec 05 2014","22:21:59",3,"Live","SocialFirst","Zero",4,"Chrome",0,"Same",0,"tomato",1,"",0,2236,"up-right-4sec","1","example",0,TRUE,FALSE,4,TRUE,"5"
"Dec 05 2014","22:21:59",4,"Live","SocialFirst","Zero",4,"Chrome",0,"Same",0,"tomato",2,"",0,1899,"down-left-4sec","2","example",0,TRUE,FALSE,4,TRUE,"5"
"Dec 05 2014","22:21:59",5,"Live","SocialFirst","Zero",4,"Chrome",0,"Same",0,"Novel84",0,"Novel84",0,3100,"up-left-4sec","0","exposure",0,TRUE,FALSE,4,TRUE,"5"
"Dec 05 2014","22:21:59",6,"Live","SocialFirst","Zero",4,"Chrome",0,"Same",0,"Novel84",1,"Novel84",0,3706,"straight-ahead","-1","test",0,TRUE,TRUE,4,TRUE,"5"
"Dec 05 2014","22:21:59",7,"Live","SocialFirst","Zero",4,"Chrome",1,"Switch",1,"Novel110",0,"Novel38",3,3008,"up-left-4sec","0","exposure",0,TRUE,FALSE,4,TRUE,"5"
"Dec 05 2014","22:21:59",8,"Live","SocialFirst","Zero",4,"Chrome",1,"Switch",1,"Novel6",2,"Novel38",3,3057,"straight-ahead","-1","test",0,TRUE,FALSE,4,FALSE,"5"
"Dec 05 2014","22:21:59",9,"Live","SocialFirst","Zero",4,"Chrome",2,"Same",1,"Novel82",0,"Novel82",0,3673,"up-left-4sec","0","exposure",0,TRUE,FALSE,4,TRUE,"5"
"Dec 05 2014","22:21:59",10,"Live","SocialFirst","Zero",4,"Chrome",2,"Same",1,"Novel82",0,"Novel82",0,1906,"straight-ahead","-1","test",0,TRUE,FALSE,4,TRUE,"5"
"Dec 05 2014","22:21:59",11,"Live","SocialFirst","Zero",4,"Chrome",3,"Switch",0,"Novel24",1,"Novel75",2,2993,"up-right-4sec","1","exposure",0,TRUE,FALSE,4,TRUE,"5"
"Dec 05 2014","22:21:59",12,"Live","SocialFirst","Zero",4,"Chrome",3,"Switch",0,"Novel14",0,"Novel75",2,5194,"straight-ahead","-1","test",0,TRUE,FALSE,4,FALSE,"5"
"Dec 05 2014","22:21:59",13,"Live","SocialFirst","Zero",4,"Chrome",4,"Same",1,"Novel41",1,"Novel41",1,2170,"up-right-4sec","1","exposure",0,TRUE,FALSE,4,TRUE,"5"
"Dec 05 2014","22:21:59",14,"Live","SocialFirst","Zero",4,"Chrome",4,"Same",1,"Novel41",1,"Novel41",1,2255,"straight-ahead","-1","test",0,TRUE,FALSE,4,TRUE,"5"
"Dec 05 2014","22:21:59",15,"Live","SocialFirst","Zero",4,"Chrome",5,"Switch",0,"Novel60",2,"Novel137",3,1989,"down-left-4sec","2","exposure",0,TRUE,FALSE,4,TRUE,"5"
"Dec 05 2014","22:21:59",16,"Live","SocialFirst","Zero",4,"Chrome",5,"Switch",0,"Novel137",2,"Novel137",3,1824,"straight-ahead","-1","test",0,TRUE,FALSE,4,TRUE,"5"
"Dec 05 2014","22:21:59",17,"Live","SocialFirst","Zero",4,"Chrome",6,"Same",0,"Novel36",1,"Novel36",1,3246,"up-right-4sec","1","exposure",0,TRUE,FALSE,4,TRUE,"5"
"Dec 05 2014","22:21:59",18,"Live","SocialFirst","Zero",4,"Chrome",6,"Same",0,"Novel36",0,"Novel36",1,1703,"straight-ahead","-1","test",0,TRUE,FALSE,4,TRUE,"5"
"Dec 05 2014","22:21:59",19,"Live","SocialFirst","Zero",4,"Chrome",7,"Switch",1,"Novel80",2,"Novel100",0,2148,"down-left-4sec","2","exposure",0,TRUE,FALSE,4,TRUE,"5"
"Dec 05 2014","22:21:59",20,"Live","SocialFirst","Zero",4,"Chrome",7,"Switch",1,"Novel53",2,"Novel100",0,1134,"straight-ahead","-1","test",0,TRUE,FALSE,4,FALSE,"5"
"Dec 05 2014","22:21:59",21,"Live","SocialFirst","Zero",4,"Chrome",8,"Same",0,"Novel87",2,"Novel87",2,5117,"straight-ahead","-1","exposure",0,TRUE,FALSE,4,FALSE,"5"
"Dec 05 2014","22:21:59",22,"Live","SocialFirst","Zero",4,"Chrome",8,"Same",0,"Novel87",0,"Novel87",2,2813,"straight-ahead","-1","test",0,TRUE,FALSE,4,TRUE,"5"
"Dec 05 2014","22:21:59",23,"Live","SocialFirst","Zero",4,"Chrome",9,"Switch",1,"Novel125",3,"Novel83",0,4176,"straight-ahead","-1","exposure",0,TRUE,FALSE,4,FALSE,"5"
"Dec 05 2014","22:21:59",24,"Live","SocialFirst","Zero",4,"Chrome",9,"Switch",1,"Novel83",0,"Novel83",0,1919,"straight-ahead","-1","test",0,TRUE,FALSE,4,TRUE,"5"
"Dec 05 2014","22:21:59",25,"Live","SocialFirst","Zero",4,"Chrome",10,"Same",1,"Novel122",2,"Novel122",2,4570,"straight-ahead","-1","exposure",0,TRUE,FALSE,4,FALSE,"5"
"Dec 05 2014","22:21:59",26,"Live","SocialFirst","Zero",4,"Chrome",10,"Same",1,"Novel122",2,"Novel122",2,1587,"straight-ahead","-1","test",0,TRUE,FALSE,4,TRUE,"5"
"Dec 05 2014","22:21:59",27,"Live","SocialFirst","Zero",4,"Chrome",11,"Switch",0,"Novel40",2,"Novel92",0,3620,"straight-ahead","-1","exposure",0,TRUE,FALSE,4,FALSE,"5"
"Dec 05 2014","22:21:59",28,"Live","SocialFirst","Zero",4,"Chrome",11,"Switch",0,"Novel92",1,"Novel92",0,1523,"straight-ahead","-1","test",0,TRUE,FALSE,4,TRUE,"5"
"Dec 05 2014","22:21:59",29,"Live","SocialFirst","Zero",4,"Chrome",12,"Same",1,"Novel97",2,"Novel97",2,3311,"straight-ahead","-1","exposure",0,TRUE,FALSE,4,FALSE,"5"
"Dec 05 2014","22:21:59",30,"Live","SocialFirst","Zero",4,"Chrome",12,"Same",1,"Novel97",2,"Novel97",2,1790,"straight-ahead","-1","test",0,TRUE,FALSE,4,TRUE,"5"
"Dec 05 2014","22:21:59",31,"Live","SocialFirst","Zero",4,"Chrome",13,"Switch",0,"Novel4",0,"Novel123",2,4927,"straight-ahead","-1","exposure",0,TRUE,FALSE,4,FALSE,"5"
"Dec 05 2014","22:21:59",32,"Live","SocialFirst","Zero",4,"Chrome",13,"Switch",0,"Novel123",1,"Novel123",2,1393,"straight-ahead","-1","test",0,TRUE,FALSE,4,TRUE,"5"
"Dec 05 2014","22:21:59",33,"Live","SocialFirst","Zero",4,"Chrome",14,"Same",0,"Novel18",0,"Novel18",0,3360,"straight-ahead","-1","exposure",0,TRUE,FALSE,4,FALSE,"5"
"Dec 05 2014","22:21:59",34,"Live","SocialFirst","Zero",4,"Chrome",14,"Same",0,"Novel18",2,"Novel18",0,1301,"straight-ahead","-1","test",0,TRUE,FALSE,4,TRUE,"5"
"Dec 05 2014","22:21:59",35,"Live","SocialFirst","Zero",4,"Chrome",15,"Switch",1,"Novel50",3,"Novel106",2,2933,"straight-ahead","-1","exposure",0,TRUE,FALSE,4,FALSE,"5"
"Dec 05 2014","22:21:59",36,"Live","SocialFirst","Zero",4,"Chrome",15,"Switch",1,"Novel106",2,"Novel106",2,1545,"straight-ahead","-1","test",0,TRUE,FALSE,4,TRUE,"5"
"Dec 05 2014","22:03:51",1,"Live","No-socialFirst","Zero",4,"Chrome",0,"Same",0,"squirrel",0,"",0,5087,"up-left-4sec","0","example",0,TRUE,FALSE,4,TRUE,"6"
"Dec 05 2014","22:03:51",2,"Live","No-socialFirst","Zero",4,"Chrome",0,"Same",0,"squirrel",0,"",0,3606,"up-left-4sec","0","example",0,TRUE,FALSE,4,TRUE,"6"
"Dec 05 2014","22:03:51",3,"Live","No-socialFirst","Zero",4,"Chrome",0,"Same",0,"tomato",1,"",0,2524,"up-right-4sec","1","example",0,TRUE,FALSE,4,TRUE,"6"
"Dec 05 2014","22:03:51",4,"Live","No-socialFirst","Zero",4,"Chrome",0,"Same",0,"tomato",2,"",0,2711,"down-left-4sec","2","example",0,TRUE,FALSE,4,TRUE,"6"
"Dec 05 2014","22:03:51",5,"Live","No-socialFirst","Zero",4,"Chrome",0,"Same",0,"Novel14",1,"Novel14",1,6666,"straight-ahead","-1","exposure",0,TRUE,FALSE,4,FALSE,"6"
"Dec 05 2014","22:03:51",6,"Live","No-socialFirst","Zero",4,"Chrome",0,"Same",0,"Novel14",3,"Novel14",1,4616,"straight-ahead","-1","test",0,TRUE,TRUE,4,TRUE,"6"
"Dec 05 2014","22:03:51",7,"Live","No-socialFirst","Zero",4,"Chrome",1,"Switch",0,"Novel138",0,"Novel111",3,6437,"straight-ahead","-1","exposure",0,TRUE,FALSE,4,FALSE,"6"
"Dec 05 2014","22:03:51",8,"Live","No-socialFirst","Zero",4,"Chrome",1,"Switch",0,"Novel111",0,"Novel111",3,5661,"straight-ahead","-1","test",0,TRUE,FALSE,4,TRUE,"6"
"Dec 05 2014","22:03:51",9,"Live","No-socialFirst","Zero",4,"Chrome",2,"Same",1,"Novel83",1,"Novel83",1,4184,"straight-ahead","-1","exposure",0,TRUE,FALSE,4,FALSE,"6"
"Dec 05 2014","22:03:51",10,"Live","No-socialFirst","Zero",4,"Chrome",2,"Same",1,"Novel83",1,"Novel83",1,3198,"straight-ahead","-1","test",0,TRUE,FALSE,4,TRUE,"6"
"Dec 05 2014","22:03:51",11,"Live","No-socialFirst","Zero",4,"Chrome",3,"Switch",0,"Novel96",0,"Novel106",3,3432,"straight-ahead","-1","exposure",0,TRUE,FALSE,4,FALSE,"6"
"Dec 05 2014","22:03:51",12,"Live","No-socialFirst","Zero",4,"Chrome",3,"Switch",0,"Novel106",1,"Novel106",3,3549,"straight-ahead","-1","test",0,TRUE,FALSE,4,TRUE,"6"
"Dec 05 2014","22:03:51",13,"Live","No-socialFirst","Zero",4,"Chrome",4,"Same",1,"Novel32",2,"Novel32",2,3752,"straight-ahead","-1","exposure",0,TRUE,FALSE,4,FALSE,"6"
"Dec 05 2014","22:03:51",14,"Live","No-socialFirst","Zero",4,"Chrome",4,"Same",1,"Novel32",2,"Novel32",2,2357,"straight-ahead","-1","test",0,TRUE,FALSE,4,TRUE,"6"
"Dec 05 2014","22:03:51",15,"Live","No-socialFirst","Zero",4,"Chrome",5,"Switch",1,"Novel116",3,"Novel67",2,2409,"straight-ahead","-1","exposure",0,TRUE,FALSE,4,FALSE,"6"
"Dec 05 2014","22:03:51",16,"Live","No-socialFirst","Zero",4,"Chrome",5,"Switch",1,"Novel120",3,"Novel67",2,3941,"straight-ahead","-1","test",0,TRUE,FALSE,4,FALSE,"6"
"Dec 05 2014","22:03:51",17,"Live","No-socialFirst","Zero",4,"Chrome",6,"Same",0,"Novel95",3,"Novel95",3,3635,"straight-ahead","-1","exposure",0,TRUE,FALSE,4,FALSE,"6"
"Dec 05 2014","22:03:51",18,"Live","No-socialFirst","Zero",4,"Chrome",6,"Same",0,"Novel95",0,"Novel95",3,1687,"straight-ahead","-1","test",0,TRUE,FALSE,4,TRUE,"6"
"Dec 05 2014","22:03:51",19,"Live","No-socialFirst","Zero",4,"Chrome",7,"Switch",1,"Novel41",1,"Novel19",3,3482,"straight-ahead","-1","exposure",0,TRUE,FALSE,4,FALSE,"6"
"Dec 05 2014","22:03:51",20,"Live","No-socialFirst","Zero",4,"Chrome",7,"Switch",1,"Novel19",3,"Novel19",3,1918,"straight-ahead","-1","test",0,TRUE,FALSE,4,TRUE,"6"
"Dec 05 2014","22:03:51",21,"Live","No-socialFirst","Zero",4,"Chrome",8,"Same",0,"Novel73",0,"Novel73",0,2553,"up-left-4sec","0","exposure",0,TRUE,FALSE,4,TRUE,"6"
"Dec 05 2014","22:03:51",22,"Live","No-socialFirst","Zero",4,"Chrome",8,"Same",0,"Novel73",1,"Novel73",0,2325,"straight-ahead","-1","test",0,TRUE,FALSE,4,TRUE,"6"
"Dec 05 2014","22:03:51",23,"Live","No-socialFirst","Zero",4,"Chrome",9,"Switch",0,"Novel13",1,"Novel12",2,3294,"up-right-4sec","1","exposure",0,TRUE,FALSE,4,TRUE,"6"
"Dec 05 2014","22:03:51",24,"Live","No-socialFirst","Zero",4,"Chrome",9,"Switch",0,"Novel126",1,"Novel12",2,8478,"straight-ahead","-1","test",0,TRUE,FALSE,4,FALSE,"6"
"Dec 05 2014","22:03:51",25,"Live","No-socialFirst","Zero",4,"Chrome",10,"Same",1,"Novel75",0,"Novel75",0,5065,"up-left-4sec","0","exposure",0,TRUE,FALSE,4,TRUE,"6"
"Dec 05 2014","22:03:51",26,"Live","No-socialFirst","Zero",4,"Chrome",10,"Same",1,"Novel75",0,"Novel75",0,1981,"straight-ahead","-1","test",0,TRUE,FALSE,4,TRUE,"6"
"Dec 05 2014","22:03:51",27,"Live","No-socialFirst","Zero",4,"Chrome",11,"Switch",0,"Novel104",1,"Novel68",2,3188,"up-right-4sec","1","exposure",0,TRUE,FALSE,4,TRUE,"6"
"Dec 05 2014","22:03:51",28,"Live","No-socialFirst","Zero",4,"Chrome",11,"Switch",0,"Novel4",2,"Novel68",2,2830,"straight-ahead","-1","test",0,TRUE,FALSE,4,FALSE,"6"
"Dec 05 2014","22:03:51",29,"Live","No-socialFirst","Zero",4,"Chrome",12,"Same",1,"Novel100",1,"Novel100",1,1756,"up-right-4sec","1","exposure",0,TRUE,FALSE,4,TRUE,"6"
"Dec 05 2014","22:03:51",30,"Live","No-socialFirst","Zero",4,"Chrome",12,"Same",1,"Novel100",1,"Novel100",1,1532,"straight-ahead","-1","test",0,TRUE,FALSE,4,TRUE,"6"
"Dec 05 2014","22:03:51",31,"Live","No-socialFirst","Zero",4,"Chrome",13,"Switch",1,"Novel127",3,"Novel85",0,3783,"down-right-4sec","3","exposure",0,TRUE,FALSE,4,TRUE,"6"
"Dec 05 2014","22:03:51",32,"Live","No-socialFirst","Zero",4,"Chrome",13,"Switch",1,"Novel63",1,"Novel85",0,2318,"straight-ahead","-1","test",0,TRUE,FALSE,4,FALSE,"6"
"Dec 05 2014","22:03:51",33,"Live","No-socialFirst","Zero",4,"Chrome",14,"Same",0,"Novel136",1,"Novel136",1,3129,"up-right-4sec","1","exposure",0,TRUE,FALSE,4,TRUE,"6"
"Dec 05 2014","22:03:51",34,"Live","No-socialFirst","Zero",4,"Chrome",14,"Same",0,"Novel136",0,"Novel136",1,1938,"straight-ahead","-1","test",0,TRUE,FALSE,4,TRUE,"6"
"Dec 05 2014","22:03:51",35,"Live","No-socialFirst","Zero",4,"Chrome",15,"Switch",1,"Novel18",2,"Novel33",3,2973,"down-left-4sec","2","exposure",0,TRUE,FALSE,4,TRUE,"6"
"Dec 05 2014","22:03:51",36,"Live","No-socialFirst","Zero",4,"Chrome",15,"Switch",1,"Novel61",2,"Novel33",3,2627,"straight-ahead","-1","test",0,TRUE,FALSE,4,FALSE,"6"
"Dec 05 2014","11:53:26",1,"Live","No-socialFirst","Zero",4,"Chrome",0,"Same",0,"squirrel",0,"",0,3123,"up-left-4sec","0","example",0,TRUE,FALSE,4,TRUE,"7"
"Dec 05 2014","11:53:26",2,"Live","No-socialFirst","Zero",4,"Chrome",0,"Same",0,"squirrel",0,"",0,2657,"up-left-4sec","0","example",0,TRUE,FALSE,4,TRUE,"7"
"Dec 05 2014","11:53:26",3,"Live","No-socialFirst","Zero",4,"Chrome",0,"Same",0,"tomato",1,"",0,2008,"up-right-4sec","1","example",0,TRUE,FALSE,4,TRUE,"7"
"Dec 05 2014","11:53:26",4,"Live","No-socialFirst","Zero",4,"Chrome",0,"Same",0,"tomato",2,"",0,2041,"down-left-4sec","2","example",0,TRUE,FALSE,4,TRUE,"7"
"Dec 05 2014","11:53:26",5,"Live","No-socialFirst","Zero",4,"Chrome",0,"Same",0,"Novel108",1,"Novel108",1,7123,"straight-ahead","-1","exposure",0,TRUE,FALSE,4,FALSE,"7"
"Dec 05 2014","11:53:26",6,"Live","No-socialFirst","Zero",4,"Chrome",0,"Same",0,"Novel108",2,"Novel108",1,2214,"straight-ahead","-1","test",0,TRUE,TRUE,4,TRUE,"7"
"Dec 05 2014","11:53:26",7,"Live","No-socialFirst","Zero",4,"Chrome",1,"Switch",1,"Novel24",0,"Novel121",1,2358,"straight-ahead","-1","exposure",0,TRUE,FALSE,4,FALSE,"7"
"Dec 05 2014","11:53:26",8,"Live","No-socialFirst","Zero",4,"Chrome",1,"Switch",1,"Novel55",2,"Novel121",1,3211,"straight-ahead","-1","test",0,TRUE,FALSE,4,FALSE,"7"
"Dec 05 2014","11:53:26",9,"Live","No-socialFirst","Zero",4,"Chrome",2,"Same",1,"Novel85",3,"Novel85",3,3200,"straight-ahead","-1","exposure",0,TRUE,FALSE,4,FALSE,"7"
"Dec 05 2014","11:53:26",10,"Live","No-socialFirst","Zero",4,"Chrome",2,"Same",1,"Novel85",3,"Novel85",3,1505,"straight-ahead","-1","test",0,TRUE,FALSE,4,TRUE,"7"
"Dec 05 2014","11:53:26",11,"Live","No-socialFirst","Zero",4,"Chrome",3,"Switch",0,"Novel57",2,"Novel127",3,2434,"straight-ahead","-1","exposure",0,TRUE,FALSE,4,FALSE,"7"
"Dec 05 2014","11:53:26",12,"Live","No-socialFirst","Zero",4,"Chrome",3,"Switch",0,"Novel13",3,"Novel127",3,1809,"straight-ahead","-1","test",0,TRUE,FALSE,4,FALSE,"7"
"Dec 05 2014","11:53:26",13,"Live","No-socialFirst","Zero",4,"Chrome",4,"Same",0,"Novel25",1,"Novel25",1,3133,"straight-ahead","-1","exposure",0,TRUE,FALSE,4,FALSE,"7"
"Dec 05 2014","11:53:26",14,"Live","No-socialFirst","Zero",4,"Chrome",4,"Same",0,"Novel25",2,"Novel25",1,1290,"straight-ahead","-1","test",0,TRUE,FALSE,4,TRUE,"7"
"Dec 05 2014","11:53:26",15,"Live","No-socialFirst","Zero",4,"Chrome",5,"Switch",0,"Novel1",1,"Novel16",2,2283,"straight-ahead","-1","exposure",0,TRUE,FALSE,4,FALSE,"7"
"Dec 05 2014","11:53:26",16,"Live","No-socialFirst","Zero",4,"Chrome",5,"Switch",0,"Novel61",0,"Novel16",2,1604,"straight-ahead","-1","test",0,TRUE,FALSE,4,FALSE,"7"
"Dec 05 2014","11:53:26",17,"Live","No-socialFirst","Zero",4,"Chrome",6,"Same",1,"Novel37",0,"Novel37",0,844,"straight-ahead","-1","exposure",0,TRUE,FALSE,4,FALSE,"7"
"Dec 05 2014","11:53:26",18,"Live","No-socialFirst","Zero",4,"Chrome",6,"Same",1,"Novel37",0,"Novel37",0,757,"straight-ahead","-1","test",0,TRUE,FALSE,4,TRUE,"7"
"Dec 05 2014","11:53:26",19,"Live","No-socialFirst","Zero",4,"Chrome",7,"Switch",1,"Novel52",3,"Novel58",2,1648,"straight-ahead","-1","exposure",0,TRUE,FALSE,4,FALSE,"7"
"Dec 05 2014","11:53:26",20,"Live","No-socialFirst","Zero",4,"Chrome",7,"Switch",1,"Novel134",3,"Novel58",2,1647,"straight-ahead","-1","test",0,TRUE,FALSE,4,FALSE,"7"
"Dec 05 2014","11:53:26",21,"Live","No-socialFirst","Zero",4,"Chrome",8,"Same",0,"Novel60",3,"Novel60",3,2976,"down-right-4sec","3","exposure",0,TRUE,FALSE,4,TRUE,"7"
"Dec 05 2014","11:53:26",22,"Live","No-socialFirst","Zero",4,"Chrome",8,"Same",0,"Novel60",1,"Novel60",3,1733,"straight-ahead","-1","test",0,TRUE,FALSE,4,TRUE,"7"
"Dec 05 2014","11:53:26",23,"Live","No-socialFirst","Zero",4,"Chrome",9,"Switch",1,"Novel115",0,"Novel131",3,2416,"up-left-4sec","0","exposure",0,TRUE,FALSE,4,TRUE,"7"
"Dec 05 2014","11:53:26",24,"Live","No-socialFirst","Zero",4,"Chrome",9,"Switch",1,"Novel3",2,"Novel131",3,1484,"straight-ahead","-1","test",0,TRUE,FALSE,4,FALSE,"7"
"Dec 05 2014","11:53:26",25,"Live","No-socialFirst","Zero",4,"Chrome",10,"Same",1,"Novel129",2,"Novel129",2,2737,"down-left-4sec","2","exposure",0,TRUE,FALSE,4,TRUE,"7"
"Dec 05 2014","11:53:26",26,"Live","No-socialFirst","Zero",4,"Chrome",10,"Same",1,"Novel73",0,"Novel129",2,1297,"straight-ahead","-1","test",0,TRUE,FALSE,4,FALSE,"7"
"Dec 05 2014","11:53:26",27,"Live","No-socialFirst","Zero",4,"Chrome",11,"Switch",0,"Novel27",0,"Novel43",2,2608,"up-left-4sec","0","exposure",0,TRUE,FALSE,4,TRUE,"7"
"Dec 05 2014","11:53:26",28,"Live","No-socialFirst","Zero",4,"Chrome",11,"Switch",0,"Novel43",1,"Novel43",2,1714,"straight-ahead","-1","test",0,TRUE,FALSE,4,TRUE,"7"
"Dec 05 2014","11:53:26",29,"Live","No-socialFirst","Zero",4,"Chrome",12,"Same",0,"Novel126",0,"Novel126",0,2078,"down-left-4sec","2","exposure",0,TRUE,FALSE,4,FALSE,"7"
"Dec 05 2014","11:53:26",30,"Live","No-socialFirst","Zero",4,"Chrome",12,"Same",0,"Novel126",2,"Novel126",0,1339,"straight-ahead","-1","test",0,TRUE,FALSE,4,TRUE,"7"
"Dec 05 2014","11:53:26",31,"Live","No-socialFirst","Zero",4,"Chrome",13,"Switch",0,"Novel33",1,"Novel67",3,1304,"down-right-4sec","3","exposure",0,TRUE,FALSE,4,FALSE,"7"
"Dec 05 2014","11:53:26",32,"Live","No-socialFirst","Zero",4,"Chrome",13,"Switch",0,"Novel116",0,"Novel67",3,891,"straight-ahead","-1","test",0,TRUE,FALSE,4,FALSE,"7"
"Dec 05 2014","11:53:26",33,"Live","No-socialFirst","Zero",4,"Chrome",14,"Same",1,"Novel35",1,"Novel35",1,615,"up-left-4sec","0","exposure",0,TRUE,FALSE,4,FALSE,"7"
"Dec 05 2014","11:53:26",34,"Live","No-socialFirst","Zero",4,"Chrome",14,"Same",1,"Novel35",1,"Novel35",1,1119,"straight-ahead","-1","test",0,TRUE,FALSE,4,TRUE,"7"
"Dec 05 2014","11:53:26",35,"Live","No-socialFirst","Zero",4,"Chrome",15,"Switch",1,"Novel113",3,"Novel69",2,1264,"up-left-4sec","0","exposure",0,TRUE,FALSE,4,FALSE,"7"
"Dec 05 2014","11:53:26",36,"Live","No-socialFirst","Zero",4,"Chrome",15,"Switch",1,"Novel69",2,"Novel69",2,802,"straight-ahead","-1","test",0,TRUE,FALSE,4,TRUE,"7"
"Dec 05 2014","09:47:20",1,"Live","SocialFirst","Zero",4,"Chrome",0,"Switch",1,"squirrel",0,"",0,5751,"up-left-4sec","0","example",0,TRUE,FALSE,4,TRUE,"8"
"Dec 05 2014","09:47:20",2,"Live","SocialFirst","Zero",4,"Chrome",0,"Switch",1,"squirrel",0,"",0,2702,"up-left-4sec","0","example",0,TRUE,FALSE,4,TRUE,"8"
"Dec 05 2014","09:47:20",3,"Live","SocialFirst","Zero",4,"Chrome",0,"Switch",1,"tomato",1,"",0,2413,"up-right-4sec","1","example",0,TRUE,FALSE,4,TRUE,"8"
"Dec 05 2014","09:47:20",4,"Live","SocialFirst","Zero",4,"Chrome",0,"Switch",1,"tomato",2,"",0,2492,"down-left-4sec","2","example",0,TRUE,FALSE,4,TRUE,"8"
"Dec 05 2014","09:47:20",5,"Live","SocialFirst","Zero",4,"Chrome",0,"Switch",1,"Novel31",0,"Novel49",2,5276,"up-left-4sec","0","exposure",0,TRUE,FALSE,4,TRUE,"8"
"Dec 05 2014","09:47:20",6,"Live","SocialFirst","Zero",4,"Chrome",0,"Switch",1,"Novel18",0,"Novel49",2,8623,"straight-ahead","-1","test",0,TRUE,TRUE,4,FALSE,"8"
"Dec 05 2014","09:47:20",7,"Live","SocialFirst","Zero",4,"Chrome",1,"Same",0,"Novel99",3,"Novel99",3,4158,"down-right-4sec","3","exposure",0,TRUE,FALSE,4,TRUE,"8"
"Dec 05 2014","09:47:20",8,"Live","SocialFirst","Zero",4,"Chrome",1,"Same",0,"Novel99",0,"Novel99",3,1666,"straight-ahead","-1","test",0,TRUE,FALSE,4,TRUE,"8"
"Dec 05 2014","09:47:20",9,"Live","SocialFirst","Zero",4,"Chrome",2,"Switch",1,"Novel3",2,"Novel15",1,3710,"down-left-4sec","2","exposure",0,TRUE,FALSE,4,TRUE,"8"
"Dec 05 2014","09:47:20",10,"Live","SocialFirst","Zero",4,"Chrome",2,"Switch",1,"Novel15",1,"Novel15",1,4523,"straight-ahead","-1","test",0,TRUE,FALSE,4,TRUE,"8"
"Dec 05 2014","09:47:20",11,"Live","SocialFirst","Zero",4,"Chrome",3,"Same",0,"Novel66",0,"Novel66",0,5406,"up-left-4sec","0","exposure",0,TRUE,FALSE,4,TRUE,"8"
"Dec 05 2014","09:47:20",12,"Live","SocialFirst","Zero",4,"Chrome",3,"Same",0,"Novel66",3,"Novel66",0,1733,"straight-ahead","-1","test",0,TRUE,FALSE,4,TRUE,"8"
"Dec 05 2014","09:47:20",13,"Live","SocialFirst","Zero",4,"Chrome",4,"Switch",0,"Novel52",1,"Novel107",2,4019,"up-right-4sec","1","exposure",0,TRUE,FALSE,4,TRUE,"8"
"Dec 05 2014","09:47:20",14,"Live","SocialFirst","Zero",4,"Chrome",4,"Switch",0,"Novel7",1,"Novel107",2,1704,"straight-ahead","-1","test",0,TRUE,FALSE,4,FALSE,"8"
"Dec 05 2014","09:47:20",15,"Live","SocialFirst","Zero",4,"Chrome",5,"Same",1,"Novel12",2,"Novel12",2,3703,"down-left-4sec","2","exposure",0,TRUE,FALSE,4,TRUE,"8"
"Dec 05 2014","09:47:20",16,"Live","SocialFirst","Zero",4,"Chrome",5,"Same",1,"Novel12",2,"Novel12",2,1525,"straight-ahead","-1","test",0,TRUE,FALSE,4,TRUE,"8"
"Dec 05 2014","09:47:20",17,"Live","SocialFirst","Zero",4,"Chrome",6,"Switch",0,"Novel21",0,"Novel38",1,2894,"up-left-4sec","0","exposure",0,TRUE,FALSE,4,TRUE,"8"
"Dec 05 2014","09:47:20",18,"Live","SocialFirst","Zero",4,"Chrome",6,"Switch",0,"Novel45",3,"Novel38",1,1692,"straight-ahead","-1","test",0,TRUE,FALSE,4,FALSE,"8"
"Dec 05 2014","09:47:20",19,"Live","SocialFirst","Zero",4,"Chrome",7,"Same",1,"Novel20",1,"Novel20",1,2964,"up-right-4sec","1","exposure",0,TRUE,FALSE,4,TRUE,"8"
"Dec 05 2014","09:47:20",20,"Live","SocialFirst","Zero",4,"Chrome",7,"Same",1,"Novel20",1,"Novel20",1,1399,"straight-ahead","-1","test",0,TRUE,FALSE,4,TRUE,"8"
"Dec 05 2014","09:47:20",21,"Live","SocialFirst","Zero",4,"Chrome",8,"Switch",1,"Novel138",2,"Novel91",1,4518,"straight-ahead","-1","exposure",0,TRUE,FALSE,4,FALSE,"8"
"Dec 05 2014","09:47:20",22,"Live","SocialFirst","Zero",4,"Chrome",8,"Switch",1,"Novel64",2,"Novel91",1,1563,"straight-ahead","-1","test",0,TRUE,FALSE,4,FALSE,"8"
"Dec 05 2014","09:47:20",23,"Live","SocialFirst","Zero",4,"Chrome",9,"Same",0,"Novel104",2,"Novel104",2,4626,"straight-ahead","-1","exposure",0,TRUE,FALSE,4,FALSE,"8"
"Dec 05 2014","09:47:20",24,"Live","SocialFirst","Zero",4,"Chrome",9,"Same",0,"Novel104",0,"Novel104",2,1521,"straight-ahead","-1","test",0,TRUE,FALSE,4,TRUE,"8"
"Dec 05 2014","09:47:20",25,"Live","SocialFirst","Zero",4,"Chrome",10,"Switch",1,"Novel114",0,"Novel16",1,4157,"straight-ahead","-1","exposure",0,TRUE,FALSE,4,FALSE,"8"
"Dec 05 2014","09:47:20",26,"Live","SocialFirst","Zero",4,"Chrome",10,"Switch",1,"Novel65",0,"Novel16",1,1691,"straight-ahead","-1","test",0,TRUE,FALSE,4,FALSE,"8"
"Dec 05 2014","09:47:20",27,"Live","SocialFirst","Zero",4,"Chrome",11,"Same",0,"Novel37",2,"Novel37",2,3184,"straight-ahead","-1","exposure",0,TRUE,FALSE,4,FALSE,"8"
"Dec 05 2014","09:47:20",28,"Live","SocialFirst","Zero",4,"Chrome",11,"Same",0,"Novel37",3,"Novel37",2,1838,"straight-ahead","-1","test",0,TRUE,FALSE,4,TRUE,"8"
"Dec 05 2014","09:47:20",29,"Live","SocialFirst","Zero",4,"Chrome",12,"Switch",0,"Novel78",3,"Novel48",0,3481,"straight-ahead","-1","exposure",0,TRUE,FALSE,4,FALSE,"8"
"Dec 05 2014","09:47:20",30,"Live","SocialFirst","Zero",4,"Chrome",12,"Switch",0,"Novel48",3,"Novel48",0,2075,"straight-ahead","-1","test",0,TRUE,FALSE,4,TRUE,"8"
"Dec 05 2014","09:47:20",31,"Live","SocialFirst","Zero",4,"Chrome",13,"Same",1,"Novel111",2,"Novel111",2,2179,"straight-ahead","-1","exposure",0,TRUE,FALSE,4,FALSE,"8"
"Dec 05 2014","09:47:20",32,"Live","SocialFirst","Zero",4,"Chrome",13,"Same",1,"Novel111",2,"Novel111",2,1581,"straight-ahead","-1","test",0,TRUE,FALSE,4,TRUE,"8"
"Dec 05 2014","09:47:20",33,"Live","SocialFirst","Zero",4,"Chrome",14,"Switch",0,"Novel118",1,"Novel36",3,2765,"straight-ahead","-1","exposure",0,TRUE,FALSE,4,FALSE,"8"
"Dec 05 2014","09:47:20",34,"Live","SocialFirst","Zero",4,"Chrome",14,"Switch",0,"Novel51",2,"Novel36",3,1563,"straight-ahead","-1","test",0,TRUE,FALSE,4,FALSE,"8"
"Dec 05 2014","09:47:20",35,"Live","SocialFirst","Zero",4,"Chrome",15,"Same",1,"Novel83",2,"Novel83",2,3009,"straight-ahead","-1","exposure",0,TRUE,FALSE,4,FALSE,"8"
"Dec 05 2014","09:47:20",36,"Live","SocialFirst","Zero",4,"Chrome",15,"Same",1,"Novel83",2,"Novel83",2,1319,"straight-ahead","-1","test",0,TRUE,FALSE,4,TRUE,"8"
"Dec 05 2014","14:47:56",1,"Live","No-socialFirst","Zero",4,"Chrome",0,"Switch",1,"squirrel",0,"",0,2069,"up-left-4sec","0","example",0,TRUE,FALSE,4,TRUE,"9"
"Dec 05 2014","14:47:56",2,"Live","No-socialFirst","Zero",4,"Chrome",0,"Switch",1,"squirrel",0,"",0,1709,"up-left-4sec","0","example",0,TRUE,FALSE,4,TRUE,"9"
"Dec 05 2014","14:47:56",3,"Live","No-socialFirst","Zero",4,"Chrome",0,"Switch",1,"tomato",1,"",0,1610,"up-right-4sec","1","example",0,TRUE,FALSE,4,TRUE,"9"
"Dec 05 2014","14:47:56",4,"Live","No-socialFirst","Zero",4,"Chrome",0,"Switch",1,"tomato",2,"",0,1340,"down-left-4sec","2","example",0,TRUE,FALSE,4,TRUE,"9"
"Dec 05 2014","14:47:56",5,"Live","No-socialFirst","Zero",4,"Chrome",0,"Switch",1,"Novel78",3,"Novel104",0,3223,"straight-ahead","-1","exposure",0,TRUE,FALSE,4,FALSE,"9"
"Dec 05 2014","14:47:56",6,"Live","No-socialFirst","Zero",4,"Chrome",0,"Switch",1,"Novel37",1,"Novel104",0,3169,"straight-ahead","-1","test",0,TRUE,TRUE,4,FALSE,"9"
"Dec 05 2014","14:47:56",7,"Live","No-socialFirst","Zero",4,"Chrome",1,"Same",1,"Novel13",1,"Novel13",1,2943,"straight-ahead","-1","exposure",0,TRUE,FALSE,4,FALSE,"9"
"Dec 05 2014","14:47:56",8,"Live","No-socialFirst","Zero",4,"Chrome",1,"Same",1,"Novel13",1,"Novel13",1,2241,"straight-ahead","-1","test",0,TRUE,FALSE,4,TRUE,"9"
"Dec 05 2014","14:47:56",9,"Live","No-socialFirst","Zero",4,"Chrome",2,"Switch",1,"Novel61",1,"Novel119",0,4426,"straight-ahead","-1","exposure",0,TRUE,FALSE,4,FALSE,"9"
"Dec 05 2014","14:47:56",10,"Live","No-socialFirst","Zero",4,"Chrome",2,"Switch",1,"Novel119",0,"Novel119",0,1933,"straight-ahead","-1","test",0,TRUE,FALSE,4,TRUE,"9"
"Dec 05 2014","14:47:56",11,"Live","No-socialFirst","Zero",4,"Chrome",3,"Same",1,"Novel98",2,"Novel98",2,3803,"straight-ahead","-1","exposure",0,TRUE,FALSE,4,FALSE,"9"
"Dec 05 2014","14:47:56",12,"Live","No-socialFirst","Zero",4,"Chrome",3,"Same",1,"Novel98",2,"Novel98",2,1725,"straight-ahead","-1","test",0,TRUE,FALSE,4,TRUE,"9"
"Dec 05 2014","14:47:56",13,"Live","No-socialFirst","Zero",4,"Chrome",4,"Switch",0,"Novel101",0,"Novel112",3,4778,"straight-ahead","-1","exposure",0,TRUE,FALSE,4,FALSE,"9"
"Dec 05 2014","14:47:56",14,"Live","No-socialFirst","Zero",4,"Chrome",4,"Switch",0,"Novel110",0,"Novel112",3,2354,"straight-ahead","-1","test",0,TRUE,FALSE,4,FALSE,"9"
"Dec 05 2014","14:47:56",15,"Live","No-socialFirst","Zero",4,"Chrome",5,"Same",0,"Novel94",0,"Novel94",0,3720,"straight-ahead","-1","exposure",0,TRUE,FALSE,4,FALSE,"9"
"Dec 05 2014","14:47:56",16,"Live","No-socialFirst","Zero",4,"Chrome",5,"Same",0,"Novel94",3,"Novel94",0,2516,"straight-ahead","-1","test",0,TRUE,FALSE,4,TRUE,"9"
"Dec 05 2014","14:47:56",17,"Live","No-socialFirst","Zero",4,"Chrome",6,"Switch",0,"Novel28",2,"Novel11",0,5390,"straight-ahead","-1","exposure",0,TRUE,FALSE,4,FALSE,"9"
"Dec 05 2014","14:47:56",18,"Live","No-socialFirst","Zero",4,"Chrome",6,"Switch",0,"Novel11",1,"Novel11",0,1795,"straight-ahead","-1","test",0,TRUE,FALSE,4,TRUE,"9"
"Dec 05 2014","14:47:56",19,"Live","No-socialFirst","Zero",4,"Chrome",7,"Same",0,"Novel48",1,"Novel48",1,3138,"straight-ahead","-1","exposure",0,TRUE,FALSE,4,FALSE,"9"
"Dec 05 2014","14:47:56",20,"Live","No-socialFirst","Zero",4,"Chrome",7,"Same",0,"Novel48",2,"Novel48",1,1865,"straight-ahead","-1","test",0,TRUE,FALSE,4,TRUE,"9"
"Dec 05 2014","14:47:56",21,"Live","No-socialFirst","Zero",4,"Chrome",8,"Switch",1,"Novel114",3,"Novel108",1,1717,"down-right-4sec","3","exposure",0,TRUE,FALSE,4,TRUE,"9"
"Dec 05 2014","14:47:56",22,"Live","No-socialFirst","Zero",4,"Chrome",8,"Switch",1,"Novel108",1,"Novel108",1,2586,"straight-ahead","-1","test",0,TRUE,FALSE,4,TRUE,"9"
"Dec 05 2014","14:47:56",23,"Live","No-socialFirst","Zero",4,"Chrome",9,"Same",1,"Novel51",2,"Novel51",2,2460,"down-left-4sec","2","exposure",0,TRUE,FALSE,4,TRUE,"9"
"Dec 05 2014","14:47:56",24,"Live","No-socialFirst","Zero",4,"Chrome",9,"Same",1,"Novel51",2,"Novel51",2,1720,"straight-ahead","-1","test",0,TRUE,FALSE,4,TRUE,"9"
"Dec 05 2014","14:47:56",25,"Live","No-socialFirst","Zero",4,"Chrome",10,"Switch",1,"Novel137",0,"Novel10",2,1935,"up-left-4sec","0","exposure",0,TRUE,FALSE,4,TRUE,"9"
"Dec 05 2014","14:47:56",26,"Live","No-socialFirst","Zero",4,"Chrome",10,"Switch",1,"Novel7",1,"Novel10",2,7048,"straight-ahead","-1","test",0,TRUE,FALSE,4,FALSE,"9"
"Dec 05 2014","14:47:56",27,"Live","No-socialFirst","Zero",4,"Chrome",11,"Same",1,"Novel125",2,"Novel125",2,2269,"down-left-4sec","2","exposure",0,TRUE,FALSE,4,TRUE,"9"
"Dec 05 2014","14:47:56",28,"Live","No-socialFirst","Zero",4,"Chrome",11,"Same",1,"Novel125",2,"Novel125",2,1284,"straight-ahead","-1","test",0,TRUE,FALSE,4,TRUE,"9"
"Dec 05 2014","14:47:56",29,"Live","No-socialFirst","Zero",4,"Chrome",12,"Switch",0,"Novel70",2,"Novel25",1,2634,"down-left-4sec","2","exposure",0,TRUE,FALSE,4,TRUE,"9"
"Dec 05 2014","14:47:56",30,"Live","No-socialFirst","Zero",4,"Chrome",12,"Switch",0,"Novel17",3,"Novel25",1,3621,"straight-ahead","-1","test",0,TRUE,FALSE,4,FALSE,"9"
"Dec 05 2014","14:47:56",31,"Live","No-socialFirst","Zero",4,"Chrome",13,"Same",0,"Novel50",3,"Novel50",3,2660,"down-right-4sec","3","exposure",0,TRUE,FALSE,4,TRUE,"9"
"Dec 05 2014","14:47:56",32,"Live","No-socialFirst","Zero",4,"Chrome",13,"Same",0,"Novel50",0,"Novel50",3,2034,"straight-ahead","-1","test",0,TRUE,FALSE,4,TRUE,"9"
"Dec 05 2014","14:47:56",33,"Live","No-socialFirst","Zero",4,"Chrome",14,"Switch",0,"Novel118",0,"Novel57",3,2919,"up-left-4sec","0","exposure",0,TRUE,FALSE,4,TRUE,"9"
"Dec 05 2014","14:47:56",34,"Live","No-socialFirst","Zero",4,"Chrome",14,"Switch",0,"Novel22",1,"Novel57",3,1998,"straight-ahead","-1","test",0,TRUE,FALSE,4,FALSE,"9"
"Dec 05 2014","14:47:56",35,"Live","No-socialFirst","Zero",4,"Chrome",15,"Same",0,"Novel14",3,"Novel14",3,2292,"down-right-4sec","3","exposure",0,TRUE,FALSE,4,TRUE,"9"
"Dec 05 2014","14:47:56",36,"Live","No-socialFirst","Zero",4,"Chrome",15,"Same",0,"Novel14",1,"Novel14",3,2000,"straight-ahead","-1","test",0,TRUE,FALSE,4,TRUE,"9"
"Dec 05 2014","12:36:29",1,"Live","No-socialFirst","Zero",4,"Chrome",0,"Same",1,"squirrel",0,"",0,3943,"up-left-4sec","0","example",0,TRUE,FALSE,4,TRUE,"10"
"Dec 05 2014","12:36:29",2,"Live","No-socialFirst","Zero",4,"Chrome",0,"Same",1,"squirrel",0,"",0,2108,"up-left-4sec","0","example",0,TRUE,FALSE,4,TRUE,"10"
"Dec 05 2014","12:36:29",3,"Live","No-socialFirst","Zero",4,"Chrome",0,"Same",1,"tomato",1,"",0,1907,"up-right-4sec","1","example",0,TRUE,FALSE,4,TRUE,"10"
"Dec 05 2014","12:36:29",4,"Live","No-socialFirst","Zero",4,"Chrome",0,"Same",1,"tomato",2,"",0,1633,"down-left-4sec","2","example",0,TRUE,FALSE,4,TRUE,"10"
"Dec 05 2014","12:36:29",5,"Live","No-socialFirst","Zero",4,"Chrome",0,"Same",1,"Novel13",3,"Novel13",3,3552,"straight-ahead","-1","exposure",0,TRUE,FALSE,4,FALSE,"10"
"Dec 05 2014","12:36:29",6,"Live","No-socialFirst","Zero",4,"Chrome",0,"Same",1,"Novel13",3,"Novel13",3,2194,"straight-ahead","-1","test",0,TRUE,TRUE,4,TRUE,"10"
"Dec 05 2014","12:36:29",7,"Live","No-socialFirst","Zero",4,"Chrome",1,"Switch",1,"Novel75",1,"Novel93",3,4241,"straight-ahead","-1","exposure",0,TRUE,FALSE,4,FALSE,"10"
"Dec 05 2014","12:36:29",8,"Live","No-socialFirst","Zero",4,"Chrome",1,"Switch",1,"Novel7",2,"Novel93",3,2427,"straight-ahead","-1","test",0,TRUE,FALSE,4,FALSE,"10"
"Dec 05 2014","12:36:29",9,"Live","No-socialFirst","Zero",4,"Chrome",2,"Same",1,"Novel101",1,"Novel101",1,2851,"straight-ahead","-1","exposure",0,TRUE,FALSE,4,FALSE,"10"
"Dec 05 2014","12:36:29",10,"Live","No-socialFirst","Zero",4,"Chrome",2,"Same",1,"Novel101",1,"Novel101",1,1416,"straight-ahead","-1","test",0,TRUE,FALSE,4,TRUE,"10"
"Dec 05 2014","12:36:29",11,"Live","No-socialFirst","Zero",4,"Chrome",3,"Switch",0,"Novel83",1,"Novel73",3,4215,"straight-ahead","-1","exposure",0,TRUE,FALSE,4,FALSE,"10"
"Dec 05 2014","12:36:29",12,"Live","No-socialFirst","Zero",4,"Chrome",3,"Switch",0,"Novel90",2,"Novel73",3,2942,"straight-ahead","-1","test",0,TRUE,FALSE,4,FALSE,"10"
"Dec 05 2014","12:36:29",13,"Live","No-socialFirst","Zero",4,"Chrome",4,"Same",0,"Novel104",1,"Novel104",1,2209,"straight-ahead","-1","exposure",0,TRUE,FALSE,4,FALSE,"10"
"Dec 05 2014","12:36:29",14,"Live","No-socialFirst","Zero",4,"Chrome",4,"Same",0,"Novel104",0,"Novel104",1,1229,"straight-ahead","-1","test",0,TRUE,FALSE,4,TRUE,"10"
"Dec 05 2014","12:36:29",15,"Live","No-socialFirst","Zero",4,"Chrome",5,"Switch",0,"Novel27",3,"Novel20",2,2045,"straight-ahead","-1","exposure",0,TRUE,FALSE,4,FALSE,"10"
"Dec 05 2014","12:36:29",16,"Live","No-socialFirst","Zero",4,"Chrome",5,"Switch",0,"Novel34",0,"Novel20",2,2634,"straight-ahead","-1","test",0,TRUE,FALSE,4,FALSE,"10"
"Dec 05 2014","12:36:29",17,"Live","No-socialFirst","Zero",4,"Chrome",6,"Same",0,"Novel38",3,"Novel38",3,4240,"straight-ahead","-1","exposure",0,TRUE,FALSE,4,FALSE,"10"
"Dec 05 2014","12:36:29",18,"Live","No-socialFirst","Zero",4,"Chrome",6,"Same",0,"Novel38",1,"Novel38",3,1266,"straight-ahead","-1","test",0,TRUE,FALSE,4,TRUE,"10"
"Dec 05 2014","12:36:29",19,"Live","No-socialFirst","Zero",4,"Chrome",7,"Switch",1,"Novel87",2,"Novel36",1,3060,"straight-ahead","-1","exposure",0,TRUE,FALSE,4,FALSE,"10"
"Dec 05 2014","12:36:29",20,"Live","No-socialFirst","Zero",4,"Chrome",7,"Switch",1,"Novel36",1,"Novel36",1,2466,"straight-ahead","-1","test",0,TRUE,FALSE,4,TRUE,"10"
"Dec 05 2014","12:36:29",21,"Live","No-socialFirst","Zero",4,"Chrome",8,"Same",1,"Novel45",1,"Novel45",1,2506,"down-right-4sec","3","exposure",0,TRUE,FALSE,4,FALSE,"10"
"Dec 05 2014","12:36:29",22,"Live","No-socialFirst","Zero",4,"Chrome",8,"Same",1,"Novel45",1,"Novel45",1,1611,"straight-ahead","-1","test",0,TRUE,FALSE,4,TRUE,"10"
"Dec 05 2014","12:36:29",23,"Live","No-socialFirst","Zero",4,"Chrome",9,"Switch",1,"Novel119",3,"Novel108",0,2037,"down-left-4sec","2","exposure",0,TRUE,FALSE,4,FALSE,"10"
"Dec 05 2014","12:36:29",24,"Live","No-socialFirst","Zero",4,"Chrome",9,"Switch",1,"Novel35",1,"Novel108",0,1630,"straight-ahead","-1","test",0,TRUE,FALSE,4,FALSE,"10"
"Dec 05 2014","12:36:29",25,"Live","No-socialFirst","Zero",4,"Chrome",10,"Same",1,"Novel139",0,"Novel139",0,10764,"down-left-4sec","2","exposure",0,TRUE,FALSE,4,FALSE,"10"
"Dec 05 2014","12:36:29",26,"Live","No-socialFirst","Zero",4,"Chrome",10,"Same",1,"Novel139",0,"Novel139",0,1882,"straight-ahead","-1","test",0,TRUE,FALSE,4,TRUE,"10"
"Dec 05 2014","12:36:29",27,"Live","No-socialFirst","Zero",4,"Chrome",11,"Switch",0,"Novel69",2,"Novel102",0,3738,"up-right-4sec","1","exposure",0,TRUE,FALSE,4,FALSE,"10"
"Dec 05 2014","12:36:29",28,"Live","No-socialFirst","Zero",4,"Chrome",11,"Switch",0,"Novel8",0,"Novel102",0,1953,"straight-ahead","-1","test",0,TRUE,FALSE,4,FALSE,"10"
"Dec 05 2014","12:36:29",29,"Live","No-socialFirst","Zero",4,"Chrome",12,"Same",0,"Novel42",2,"Novel42",2,2363,"up-left-4sec","0","exposure",0,TRUE,FALSE,4,FALSE,"10"
"Dec 05 2014","12:36:29",30,"Live","No-socialFirst","Zero",4,"Chrome",12,"Same",0,"Novel42",1,"Novel42",2,2095,"straight-ahead","-1","test",0,TRUE,FALSE,4,TRUE,"10"
"Dec 05 2014","12:36:29",31,"Live","No-socialFirst","Zero",4,"Chrome",13,"Switch",0,"Novel115",2,"Novel9",1,2296,"down-left-4sec","2","exposure",0,TRUE,FALSE,4,TRUE,"10"
"Dec 05 2014","12:36:29",32,"Live","No-socialFirst","Zero",4,"Chrome",13,"Switch",0,"Novel15",1,"Novel9",1,1494,"straight-ahead","-1","test",0,TRUE,FALSE,4,FALSE,"10"
"Dec 05 2014","12:36:29",33,"Live","No-socialFirst","Zero",4,"Chrome",14,"Same",0,"Novel134",2,"Novel134",2,3430,"up-right-4sec","1","exposure",0,TRUE,FALSE,4,FALSE,"10"
"Dec 05 2014","12:36:29",34,"Live","No-socialFirst","Zero",4,"Chrome",14,"Same",0,"Novel134",1,"Novel134",2,1857,"straight-ahead","-1","test",0,TRUE,FALSE,4,TRUE,"10"
"Dec 05 2014","12:36:29",35,"Live","No-socialFirst","Zero",4,"Chrome",15,"Switch",1,"Novel128",0,"Novel1",2,2207,"up-left-4sec","0","exposure",0,TRUE,FALSE,4,TRUE,"10"
"Dec 05 2014","12:36:29",36,"Live","No-socialFirst","Zero",4,"Chrome",15,"Switch",1,"Novel1",2,"Novel1",2,1831,"straight-ahead","-1","test",0,TRUE,FALSE,4,TRUE,"10"
"Dec 05 2014","11:51:05",1,"Live","SocialFirst","Zero",4,"Chrome",0,"Same",0,"squirrel",0,"",0,1581,"up-left-4sec","0","example",0,TRUE,FALSE,4,TRUE,"11"
"Dec 05 2014","11:51:05",2,"Live","SocialFirst","Zero",4,"Chrome",0,"Same",0,"squirrel",0,"",0,1538,"up-left-4sec","0","example",0,TRUE,FALSE,4,TRUE,"11"
"Dec 05 2014","11:51:05",3,"Live","SocialFirst","Zero",4,"Chrome",0,"Same",0,"tomato",1,"",0,1639,"up-right-4sec","1","example",0,TRUE,FALSE,4,TRUE,"11"
"Dec 05 2014","11:51:05",4,"Live","SocialFirst","Zero",4,"Chrome",0,"Same",0,"tomato",2,"",0,1456,"down-left-4sec","2","example",0,TRUE,FALSE,4,TRUE,"11"
"Dec 05 2014","11:51:05",5,"Live","SocialFirst","Zero",4,"Chrome",0,"Same",0,"Novel137",1,"Novel137",1,2083,"up-right-4sec","1","exposure",0,TRUE,FALSE,4,TRUE,"11"
"Dec 05 2014","11:51:05",6,"Live","SocialFirst","Zero",4,"Chrome",0,"Same",0,"Novel137",0,"Novel137",1,2086,"straight-ahead","-1","test",0,TRUE,TRUE,4,TRUE,"11"
"Dec 05 2014","11:51:05",7,"Live","SocialFirst","Zero",4,"Chrome",1,"Switch",1,"Novel99",1,"Novel73",3,2046,"up-right-4sec","1","exposure",0,TRUE,FALSE,4,TRUE,"11"
"Dec 05 2014","11:51:05",8,"Live","SocialFirst","Zero",4,"Chrome",1,"Switch",1,"Novel48",2,"Novel73",3,2348,"straight-ahead","-1","test",0,TRUE,FALSE,4,FALSE,"11"
"Dec 05 2014","11:51:05",9,"Live","SocialFirst","Zero",4,"Chrome",2,"Same",0,"Novel71",1,"Novel71",1,1801,"up-right-4sec","1","exposure",0,TRUE,FALSE,4,TRUE,"11"
"Dec 05 2014","11:51:05",10,"Live","SocialFirst","Zero",4,"Chrome",2,"Same",0,"Novel71",2,"Novel71",1,1651,"straight-ahead","-1","test",0,TRUE,FALSE,4,TRUE,"11"
"Dec 05 2014","11:51:05",11,"Live","SocialFirst","Zero",4,"Chrome",3,"Switch",0,"Novel28",0,"Novel120",1,1949,"up-left-4sec","0","exposure",0,TRUE,FALSE,4,TRUE,"11"
"Dec 05 2014","11:51:05",12,"Live","SocialFirst","Zero",4,"Chrome",3,"Switch",0,"Novel49",0,"Novel120",1,1805,"straight-ahead","-1","test",0,TRUE,FALSE,4,FALSE,"11"
"Dec 05 2014","11:51:05",13,"Live","SocialFirst","Zero",4,"Chrome",4,"Same",1,"Novel46",1,"Novel46",1,2009,"up-right-4sec","1","exposure",0,TRUE,FALSE,4,TRUE,"11"
"Dec 05 2014","11:51:05",14,"Live","SocialFirst","Zero",4,"Chrome",4,"Same",1,"Novel46",1,"Novel46",1,1501,"straight-ahead","-1","test",0,TRUE,FALSE,4,TRUE,"11"
"Dec 05 2014","11:51:05",15,"Live","SocialFirst","Zero",4,"Chrome",5,"Switch",0,"Novel85",2,"Novel110",3,1931,"down-left-4sec","2","exposure",0,TRUE,FALSE,4,TRUE,"11"
"Dec 05 2014","11:51:05",16,"Live","SocialFirst","Zero",4,"Chrome",5,"Switch",0,"Novel67",3,"Novel110",3,2495,"straight-ahead","-1","test",0,TRUE,FALSE,4,FALSE,"11"
"Dec 05 2014","11:51:05",17,"Live","SocialFirst","Zero",4,"Chrome",6,"Same",1,"Novel136",0,"Novel136",0,1633,"up-left-4sec","0","exposure",0,TRUE,FALSE,4,TRUE,"11"
"Dec 05 2014","11:51:05",18,"Live","SocialFirst","Zero",4,"Chrome",6,"Same",1,"Novel136",0,"Novel136",0,1698,"straight-ahead","-1","test",0,TRUE,FALSE,4,TRUE,"11"
"Dec 05 2014","11:51:05",19,"Live","SocialFirst","Zero",4,"Chrome",7,"Switch",1,"Novel117",3,"Novel64",2,1822,"down-right-4sec","3","exposure",0,TRUE,FALSE,4,TRUE,"11"
"Dec 05 2014","11:51:05",20,"Live","SocialFirst","Zero",4,"Chrome",7,"Switch",1,"Novel64",2,"Novel64",2,1737,"straight-ahead","-1","test",0,TRUE,FALSE,4,TRUE,"11"
"Dec 05 2014","11:51:05",21,"Live","SocialFirst","Zero",4,"Chrome",8,"Same",0,"Novel121",0,"Novel121",0,3964,"straight-ahead","-1","exposure",0,TRUE,FALSE,4,FALSE,"11"
"Dec 05 2014","11:51:05",22,"Live","SocialFirst","Zero",4,"Chrome",8,"Same",0,"Novel121",2,"Novel121",0,2038,"straight-ahead","-1","test",0,TRUE,FALSE,4,TRUE,"11"
"Dec 05 2014","11:51:05",23,"Live","SocialFirst","Zero",4,"Chrome",9,"Switch",1,"Novel76",3,"Novel57",2,2067,"straight-ahead","-1","exposure",0,TRUE,FALSE,4,FALSE,"11"
"Dec 05 2014","11:51:05",24,"Live","SocialFirst","Zero",4,"Chrome",9,"Switch",1,"Novel57",2,"Novel57",2,1475,"straight-ahead","-1","test",0,TRUE,FALSE,4,TRUE,"11"
"Dec 05 2014","11:51:05",25,"Live","SocialFirst","Zero",4,"Chrome",10,"Same",0,"Novel84",3,"Novel84",3,3083,"straight-ahead","-1","exposure",0,TRUE,FALSE,4,FALSE,"11"
"Dec 05 2014","11:51:05",26,"Live","SocialFirst","Zero",4,"Chrome",10,"Same",0,"Novel84",1,"Novel84",3,3630,"straight-ahead","-1","test",0,TRUE,FALSE,4,TRUE,"11"
"Dec 05 2014","11:51:05",27,"Live","SocialFirst","Zero",4,"Chrome",11,"Switch",0,"Novel130",2,"Novel74",3,2835,"straight-ahead","-1","exposure",0,TRUE,FALSE,4,FALSE,"11"
"Dec 05 2014","11:51:05",28,"Live","SocialFirst","Zero",4,"Chrome",11,"Switch",0,"Novel74",0,"Novel74",3,1819,"straight-ahead","-1","test",0,TRUE,FALSE,4,TRUE,"11"
"Dec 05 2014","11:51:05",29,"Live","SocialFirst","Zero",4,"Chrome",12,"Same",1,"Novel91",1,"Novel91",1,3334,"straight-ahead","-1","exposure",0,TRUE,FALSE,4,FALSE,"11"
"Dec 05 2014","11:51:05",30,"Live","SocialFirst","Zero",4,"Chrome",12,"Same",1,"Novel91",1,"Novel91",1,2273,"straight-ahead","-1","test",0,TRUE,FALSE,4,TRUE,"11"
"Dec 05 2014","11:51:05",31,"Live","SocialFirst","Zero",4,"Chrome",13,"Switch",0,"Novel27",2,"Novel2",1,2453,"straight-ahead","-1","exposure",0,TRUE,FALSE,4,FALSE,"11"
"Dec 05 2014","11:51:05",32,"Live","SocialFirst","Zero",4,"Chrome",13,"Switch",0,"Novel9",0,"Novel2",1,1824,"straight-ahead","-1","test",0,TRUE,FALSE,4,FALSE,"11"
"Dec 05 2014","11:51:05",33,"Live","SocialFirst","Zero",4,"Chrome",14,"Same",1,"Novel81",2,"Novel81",2,2104,"straight-ahead","-1","exposure",0,TRUE,FALSE,4,FALSE,"11"
"Dec 05 2014","11:51:05",34,"Live","SocialFirst","Zero",4,"Chrome",14,"Same",1,"Novel81",2,"Novel81",2,1920,"straight-ahead","-1","test",0,TRUE,FALSE,4,TRUE,"11"
"Dec 05 2014","11:51:05",35,"Live","SocialFirst","Zero",4,"Chrome",15,"Switch",1,"Novel17",0,"Novel36",1,2142,"straight-ahead","-1","exposure",0,TRUE,FALSE,4,FALSE,"11"
"Dec 05 2014","11:51:05",36,"Live","SocialFirst","Zero",4,"Chrome",15,"Switch",1,"Novel36",1,"Novel36",1,1779,"straight-ahead","-1","test",0,TRUE,FALSE,4,TRUE,"11"
"Dec 05 2014","09:44:13",1,"Live","No-socialFirst","Zero",4,"Chrome",0,"Same",1,"squirrel",0,"",0,4690,"up-left-4sec","0","example",0,TRUE,FALSE,4,TRUE,"12"
"Dec 05 2014","09:44:13",2,"Live","No-socialFirst","Zero",4,"Chrome",0,"Same",1,"squirrel",0,"",0,2183,"up-left-4sec","0","example",0,TRUE,FALSE,4,TRUE,"12"
"Dec 05 2014","09:44:13",3,"Live","No-socialFirst","Zero",4,"Chrome",0,"Same",1,"tomato",1,"",0,1896,"up-right-4sec","1","example",0,TRUE,FALSE,4,TRUE,"12"
"Dec 05 2014","09:44:13",4,"Live","No-socialFirst","Zero",4,"Chrome",0,"Same",1,"tomato",2,"",0,1869,"down-left-4sec","2","example",0,TRUE,FALSE,4,TRUE,"12"
"Dec 05 2014","09:44:13",5,"Live","No-socialFirst","Zero",4,"Chrome",0,"Same",1,"Novel37",0,"Novel37",0,3657,"straight-ahead","-1","exposure",0,TRUE,FALSE,4,FALSE,"12"
"Dec 05 2014","09:44:13",6,"Live","No-socialFirst","Zero",4,"Chrome",0,"Same",1,"Novel37",0,"Novel37",0,4387,"straight-ahead","-1","test",0,TRUE,TRUE,4,TRUE,"12"
"Dec 05 2014","09:44:13",7,"Live","No-socialFirst","Zero",4,"Chrome",1,"Switch",0,"Novel2",2,"Novel46",3,3047,"straight-ahead","-1","exposure",0,TRUE,FALSE,4,FALSE,"12"
"Dec 05 2014","09:44:13",8,"Live","No-socialFirst","Zero",4,"Chrome",1,"Switch",0,"Novel72",0,"Novel46",3,3427,"straight-ahead","-1","test",0,TRUE,FALSE,4,FALSE,"12"
"Dec 05 2014","09:44:13",9,"Live","No-socialFirst","Zero",4,"Chrome",2,"Same",0,"Novel36",1,"Novel36",1,7247,"straight-ahead","-1","exposure",0,TRUE,FALSE,4,FALSE,"12"
"Dec 05 2014","09:44:13",10,"Live","No-socialFirst","Zero",4,"Chrome",2,"Same",0,"Novel36",2,"Novel36",1,3404,"straight-ahead","-1","test",0,TRUE,FALSE,4,TRUE,"12"
"Dec 05 2014","09:44:13",11,"Live","No-socialFirst","Zero",4,"Chrome",3,"Switch",1,"Novel19",3,"Novel67",2,3701,"straight-ahead","-1","exposure",0,TRUE,FALSE,4,FALSE,"12"
"Dec 05 2014","09:44:13",12,"Live","No-socialFirst","Zero",4,"Chrome",3,"Switch",1,"Novel67",2,"Novel67",2,5123,"straight-ahead","-1","test",0,TRUE,FALSE,4,TRUE,"12"
"Dec 05 2014","09:44:13",13,"Live","No-socialFirst","Zero",4,"Chrome",4,"Same",1,"Novel23",2,"Novel23",2,4443,"straight-ahead","-1","exposure",0,TRUE,FALSE,4,FALSE,"12"
"Dec 05 2014","09:44:13",14,"Live","No-socialFirst","Zero",4,"Chrome",4,"Same",1,"Novel23",2,"Novel23",2,1718,"straight-ahead","-1","test",0,TRUE,FALSE,4,TRUE,"12"
"Dec 05 2014","09:44:13",15,"Live","No-socialFirst","Zero",4,"Chrome",5,"Switch",1,"Novel112",0,"Novel53",3,2787,"straight-ahead","-1","exposure",0,TRUE,FALSE,4,FALSE,"12"
"Dec 05 2014","09:44:13",16,"Live","No-socialFirst","Zero",4,"Chrome",5,"Switch",1,"Novel53",3,"Novel53",3,2415,"straight-ahead","-1","test",0,TRUE,FALSE,4,TRUE,"12"
"Dec 05 2014","09:44:13",17,"Live","No-socialFirst","Zero",4,"Chrome",6,"Same",0,"Novel95",0,"Novel95",0,3610,"straight-ahead","-1","exposure",0,TRUE,FALSE,4,FALSE,"12"
"Dec 05 2014","09:44:13",18,"Live","No-socialFirst","Zero",4,"Chrome",6,"Same",0,"Novel95",3,"Novel95",0,1932,"straight-ahead","-1","test",0,TRUE,FALSE,4,TRUE,"12"
"Dec 05 2014","09:44:13",19,"Live","No-socialFirst","Zero",4,"Chrome",7,"Switch",0,"Novel88",2,"Novel47",1,3715,"straight-ahead","-1","exposure",0,TRUE,FALSE,4,FALSE,"12"
"Dec 05 2014","09:44:13",20,"Live","No-socialFirst","Zero",4,"Chrome",7,"Switch",0,"Novel47",3,"Novel47",1,2862,"straight-ahead","-1","test",0,TRUE,FALSE,4,TRUE,"12"
"Dec 05 2014","09:44:13",21,"Live","No-socialFirst","Zero",4,"Chrome",8,"Same",1,"Novel59",2,"Novel59",2,2057,"down-left-4sec","2","exposure",0,TRUE,FALSE,4,TRUE,"12"
"Dec 05 2014","09:44:13",22,"Live","No-socialFirst","Zero",4,"Chrome",8,"Same",1,"Novel59",2,"Novel59",2,2732,"straight-ahead","-1","test",0,TRUE,FALSE,4,TRUE,"12"
"Dec 05 2014","09:44:13",23,"Live","No-socialFirst","Zero",4,"Chrome",9,"Switch",0,"Novel57",1,"Novel22",3,1997,"up-right-4sec","1","exposure",0,TRUE,FALSE,4,TRUE,"12"
"Dec 05 2014","09:44:13",24,"Live","No-socialFirst","Zero",4,"Chrome",9,"Switch",0,"Novel74",1,"Novel22",3,2856,"straight-ahead","-1","test",0,TRUE,FALSE,4,FALSE,"12"
"Dec 05 2014","09:44:13",25,"Live","No-socialFirst","Zero",4,"Chrome",10,"Same",0,"Novel131",2,"Novel131",2,2159,"down-left-4sec","2","exposure",0,TRUE,FALSE,4,TRUE,"12"
"Dec 05 2014","09:44:13",26,"Live","No-socialFirst","Zero",4,"Chrome",10,"Same",0,"Novel131",1,"Novel131",2,1922,"straight-ahead","-1","test",0,TRUE,FALSE,4,TRUE,"12"
"Dec 05 2014","09:44:13",27,"Live","No-socialFirst","Zero",4,"Chrome",11,"Switch",1,"Novel116",3,"Novel86",1,2286,"down-right-4sec","3","exposure",0,TRUE,FALSE,4,TRUE,"12"
"Dec 05 2014","09:44:13",28,"Live","No-socialFirst","Zero",4,"Chrome",11,"Switch",1,"Novel63",3,"Novel86",1,1710,"straight-ahead","-1","test",0,TRUE,FALSE,4,FALSE,"12"
"Dec 05 2014","09:44:13",29,"Live","No-socialFirst","Zero",4,"Chrome",12,"Same",1,"Novel51",0,"Novel51",0,3521,"up-left-4sec","0","exposure",0,TRUE,FALSE,4,TRUE,"12"
"Dec 05 2014","09:44:13",30,"Live","No-socialFirst","Zero",4,"Chrome",12,"Same",1,"Novel51",0,"Novel51",0,1424,"straight-ahead","-1","test",0,TRUE,FALSE,4,TRUE,"12"
"Dec 05 2014","09:44:13",31,"Live","No-socialFirst","Zero",4,"Chrome",13,"Switch",1,"Novel111",1,"Novel136",3,1416,"up-right-4sec","1","exposure",0,TRUE,FALSE,4,TRUE,"12"
"Dec 05 2014","09:44:13",32,"Live","No-socialFirst","Zero",4,"Chrome",13,"Switch",1,"Novel14",2,"Novel136",3,1957,"straight-ahead","-1","test",0,TRUE,FALSE,4,FALSE,"12"
"Dec 05 2014","09:44:13",33,"Live","No-socialFirst","Zero",4,"Chrome",14,"Same",0,"Novel4",0,"Novel4",0,2785,"up-left-4sec","0","exposure",0,TRUE,FALSE,4,TRUE,"12"
"Dec 05 2014","09:44:13",34,"Live","No-socialFirst","Zero",4,"Chrome",14,"Same",0,"Novel4",3,"Novel4",0,1848,"straight-ahead","-1","test",0,TRUE,FALSE,4,TRUE,"12"
"Dec 05 2014","09:44:13",35,"Live","No-socialFirst","Zero",4,"Chrome",15,"Switch",0,"Novel15",3,"Novel138",0,2465,"down-right-4sec","3","exposure",0,TRUE,FALSE,4,TRUE,"12"
"Dec 05 2014","09:44:13",36,"Live","No-socialFirst","Zero",4,"Chrome",15,"Switch",0,"Novel118",0,"Novel138",0,3320,"straight-ahead","-1","test",0,TRUE,FALSE,4,FALSE,"12"
"Dec 05 2014","18:35:42",1,"Live","No-socialFirst","Zero",4,"Chrome",0,"Same",1,"squirrel",0,"",0,5603,"up-left-4sec","0","example",0,TRUE,FALSE,4,TRUE,"13"
"Dec 05 2014","18:35:42",2,"Live","No-socialFirst","Zero",4,"Chrome",0,"Same",1,"squirrel",0,"",0,2409,"up-left-4sec","0","example",0,TRUE,FALSE,4,TRUE,"13"
"Dec 05 2014","18:35:42",3,"Live","No-socialFirst","Zero",4,"Chrome",0,"Same",1,"tomato",1,"",0,2577,"up-right-4sec","1","example",0,TRUE,FALSE,4,TRUE,"13"
"Dec 05 2014","18:35:42",4,"Live","No-socialFirst","Zero",4,"Chrome",0,"Same",1,"tomato",2,"",0,1959,"down-left-4sec","2","example",0,TRUE,FALSE,4,TRUE,"13"
"Dec 05 2014","18:35:42",5,"Live","No-socialFirst","Zero",4,"Chrome",0,"Same",1,"Novel35",1,"Novel35",1,6261,"straight-ahead","-1","exposure",0,TRUE,FALSE,4,FALSE,"13"
"Dec 05 2014","18:35:42",6,"Live","No-socialFirst","Zero",4,"Chrome",0,"Same",1,"Novel35",1,"Novel35",1,4861,"straight-ahead","-1","test",0,TRUE,TRUE,4,TRUE,"13"
"Dec 05 2014","18:35:42",7,"Live","No-socialFirst","Zero",4,"Chrome",1,"Switch",0,"Novel89",1,"Novel125",0,7626,"straight-ahead","-1","exposure",0,TRUE,FALSE,4,FALSE,"13"
"Dec 05 2014","18:35:42",8,"Live","No-socialFirst","Zero",4,"Chrome",1,"Switch",0,"Novel125",1,"Novel125",0,5346,"straight-ahead","-1","test",0,TRUE,FALSE,4,TRUE,"13"
"Dec 05 2014","18:35:42",9,"Live","No-socialFirst","Zero",4,"Chrome",2,"Same",0,"Novel53",0,"Novel53",0,4069,"straight-ahead","-1","exposure",0,TRUE,FALSE,4,FALSE,"13"
"Dec 05 2014","18:35:42",10,"Live","No-socialFirst","Zero",4,"Chrome",2,"Same",0,"Novel53",1,"Novel53",0,2846,"straight-ahead","-1","test",0,TRUE,FALSE,4,TRUE,"13"
"Dec 05 2014","18:35:42",11,"Live","No-socialFirst","Zero",4,"Chrome",3,"Switch",1,"Novel5",0,"Novel16",2,3558,"straight-ahead","-1","exposure",0,TRUE,FALSE,4,FALSE,"13"
"Dec 05 2014","18:35:42",12,"Live","No-socialFirst","Zero",4,"Chrome",3,"Switch",1,"Novel99",0,"Novel16",2,4181,"straight-ahead","-1","test",0,TRUE,FALSE,4,FALSE,"13"
"Dec 05 2014","18:35:42",13,"Live","No-socialFirst","Zero",4,"Chrome",4,"Same",0,"Novel17",2,"Novel17",2,4553,"straight-ahead","-1","exposure",0,TRUE,FALSE,4,FALSE,"13"
"Dec 05 2014","18:35:42",14,"Live","No-socialFirst","Zero",4,"Chrome",4,"Same",0,"Novel17",3,"Novel17",2,2470,"straight-ahead","-1","test",0,TRUE,FALSE,4,TRUE,"13"
"Dec 05 2014","18:35:42",15,"Live","No-socialFirst","Zero",4,"Chrome",5,"Switch",0,"Novel96",1,"Novel98",0,4039,"straight-ahead","-1","exposure",0,TRUE,FALSE,4,FALSE,"13"
"Dec 05 2014","18:35:42",16,"Live","No-socialFirst","Zero",4,"Chrome",5,"Switch",0,"Novel24",2,"Novel98",0,2588,"straight-ahead","-1","test",0,TRUE,FALSE,4,FALSE,"13"
"Dec 05 2014","18:35:42",17,"Live","No-socialFirst","Zero",4,"Chrome",6,"Same",1,"Novel94",3,"Novel94",3,5220,"straight-ahead","-1","exposure",0,TRUE,FALSE,4,FALSE,"13"
"Dec 05 2014","18:35:42",18,"Live","No-socialFirst","Zero",4,"Chrome",6,"Same",1,"Novel94",3,"Novel94",3,2456,"straight-ahead","-1","test",0,TRUE,FALSE,4,TRUE,"13"
"Dec 05 2014","18:35:42",19,"Live","No-socialFirst","Zero",4,"Chrome",7,"Switch",1,"Novel2",1,"Novel47",3,3896,"straight-ahead","-1","exposure",0,TRUE,FALSE,4,FALSE,"13"
"Dec 05 2014","18:35:42",20,"Live","No-socialFirst","Zero",4,"Chrome",7,"Switch",1,"Novel47",3,"Novel47",3,2111,"straight-ahead","-1","test",0,TRUE,FALSE,4,TRUE,"13"
"Dec 05 2014","18:35:42",21,"Live","No-socialFirst","Zero",4,"Chrome",8,"Same",1,"Novel19",1,"Novel19",1,3802,"up-right-4sec","1","exposure",0,TRUE,FALSE,4,TRUE,"13"
"Dec 05 2014","18:35:42",22,"Live","No-socialFirst","Zero",4,"Chrome",8,"Same",1,"Novel19",1,"Novel19",1,3034,"straight-ahead","-1","test",0,TRUE,FALSE,4,TRUE,"13"
"Dec 05 2014","18:35:42",23,"Live","No-socialFirst","Zero",4,"Chrome",9,"Switch",0,"Novel133",0,"Novel73",3,7136,"up-left-4sec","0","exposure",0,TRUE,FALSE,4,TRUE,"13"
"Dec 05 2014","18:35:42",24,"Live","No-socialFirst","Zero",4,"Chrome",9,"Switch",0,"Novel73",2,"Novel73",3,2450,"straight-ahead","-1","test",0,TRUE,FALSE,4,TRUE,"13"
"Dec 05 2014","18:35:42",25,"Live","No-socialFirst","Zero",4,"Chrome",10,"Same",0,"Novel116",2,"Novel116",2,2799,"down-left-4sec","2","exposure",0,TRUE,FALSE,4,TRUE,"13"
"Dec 05 2014","18:35:42",26,"Live","No-socialFirst","Zero",4,"Chrome",10,"Same",0,"Novel116",3,"Novel116",2,2120,"straight-ahead","-1","test",0,TRUE,FALSE,4,TRUE,"13"
"Dec 05 2014","18:35:42",27,"Live","No-socialFirst","Zero",4,"Chrome",11,"Switch",1,"Novel103",2,"Novel75",0,3139,"down-left-4sec","2","exposure",0,TRUE,FALSE,4,TRUE,"13"
"Dec 05 2014","18:35:42",28,"Live","No-socialFirst","Zero",4,"Chrome",11,"Switch",1,"Novel75",0,"Novel75",0,2368,"straight-ahead","-1","test",0,TRUE,FALSE,4,TRUE,"13"
"Dec 05 2014","18:35:42",29,"Live","No-socialFirst","Zero",4,"Chrome",12,"Same",0,"Novel11",2,"Novel11",2,2172,"down-left-4sec","2","exposure",0,TRUE,FALSE,4,TRUE,"13"
"Dec 05 2014","18:35:42",30,"Live","No-socialFirst","Zero",4,"Chrome",12,"Same",0,"Novel11",3,"Novel11",2,1831,"straight-ahead","-1","test",0,TRUE,FALSE,4,TRUE,"13"
"Dec 05 2014","18:35:42",31,"Live","No-socialFirst","Zero",4,"Chrome",13,"Switch",0,"Novel30",0,"Novel77",3,2989,"up-left-4sec","0","exposure",0,TRUE,FALSE,4,TRUE,"13"
"Dec 05 2014","18:35:42",32,"Live","No-socialFirst","Zero",4,"Chrome",13,"Switch",0,"Novel62",1,"Novel77",3,2136,"straight-ahead","-1","test",0,TRUE,FALSE,4,FALSE,"13"
"Dec 05 2014","18:35:42",33,"Live","No-socialFirst","Zero",4,"Chrome",14,"Same",1,"Novel12",0,"Novel12",0,2153,"up-left-4sec","0","exposure",0,TRUE,FALSE,4,TRUE,"13"
"Dec 05 2014","18:35:42",34,"Live","No-socialFirst","Zero",4,"Chrome",14,"Same",1,"Novel12",0,"Novel12",0,1927,"straight-ahead","-1","test",0,TRUE,FALSE,4,TRUE,"13"
"Dec 05 2014","18:35:42",35,"Live","No-socialFirst","Zero",4,"Chrome",15,"Switch",1,"Novel10",0,"Novel37",1,2685,"up-left-4sec","0","exposure",0,TRUE,FALSE,4,TRUE,"13"
"Dec 05 2014","18:35:42",36,"Live","No-socialFirst","Zero",4,"Chrome",15,"Switch",1,"Novel3",2,"Novel37",1,4013,"straight-ahead","-1","test",0,TRUE,FALSE,4,FALSE,"13"
"Dec 05 2014","22:43:36",1,"Live","SocialFirst","Zero",4,"Chrome",0,"Same",0,"squirrel",0,"",0,3016,"up-left-4sec","0","example",0,TRUE,FALSE,4,TRUE,"14"
"Dec 05 2014","22:43:36",2,"Live","SocialFirst","Zero",4,"Chrome",0,"Same",0,"squirrel",0,"",0,4023,"up-left-4sec","0","example",0,TRUE,FALSE,4,TRUE,"14"
"Dec 05 2014","22:43:36",3,"Live","SocialFirst","Zero",4,"Chrome",0,"Same",0,"tomato",1,"",0,2314,"up-right-4sec","1","example",0,TRUE,FALSE,4,TRUE,"14"
"Dec 05 2014","22:43:36",4,"Live","SocialFirst","Zero",4,"Chrome",0,"Same",0,"tomato",2,"",0,3694,"down-left-4sec","2","example",0,TRUE,FALSE,4,TRUE,"14"
"Dec 05 2014","22:43:36",5,"Live","SocialFirst","Zero",4,"Chrome",0,"Same",0,"Novel111",2,"Novel111",2,3827,"down-left-4sec","2","exposure",0,TRUE,FALSE,4,TRUE,"14"
"Dec 05 2014","22:43:36",6,"Live","SocialFirst","Zero",4,"Chrome",0,"Same",0,"Novel111",1,"Novel111",2,4910,"straight-ahead","-1","test",0,TRUE,TRUE,4,TRUE,"14"
"Dec 05 2014","22:43:36",7,"Live","SocialFirst","Zero",4,"Chrome",1,"Switch",0,"Novel96",3,"Novel5",0,2804,"down-right-4sec","3","exposure",0,TRUE,FALSE,4,TRUE,"14"
"Dec 05 2014","22:43:36",8,"Live","SocialFirst","Zero",4,"Chrome",1,"Switch",0,"Novel5",2,"Novel5",0,7376,"straight-ahead","-1","test",0,TRUE,FALSE,4,TRUE,"14"
"Dec 05 2014","22:43:36",9,"Live","SocialFirst","Zero",4,"Chrome",2,"Same",0,"Novel113",1,"Novel113",1,2749,"up-right-4sec","1","exposure",0,TRUE,FALSE,4,TRUE,"14"
"Dec 05 2014","22:43:36",10,"Live","SocialFirst","Zero",4,"Chrome",2,"Same",0,"Novel113",0,"Novel113",1,1571,"straight-ahead","-1","test",0,TRUE,FALSE,4,TRUE,"14"
"Dec 05 2014","22:43:36",11,"Live","SocialFirst","Zero",4,"Chrome",3,"Switch",1,"Novel121",1,"Novel93",0,1841,"up-right-4sec","1","exposure",0,TRUE,FALSE,4,TRUE,"14"
"Dec 05 2014","22:43:36",12,"Live","SocialFirst","Zero",4,"Chrome",3,"Switch",1,"Novel33",3,"Novel93",0,6786,"straight-ahead","-1","test",0,TRUE,FALSE,4,FALSE,"14"
"Dec 05 2014","22:43:36",13,"Live","SocialFirst","Zero",4,"Chrome",4,"Same",1,"Novel73",3,"Novel73",3,3499,"down-right-4sec","3","exposure",0,TRUE,FALSE,4,TRUE,"14"
"Dec 05 2014","22:43:36",14,"Live","SocialFirst","Zero",4,"Chrome",4,"Same",1,"Novel73",3,"Novel73",3,1705,"straight-ahead","-1","test",0,TRUE,FALSE,4,TRUE,"14"
"Dec 05 2014","22:43:36",15,"Live","SocialFirst","Zero",4,"Chrome",5,"Switch",1,"Novel54",1,"Novel12",3,2549,"up-right-4sec","1","exposure",0,TRUE,FALSE,4,TRUE,"14"
"Dec 05 2014","22:43:36",16,"Live","SocialFirst","Zero",4,"Chrome",5,"Switch",1,"Novel25",1,"Novel12",3,1575,"straight-ahead","-1","test",0,TRUE,FALSE,4,FALSE,"14"
"Dec 05 2014","22:43:36",17,"Live","SocialFirst","Zero",4,"Chrome",6,"Same",1,"Novel130",0,"Novel130",0,2756,"up-left-4sec","0","exposure",0,TRUE,FALSE,4,TRUE,"14"
"Dec 05 2014","22:43:36",18,"Live","SocialFirst","Zero",4,"Chrome",6,"Same",1,"Novel130",0,"Novel130",0,1582,"straight-ahead","-1","test",0,TRUE,FALSE,4,TRUE,"14"
"Dec 05 2014","22:43:36",19,"Live","SocialFirst","Zero",4,"Chrome",7,"Switch",0,"Novel64",0,"Novel98",3,1661,"up-left-4sec","0","exposure",0,TRUE,FALSE,4,TRUE,"14"
"Dec 05 2014","22:43:36",20,"Live","SocialFirst","Zero",4,"Chrome",7,"Switch",0,"Novel98",2,"Novel98",3,1495,"straight-ahead","-1","test",0,TRUE,FALSE,4,TRUE,"14"
"Dec 05 2014","22:43:36",21,"Live","SocialFirst","Zero",4,"Chrome",8,"Same",0,"Novel131",2,"Novel131",2,5101,"straight-ahead","-1","exposure",0,TRUE,FALSE,4,FALSE,"14"
"Dec 05 2014","22:43:36",22,"Live","SocialFirst","Zero",4,"Chrome",8,"Same",0,"Novel131",0,"Novel131",2,3036,"straight-ahead","-1","test",0,TRUE,FALSE,4,TRUE,"14"
"Dec 05 2014","22:43:36",23,"Live","SocialFirst","Zero",4,"Chrome",9,"Switch",0,"Novel42",1,"Novel35",0,2961,"straight-ahead","-1","exposure",0,TRUE,FALSE,4,FALSE,"14"
"Dec 05 2014","22:43:36",24,"Live","SocialFirst","Zero",4,"Chrome",9,"Switch",0,"Novel35",1,"Novel35",0,2846,"straight-ahead","-1","test",0,TRUE,FALSE,4,TRUE,"14"
"Dec 05 2014","22:43:36",25,"Live","SocialFirst","Zero",4,"Chrome",10,"Same",0,"Novel134",1,"Novel134",1,3293,"straight-ahead","-1","exposure",0,TRUE,FALSE,4,FALSE,"14"
"Dec 05 2014","22:43:36",26,"Live","SocialFirst","Zero",4,"Chrome",10,"Same",0,"Novel114",2,"Novel134",1,2476,"straight-ahead","-1","test",0,TRUE,FALSE,4,FALSE,"14"
"Dec 05 2014","22:43:36",27,"Live","SocialFirst","Zero",4,"Chrome",11,"Switch",1,"Novel46",1,"Novel136",3,2802,"straight-ahead","-1","exposure",0,TRUE,FALSE,4,FALSE,"14"
"Dec 05 2014","22:43:36",28,"Live","SocialFirst","Zero",4,"Chrome",11,"Switch",1,"Novel32",0,"Novel136",3,1335,"straight-ahead","-1","test",0,TRUE,FALSE,4,FALSE,"14"
"Dec 05 2014","22:43:36",29,"Live","SocialFirst","Zero",4,"Chrome",12,"Same",1,"Novel26",0,"Novel26",0,3400,"straight-ahead","-1","exposure",0,TRUE,FALSE,4,FALSE,"14"
"Dec 05 2014","22:43:36",30,"Live","SocialFirst","Zero",4,"Chrome",12,"Same",1,"Novel26",0,"Novel26",0,1637,"straight-ahead","-1","test",0,TRUE,FALSE,4,TRUE,"14"
"Dec 05 2014","22:43:36",31,"Live","SocialFirst","Zero",4,"Chrome",13,"Switch",1,"Novel30",0,"Novel24",3,2374,"straight-ahead","-1","exposure",0,TRUE,FALSE,4,FALSE,"14"
"Dec 05 2014","22:43:36",32,"Live","SocialFirst","Zero",4,"Chrome",13,"Switch",1,"Novel80",0,"Novel24",3,1847,"straight-ahead","-1","test",0,TRUE,FALSE,4,FALSE,"14"
"Dec 05 2014","22:43:36",33,"Live","SocialFirst","Zero",4,"Chrome",14,"Same",1,"Novel72",1,"Novel72",1,4334,"straight-ahead","-1","exposure",0,TRUE,FALSE,4,FALSE,"14"
"Dec 05 2014","22:43:36",34,"Live","SocialFirst","Zero",4,"Chrome",14,"Same",1,"Novel72",1,"Novel72",1,1271,"straight-ahead","-1","test",0,TRUE,FALSE,4,TRUE,"14"
"Dec 05 2014","22:43:36",35,"Live","SocialFirst","Zero",4,"Chrome",15,"Switch",0,"Novel128",2,"Novel97",1,3263,"straight-ahead","-1","exposure",0,TRUE,FALSE,4,FALSE,"14"
"Dec 05 2014","22:43:36",36,"Live","SocialFirst","Zero",4,"Chrome",15,"Switch",0,"Novel97",2,"Novel97",1,1336,"straight-ahead","-1","test",0,TRUE,FALSE,4,TRUE,"14"
"Dec 06 2014","12:48:14",1,"Live","No-socialFirst","Zero",4,"Chrome",0,"Switch",1,"squirrel",0,"",0,2252,"up-left-4sec","0","example",0,TRUE,FALSE,4,TRUE,"15"
"Dec 06 2014","12:48:14",2,"Live","No-socialFirst","Zero",4,"Chrome",0,"Switch",1,"squirrel",0,"",0,2339,"up-left-4sec","0","example",0,TRUE,FALSE,4,TRUE,"15"
"Dec 06 2014","12:48:14",3,"Live","No-socialFirst","Zero",4,"Chrome",0,"Switch",1,"tomato",1,"",0,1862,"up-right-4sec","1","example",0,TRUE,FALSE,4,TRUE,"15"
"Dec 06 2014","12:48:14",4,"Live","No-socialFirst","Zero",4,"Chrome",0,"Switch",1,"tomato",2,"",0,1566,"down-left-4sec","2","example",0,TRUE,FALSE,4,TRUE,"15"
"Dec 06 2014","12:48:14",5,"Live","No-socialFirst","Zero",4,"Chrome",0,"Switch",1,"Novel121",1,"Novel86",0,12698,"straight-ahead","-1","exposure",0,TRUE,FALSE,4,FALSE,"15"
"Dec 06 2014","12:48:14",6,"Live","No-socialFirst","Zero",4,"Chrome",0,"Switch",1,"Novel130",1,"Novel86",0,1977,"straight-ahead","-1","test",0,TRUE,TRUE,4,FALSE,"15"
"Dec 06 2014","12:48:14",7,"Live","No-socialFirst","Zero",4,"Chrome",1,"Same",0,"Novel59",2,"Novel59",2,2378,"straight-ahead","-1","exposure",0,TRUE,FALSE,4,FALSE,"15"
"Dec 06 2014","12:48:14",8,"Live","No-socialFirst","Zero",4,"Chrome",1,"Same",0,"Novel59",0,"Novel59",2,1670,"straight-ahead","-1","test",0,TRUE,FALSE,4,TRUE,"15"
"Dec 06 2014","12:48:14",9,"Live","No-socialFirst","Zero",4,"Chrome",2,"Switch",0,"Novel45",3,"Novel78",0,4149,"straight-ahead","-1","exposure",0,TRUE,FALSE,4,FALSE,"15"
"Dec 06 2014","12:48:14",10,"Live","No-socialFirst","Zero",4,"Chrome",2,"Switch",0,"Novel79",0,"Novel78",0,2992,"straight-ahead","-1","test",0,TRUE,FALSE,4,FALSE,"15"
"Dec 06 2014","12:48:14",11,"Live","No-socialFirst","Zero",4,"Chrome",3,"Same",1,"Novel57",3,"Novel57",3,3297,"straight-ahead","-1","exposure",0,TRUE,FALSE,4,FALSE,"15"
"Dec 06 2014","12:48:14",12,"Live","No-socialFirst","Zero",4,"Chrome",3,"Same",1,"Novel57",3,"Novel57",3,2035,"straight-ahead","-1","test",0,TRUE,FALSE,4,TRUE,"15"
"Dec 06 2014","12:48:14",13,"Live","No-socialFirst","Zero",4,"Chrome",4,"Switch",1,"Novel53",1,"Novel20",3,2020,"straight-ahead","-1","exposure",0,TRUE,FALSE,4,FALSE,"15"
"Dec 06 2014","12:48:14",14,"Live","No-socialFirst","Zero",4,"Chrome",4,"Switch",1,"Novel103",1,"Novel20",3,1622,"straight-ahead","-1","test",0,TRUE,FALSE,4,FALSE,"15"
"Dec 06 2014","12:48:14",15,"Live","No-socialFirst","Zero",4,"Chrome",5,"Same",0,"Novel25",2,"Novel25",2,1806,"straight-ahead","-1","exposure",0,TRUE,FALSE,4,FALSE,"15"
"Dec 06 2014","12:48:14",16,"Live","No-socialFirst","Zero",4,"Chrome",5,"Same",0,"Novel60",2,"Novel25",2,1395,"straight-ahead","-1","test",0,TRUE,FALSE,4,FALSE,"15"
"Dec 06 2014","12:48:14",17,"Live","No-socialFirst","Zero",4,"Chrome",6,"Switch",0,"Novel23",2,"Novel133",1,2477,"straight-ahead","-1","exposure",0,TRUE,FALSE,4,FALSE,"15"
"Dec 06 2014","12:48:14",18,"Live","No-socialFirst","Zero",4,"Chrome",6,"Switch",0,"Novel35",1,"Novel133",1,1598,"straight-ahead","-1","test",0,TRUE,FALSE,4,FALSE,"15"
"Dec 06 2014","12:48:14",19,"Live","No-socialFirst","Zero",4,"Chrome",7,"Same",1,"Novel11",1,"Novel11",1,1628,"straight-ahead","-1","exposure",0,TRUE,FALSE,4,FALSE,"15"
"Dec 06 2014","12:48:14",20,"Live","No-socialFirst","Zero",4,"Chrome",7,"Same",1,"Novel11",1,"Novel11",1,1383,"straight-ahead","-1","test",0,TRUE,FALSE,4,TRUE,"15"
"Dec 06 2014","12:48:14",21,"Live","No-socialFirst","Zero",4,"Chrome",8,"Switch",1,"Novel24",2,"Novel101",3,2131,"down-left-4sec","2","exposure",0,TRUE,FALSE,4,TRUE,"15"
"Dec 06 2014","12:48:14",22,"Live","No-socialFirst","Zero",4,"Chrome",8,"Switch",1,"Novel134",2,"Novel101",3,1692,"straight-ahead","-1","test",0,TRUE,FALSE,4,FALSE,"15"
"Dec 06 2014","12:48:14",23,"Live","No-socialFirst","Zero",4,"Chrome",9,"Same",0,"Novel58",3,"Novel58",3,1285,"down-right-4sec","3","exposure",0,TRUE,FALSE,4,TRUE,"15"
"Dec 06 2014","12:48:14",24,"Live","No-socialFirst","Zero",4,"Chrome",9,"Same",0,"Novel92",3,"Novel58",3,1543,"straight-ahead","-1","test",0,TRUE,FALSE,4,FALSE,"15"
"Dec 06 2014","12:48:14",25,"Live","No-socialFirst","Zero",4,"Chrome",10,"Switch",0,"Novel139",1,"Novel10",3,1410,"up-right-4sec","1","exposure",0,TRUE,FALSE,4,TRUE,"15"
"Dec 06 2014","12:48:14",26,"Live","No-socialFirst","Zero",4,"Chrome",10,"Switch",0,"Novel10",1,"Novel10",3,1223,"straight-ahead","-1","test",0,TRUE,FALSE,4,TRUE,"15"
"Dec 06 2014","12:48:14",27,"Live","No-socialFirst","Zero",4,"Chrome",11,"Same",1,"Novel99",1,"Novel99",1,1703,"up-right-4sec","1","exposure",0,TRUE,FALSE,4,TRUE,"15"
"Dec 06 2014","12:48:14",28,"Live","No-socialFirst","Zero",4,"Chrome",11,"Same",1,"Novel99",1,"Novel99",1,1469,"straight-ahead","-1","test",0,TRUE,FALSE,4,TRUE,"15"
"Dec 06 2014","12:48:14",29,"Live","No-socialFirst","Zero",4,"Chrome",12,"Switch",1,"Novel37",3,"Novel84",2,2077,"down-right-4sec","3","exposure",0,TRUE,FALSE,4,TRUE,"15"
"Dec 06 2014","12:48:14",30,"Live","No-socialFirst","Zero",4,"Chrome",12,"Switch",1,"Novel55",3,"Novel84",2,1230,"straight-ahead","-1","test",0,TRUE,FALSE,4,FALSE,"15"
"Dec 06 2014","12:48:14",31,"Live","No-socialFirst","Zero",4,"Chrome",13,"Same",0,"Novel17",2,"Novel17",2,2825,"down-left-4sec","2","exposure",0,TRUE,FALSE,4,TRUE,"15"
"Dec 06 2014","12:48:14",32,"Live","No-socialFirst","Zero",4,"Chrome",13,"Same",0,"Novel70",2,"Novel17",2,1513,"straight-ahead","-1","test",0,TRUE,FALSE,4,FALSE,"15"
"Dec 06 2014","12:48:14",33,"Live","No-socialFirst","Zero",4,"Chrome",14,"Switch",0,"Novel89",0,"Novel80",1,2721,"up-left-4sec","0","exposure",0,TRUE,FALSE,4,TRUE,"15"
"Dec 06 2014","12:48:14",34,"Live","No-socialFirst","Zero",4,"Chrome",14,"Switch",0,"Novel22",0,"Novel80",1,1450,"straight-ahead","-1","test",0,TRUE,FALSE,4,FALSE,"15"
"Dec 06 2014","12:48:14",35,"Live","No-socialFirst","Zero",4,"Chrome",15,"Same",1,"Novel67",3,"Novel67",3,2158,"down-right-4sec","3","exposure",0,TRUE,FALSE,4,TRUE,"15"
"Dec 06 2014","12:48:14",36,"Live","No-socialFirst","Zero",4,"Chrome",15,"Same",1,"Novel67",3,"Novel67",3,128,"straight-ahead","-1","test",0,TRUE,FALSE,4,TRUE,"15"
"Dec 05 2014","11:50:33",1,"Live","SocialFirst","Zero",4,"Chrome",0,"Same",0,"squirrel",0,"",0,3067,"up-left-4sec","0","example",0,TRUE,FALSE,4,TRUE,"16"
"Dec 05 2014","11:50:33",2,"Live","SocialFirst","Zero",4,"Chrome",0,"Same",0,"squirrel",0,"",0,1779,"up-left-4sec","0","example",0,TRUE,FALSE,4,TRUE,"16"
"Dec 05 2014","11:50:33",3,"Live","SocialFirst","Zero",4,"Chrome",0,"Same",0,"tomato",1,"",0,1240,"up-right-4sec","1","example",0,TRUE,FALSE,4,TRUE,"16"
"Dec 05 2014","11:50:33",4,"Live","SocialFirst","Zero",4,"Chrome",0,"Same",0,"tomato",2,"",0,2825,"down-left-4sec","2","example",0,TRUE,FALSE,4,TRUE,"16"
"Dec 05 2014","11:50:33",5,"Live","SocialFirst","Zero",4,"Chrome",0,"Same",0,"Novel100",1,"Novel100",1,2168,"up-right-4sec","1","exposure",0,TRUE,FALSE,4,TRUE,"16"
"Dec 05 2014","11:50:33",6,"Live","SocialFirst","Zero",4,"Chrome",0,"Same",0,"Novel100",0,"Novel100",1,2199,"straight-ahead","-1","test",0,TRUE,TRUE,4,TRUE,"16"
"Dec 05 2014","11:50:33",7,"Live","SocialFirst","Zero",4,"Chrome",1,"Switch",0,"Novel80",1,"Novel42",2,2700,"up-right-4sec","1","exposure",0,TRUE,FALSE,4,TRUE,"16"
"Dec 05 2014","11:50:33",8,"Live","SocialFirst","Zero",4,"Chrome",1,"Switch",0,"Novel120",3,"Novel42",2,4808,"straight-ahead","-1","test",0,TRUE,FALSE,4,FALSE,"16"
"Dec 05 2014","11:50:33",9,"Live","SocialFirst","Zero",4,"Chrome",2,"Same",1,"Novel127",1,"Novel127",1,2258,"up-right-4sec","1","exposure",0,TRUE,FALSE,4,TRUE,"16"
"Dec 05 2014","11:50:33",10,"Live","SocialFirst","Zero",4,"Chrome",2,"Same",1,"Novel127",1,"Novel127",1,1469,"straight-ahead","-1","test",0,TRUE,FALSE,4,TRUE,"16"
"Dec 05 2014","11:50:33",11,"Live","SocialFirst","Zero",4,"Chrome",3,"Switch",1,"Novel35",3,"Novel112",0,2490,"down-right-4sec","3","exposure",0,TRUE,FALSE,4,TRUE,"16"
"Dec 05 2014","11:50:33",12,"Live","SocialFirst","Zero",4,"Chrome",3,"Switch",1,"Novel103",1,"Novel112",0,2174,"straight-ahead","-1","test",0,TRUE,FALSE,4,FALSE,"16"
"Dec 05 2014","11:50:33",13,"Live","SocialFirst","Zero",4,"Chrome",4,"Same",0,"Novel31",3,"Novel31",3,2342,"down-right-4sec","3","exposure",0,TRUE,FALSE,4,TRUE,"16"
"Dec 05 2014","11:50:33",14,"Live","SocialFirst","Zero",4,"Chrome",4,"Same",0,"Novel31",1,"Novel31",3,1268,"straight-ahead","-1","test",0,TRUE,FALSE,4,TRUE,"16"
"Dec 05 2014","11:50:33",15,"Live","SocialFirst","Zero",4,"Chrome",5,"Switch",1,"Novel16",3,"Novel3",0,2356,"down-right-4sec","3","exposure",0,TRUE,FALSE,4,TRUE,"16"
"Dec 05 2014","11:50:33",16,"Live","SocialFirst","Zero",4,"Chrome",5,"Switch",1,"Novel51",2,"Novel3",0,1203,"straight-ahead","-1","test",0,TRUE,FALSE,4,FALSE,"16"
"Dec 05 2014","11:50:33",17,"Live","SocialFirst","Zero",4,"Chrome",6,"Same",1,"Novel110",2,"Novel110",2,2014,"down-left-4sec","2","exposure",0,TRUE,FALSE,4,TRUE,"16"
"Dec 05 2014","11:50:33",18,"Live","SocialFirst","Zero",4,"Chrome",6,"Same",1,"Novel110",2,"Novel110",2,1107,"straight-ahead","-1","test",0,TRUE,FALSE,4,TRUE,"16"
"Dec 05 2014","11:50:33",19,"Live","SocialFirst","Zero",4,"Chrome",7,"Switch",0,"Novel52",0,"Novel92",1,1541,"up-left-4sec","0","exposure",0,TRUE,FALSE,4,TRUE,"16"
"Dec 05 2014","11:50:33",20,"Live","SocialFirst","Zero",4,"Chrome",7,"Switch",0,"Novel56",2,"Novel92",1,1228,"straight-ahead","-1","test",0,TRUE,FALSE,4,FALSE,"16"
"Dec 05 2014","11:50:33",21,"Live","SocialFirst","Zero",4,"Chrome",8,"Same",0,"Novel41",3,"Novel41",3,4603,"straight-ahead","-1","exposure",0,TRUE,FALSE,4,FALSE,"16"
"Dec 05 2014","11:50:33",22,"Live","SocialFirst","Zero",4,"Chrome",8,"Same",0,"Novel41",1,"Novel41",3,1666,"straight-ahead","-1","test",0,TRUE,FALSE,4,TRUE,"16"
"Dec 05 2014","11:50:33",23,"Live","SocialFirst","Zero",4,"Chrome",9,"Switch",0,"Novel126",0,"Novel50",3,3161,"straight-ahead","-1","exposure",0,TRUE,FALSE,4,FALSE,"16"
"Dec 05 2014","11:50:33",24,"Live","SocialFirst","Zero",4,"Chrome",9,"Switch",0,"Novel27",2,"Novel50",3,1873,"straight-ahead","-1","test",0,TRUE,FALSE,4,FALSE,"16"
"Dec 05 2014","11:50:33",25,"Live","SocialFirst","Zero",4,"Chrome",10,"Same",1,"Novel69",3,"Novel69",3,2768,"straight-ahead","-1","exposure",0,TRUE,FALSE,4,FALSE,"16"
"Dec 05 2014","11:50:33",26,"Live","SocialFirst","Zero",4,"Chrome",10,"Same",1,"Novel69",3,"Novel69",3,1096,"straight-ahead","-1","test",0,TRUE,FALSE,4,TRUE,"16"
"Dec 05 2014","11:50:33",27,"Live","SocialFirst","Zero",4,"Chrome",11,"Switch",1,"Novel81",1,"Novel130",2,2204,"straight-ahead","-1","exposure",0,TRUE,FALSE,4,FALSE,"16"
"Dec 05 2014","11:50:33",28,"Live","SocialFirst","Zero",4,"Chrome",11,"Switch",1,"Novel130",2,"Novel130",2,1192,"straight-ahead","-1","test",0,TRUE,FALSE,4,TRUE,"16"
"Dec 05 2014","11:50:33",29,"Live","SocialFirst","Zero",4,"Chrome",12,"Same",0,"Novel108",2,"Novel108",2,2061,"straight-ahead","-1","exposure",0,TRUE,FALSE,4,FALSE,"16"
"Dec 05 2014","11:50:33",30,"Live","SocialFirst","Zero",4,"Chrome",12,"Same",0,"Novel108",1,"Novel108",2,1140,"straight-ahead","-1","test",0,TRUE,FALSE,4,TRUE,"16"
"Dec 05 2014","11:50:33",31,"Live","SocialFirst","Zero",4,"Chrome",13,"Switch",1,"Novel48",0,"Novel135",1,2311,"straight-ahead","-1","exposure",0,TRUE,FALSE,4,FALSE,"16"
"Dec 05 2014","11:50:33",32,"Live","SocialFirst","Zero",4,"Chrome",13,"Switch",1,"Novel135",1,"Novel135",1,1063,"straight-ahead","-1","test",0,TRUE,FALSE,4,TRUE,"16"
"Dec 05 2014","11:50:33",33,"Live","SocialFirst","Zero",4,"Chrome",14,"Same",1,"Novel23",1,"Novel23",1,2270,"straight-ahead","-1","exposure",0,TRUE,FALSE,4,FALSE,"16"
"Dec 05 2014","11:50:33",34,"Live","SocialFirst","Zero",4,"Chrome",14,"Same",1,"Novel23",1,"Novel23",1,1110,"straight-ahead","-1","test",0,TRUE,FALSE,4,TRUE,"16"
"Dec 05 2014","11:50:33",35,"Live","SocialFirst","Zero",4,"Chrome",15,"Switch",0,"Novel104",3,"Novel86",1,1628,"straight-ahead","-1","exposure",0,TRUE,FALSE,4,FALSE,"16"
"Dec 05 2014","11:50:33",36,"Live","SocialFirst","Zero",4,"Chrome",15,"Switch",0,"Novel10",2,"Novel86",1,1104,"straight-ahead","-1","test",0,TRUE,FALSE,4,FALSE,"16"
"Dec 05 2014","15:29:53",1,"Live","No-socialFirst","Zero",4,"Firefox",0,"Switch",0,"squirrel",0,"",0,2695,"up-left-4sec","0","example",0,TRUE,FALSE,4,TRUE,"17"
"Dec 05 2014","15:29:53",2,"Live","No-socialFirst","Zero",4,"Firefox",0,"Switch",0,"squirrel",0,"",0,1907,"up-left-4sec","0","example",0,TRUE,FALSE,4,TRUE,"17"
"Dec 05 2014","15:29:53",3,"Live","No-socialFirst","Zero",4,"Firefox",0,"Switch",0,"tomato",1,"",0,2215,"up-right-4sec","1","example",0,TRUE,FALSE,4,TRUE,"17"
"Dec 05 2014","15:29:53",4,"Live","No-socialFirst","Zero",4,"Firefox",0,"Switch",0,"tomato",2,"",0,1948,"down-left-4sec","2","example",0,TRUE,FALSE,4,TRUE,"17"
"Dec 05 2014","15:29:53",5,"Live","No-socialFirst","Zero",4,"Firefox",0,"Switch",0,"Novel62",1,"Novel20",3,7670,"straight-ahead","-1","exposure",0,TRUE,FALSE,4,FALSE,"17"
"Dec 05 2014","15:29:53",6,"Live","No-socialFirst","Zero",4,"Firefox",0,"Switch",0,"Novel101",3,"Novel20",3,4121,"straight-ahead","-1","test",0,TRUE,TRUE,4,FALSE,"17"
"Dec 05 2014","15:29:53",7,"Live","No-socialFirst","Zero",4,"Firefox",1,"Same",0,"Novel134",2,"Novel134",2,7090,"straight-ahead","-1","exposure",0,TRUE,FALSE,4,FALSE,"17"
"Dec 05 2014","15:29:53",8,"Live","No-socialFirst","Zero",4,"Firefox",1,"Same",0,"Novel134",0,"Novel134",2,3350,"straight-ahead","-1","test",0,TRUE,FALSE,4,TRUE,"17"
"Dec 05 2014","15:29:53",9,"Live","No-socialFirst","Zero",4,"Firefox",2,"Switch",1,"Novel48",1,"Novel79",3,4384,"straight-ahead","-1","exposure",0,TRUE,FALSE,4,FALSE,"17"
"Dec 05 2014","15:29:53",10,"Live","No-socialFirst","Zero",4,"Firefox",2,"Switch",1,"Novel106",1,"Novel79",3,5982,"straight-ahead","-1","test",0,TRUE,FALSE,4,FALSE,"17"
"Dec 05 2014","15:29:53",11,"Live","No-socialFirst","Zero",4,"Firefox",3,"Same",1,"Novel54",0,"Novel54",0,6477,"straight-ahead","-1","exposure",0,TRUE,FALSE,4,FALSE,"17"
"Dec 05 2014","15:29:53",12,"Live","No-socialFirst","Zero",4,"Firefox",3,"Same",1,"Novel54",0,"Novel54",0,2175,"straight-ahead","-1","test",0,TRUE,FALSE,4,TRUE,"17"
"Dec 05 2014","15:29:53",13,"Live","No-socialFirst","Zero",4,"Firefox",4,"Switch",1,"Novel113",3,"Novel110",2,5526,"straight-ahead","-1","exposure",0,TRUE,FALSE,4,FALSE,"17"
"Dec 05 2014","15:29:53",14,"Live","No-socialFirst","Zero",4,"Firefox",4,"Switch",1,"Novel110",2,"Novel110",2,3160,"straight-ahead","-1","test",0,TRUE,FALSE,4,TRUE,"17"
"Dec 05 2014","15:29:53",15,"Live","No-socialFirst","Zero",4,"Firefox",5,"Same",0,"Novel15",1,"Novel15",1,4293,"straight-ahead","-1","exposure",0,TRUE,FALSE,4,FALSE,"17"
"Dec 05 2014","15:29:53",16,"Live","No-socialFirst","Zero",4,"Firefox",5,"Same",0,"Novel15",0,"Novel15",1,2005,"straight-ahead","-1","test",0,TRUE,FALSE,4,TRUE,"17"
"Dec 05 2014","15:29:53",17,"Live","No-socialFirst","Zero",4,"Firefox",6,"Switch",0,"Novel75",0,"Novel139",3,5572,"straight-ahead","-1","exposure",0,TRUE,FALSE,4,FALSE,"17"
"Dec 05 2014","15:29:53",18,"Live","No-socialFirst","Zero",4,"Firefox",6,"Switch",0,"Novel139",2,"Novel139",3,2803,"straight-ahead","-1","test",0,TRUE,FALSE,4,TRUE,"17"
"Dec 05 2014","15:29:53",19,"Live","No-socialFirst","Zero",4,"Firefox",7,"Same",1,"Novel131",0,"Novel131",0,2909,"straight-ahead","-1","exposure",0,TRUE,FALSE,4,FALSE,"17"
"Dec 05 2014","15:29:53",20,"Live","No-socialFirst","Zero",4,"Firefox",7,"Same",1,"Novel131",0,"Novel131",0,1967,"straight-ahead","-1","test",0,TRUE,FALSE,4,TRUE,"17"
"Dec 05 2014","15:29:53",21,"Live","No-socialFirst","Zero",4,"Firefox",8,"Switch",0,"Novel112",2,"Novel70",0,3361,"down-left-4sec","2","exposure",0,TRUE,FALSE,4,TRUE,"17"
"Dec 05 2014","15:29:53",22,"Live","No-socialFirst","Zero",4,"Firefox",8,"Switch",0,"Novel100",0,"Novel70",0,1669,"straight-ahead","-1","test",0,TRUE,FALSE,4,FALSE,"17"
"Dec 05 2014","15:29:53",23,"Live","No-socialFirst","Zero",4,"Firefox",9,"Same",0,"Novel7",1,"Novel7",1,3463,"up-left-4sec","0","exposure",0,TRUE,FALSE,4,FALSE,"17"
"Dec 05 2014","15:29:53",24,"Live","No-socialFirst","Zero",4,"Firefox",9,"Same",0,"Novel7",3,"Novel7",1,1757,"straight-ahead","-1","test",0,TRUE,FALSE,4,TRUE,"17"
"Dec 05 2014","15:29:53",25,"Live","No-socialFirst","Zero",4,"Firefox",10,"Switch",1,"Novel44",3,"Novel33",2,4152,"down-right-4sec","3","exposure",0,TRUE,FALSE,4,TRUE,"17"
"Dec 05 2014","15:29:53",26,"Live","No-socialFirst","Zero",4,"Firefox",10,"Switch",1,"Novel95",1,"Novel33",2,3279,"straight-ahead","-1","test",0,TRUE,FALSE,4,FALSE,"17"
"Dec 05 2014","15:29:53",27,"Live","No-socialFirst","Zero",4,"Firefox",11,"Same",1,"Novel13",1,"Novel13",1,5554,"down-left-4sec","2","exposure",0,TRUE,FALSE,4,FALSE,"17"
"Dec 05 2014","15:29:53",28,"Live","No-socialFirst","Zero",4,"Firefox",11,"Same",1,"Novel13",1,"Novel13",1,2661,"straight-ahead","-1","test",0,TRUE,FALSE,4,TRUE,"17"
"Dec 05 2014","15:29:53",29,"Live","No-socialFirst","Zero",4,"Firefox",12,"Switch",1,"Novel27",0,"Novel35",3,3654,"down-left-4sec","2","exposure",0,TRUE,FALSE,4,FALSE,"17"
