"submit.date","submit.time","trial.num","gazeLength","condition","interval","numPic","browser","itemNum","trialType","samePos","chosen","chosenIdx","kept","keptIdx","rt","face","faceIdx","trial_cat","intervalNum","include","first.trial","numPicN","correct","subids"
"Jan 10 2015","12:09:01",1,"Live","50samev50switch","Zero",4,"Chrome",0,"Same",0,"squirrel",0,"",0,632,"up-left-4sec","0","example",0,TRUE,FALSE,4,TRUE,"1"
"Jan 10 2015","12:09:01",2,"Live","50samev50switch","Zero",4,"Chrome",0,"Same",0,"squirrel",0,"",0,14,"up-left-4sec","0","example",0,TRUE,FALSE,4,TRUE,"1"
"Jan 10 2015","12:09:01",3,"Live","50samev50switch","Zero",4,"Chrome",0,"Same",0,"tomato",1,"",0,119,"up-right-4sec","1","example",0,TRUE,FALSE,4,TRUE,"1"
"Jan 10 2015","12:09:01",4,"Live","50samev50switch","Zero",4,"Chrome",0,"Same",0,"tomato",2,"",0,1446,"down-left-4sec","2","example",0,TRUE,FALSE,4,TRUE,"1"
"Jan 10 2015","12:09:01",5,"Live","50samev50switch","Zero",4,"Chrome",0,"Same",0,"Novel110",1,"Novel110",1,1495,"up-right-4sec","1","exposure",0,TRUE,FALSE,4,TRUE,"1"
"Jan 10 2015","12:09:01",6,"Live","50samev50switch","Zero",4,"Chrome",0,"Same",0,"Novel110",0,"Novel110",1,3236,"straight-ahead","-1","test",0,TRUE,TRUE,4,TRUE,"1"
"Jan 10 2015","12:09:01",7,"Live","50samev50switch","Zero",4,"Chrome",1,"Same",1,"Novel97",1,"Novel97",1,1084,"up-right-4sec","1","exposure",0,TRUE,FALSE,4,TRUE,"1"
"Jan 10 2015","12:09:01",8,"Live","50samev50switch","Zero",4,"Chrome",1,"Same",1,"Novel97",1,"Novel97",1,426,"straight-ahead","-1","test",0,TRUE,FALSE,4,TRUE,"1"
"Jan 10 2015","12:09:01",9,"Live","50samev50switch","Zero",4,"Chrome",2,"Switch",1,"Novel93",1,"Novel113",0,1028,"up-right-4sec","1","exposure",0,TRUE,FALSE,4,TRUE,"1"
"Jan 10 2015","12:09:01",10,"Live","50samev50switch","Zero",4,"Chrome",2,"Switch",1,"Novel69",3,"Novel113",0,3645,"straight-ahead","-1","test",0,TRUE,FALSE,4,FALSE,"1"
"Jan 10 2015","12:09:01",11,"Live","50samev50switch","Zero",4,"Chrome",3,"Same",0,"Novel73",3,"Novel73",3,440,"down-right-4sec","3","exposure",0,TRUE,FALSE,4,TRUE,"1"
"Jan 10 2015","12:09:01",12,"Live","50samev50switch","Zero",4,"Chrome",3,"Same",0,"Novel73",0,"Novel73",3,2042,"straight-ahead","-1","test",0,TRUE,FALSE,4,TRUE,"1"
"Jan 10 2015","12:09:01",13,"Live","50samev50switch","Zero",4,"Chrome",4,"Switch",0,"Novel64",3,"Novel29",2,666,"down-right-4sec","3","exposure",0,TRUE,FALSE,4,TRUE,"1"
"Jan 10 2015","12:09:01",14,"Live","50samev50switch","Zero",4,"Chrome",4,"Switch",0,"Novel130",3,"Novel29",2,369,"straight-ahead","-1","test",0,TRUE,FALSE,4,FALSE,"1"
"Jan 10 2015","12:09:01",15,"Live","50samev50switch","Zero",4,"Chrome",5,"Same",1,"Novel13",3,"Novel13",3,299,"down-right-4sec","3","exposure",0,TRUE,FALSE,4,TRUE,"1"
"Jan 10 2015","12:09:01",16,"Live","50samev50switch","Zero",4,"Chrome",5,"Same",1,"Novel13",3,"Novel13",3,140,"straight-ahead","-1","test",0,TRUE,FALSE,4,TRUE,"1"
"Jan 10 2015","12:09:01",17,"Live","50samev50switch","Zero",4,"Chrome",6,"Switch",1,"Novel105",1,"Novel125",3,573,"up-right-4sec","1","exposure",0,TRUE,FALSE,4,TRUE,"1"
"Jan 10 2015","12:09:01",18,"Live","50samev50switch","Zero",4,"Chrome",6,"Switch",1,"Novel109",1,"Novel125",3,42,"straight-ahead","-1","test",0,TRUE,FALSE,4,FALSE,"1"
"Jan 10 2015","12:09:01",19,"Live","50samev50switch","Zero",4,"Chrome",7,"Switch",0,"Novel55",1,"Novel77",2,400,"up-right-4sec","1","exposure",0,TRUE,FALSE,4,TRUE,"1"
"Jan 10 2015","12:09:01",20,"Live","50samev50switch","Zero",4,"Chrome",7,"Switch",0,"Novel86",1,"Novel77",2,471,"straight-ahead","-1","test",0,TRUE,FALSE,4,FALSE,"1"
"Jan 10 2015","12:09:01",21,"Live","50samev50switch","Zero",4,"Chrome",8,"Switch",0,"Novel53",0,"Novel54",1,611,"up-left-4sec","0","exposure",0,TRUE,FALSE,4,TRUE,"1"
"Jan 10 2015","12:09:01",22,"Live","50samev50switch","Zero",4,"Chrome",8,"Switch",0,"Novel54",0,"Novel54",1,314,"straight-ahead","-1","test",0,TRUE,FALSE,4,TRUE,"1"
"Jan 10 2015","12:09:01",23,"Live","50samev50switch","Zero",4,"Chrome",9,"Switch",1,"Novel102",3,"Novel65",1,248,"down-right-4sec","3","exposure",0,TRUE,FALSE,4,TRUE,"1"
"Jan 10 2015","12:09:01",24,"Live","50samev50switch","Zero",4,"Chrome",9,"Switch",1,"Novel38",3,"Novel65",1,191,"straight-ahead","-1","test",0,TRUE,FALSE,4,FALSE,"1"
"Jan 10 2015","12:09:01",25,"Live","50samev50switch","Zero",4,"Chrome",10,"Same",1,"Novel19",2,"Novel19",2,323,"down-left-4sec","2","exposure",0,TRUE,FALSE,4,TRUE,"1"
"Jan 10 2015","12:09:01",26,"Live","50samev50switch","Zero",4,"Chrome",10,"Same",1,"Novel19",2,"Novel19",2,461,"straight-ahead","-1","test",0,TRUE,FALSE,4,TRUE,"1"
"Jan 10 2015","12:09:01",27,"Live","50samev50switch","Zero",4,"Chrome",11,"Same",0,"Novel138",3,"Novel138",3,584,"down-right-4sec","3","exposure",0,TRUE,FALSE,4,TRUE,"1"
"Jan 10 2015","12:09:01",28,"Live","50samev50switch","Zero",4,"Chrome",11,"Same",0,"Novel138",2,"Novel138",3,323,"straight-ahead","-1","test",0,TRUE,FALSE,4,TRUE,"1"
"Jan 10 2015","12:09:01",29,"Live","50samev50switch","Zero",4,"Chrome",12,"Same",0,"Novel58",0,"Novel58",0,452,"up-left-4sec","0","exposure",0,TRUE,FALSE,4,TRUE,"1"
"Jan 10 2015","12:09:01",30,"Live","50samev50switch","Zero",4,"Chrome",12,"Same",0,"Novel58",1,"Novel58",0,123,"straight-ahead","-1","test",0,TRUE,FALSE,4,TRUE,"1"
"Jan 10 2015","12:09:01",31,"Live","50samev50switch","Zero",4,"Chrome",13,"Switch",1,"Novel121",3,"Novel127",2,1334,"down-right-4sec","3","exposure",0,TRUE,FALSE,4,TRUE,"1"
"Jan 10 2015","12:09:01",32,"Live","50samev50switch","Zero",4,"Chrome",13,"Switch",1,"Novel106",3,"Novel127",2,184,"straight-ahead","-1","test",0,TRUE,FALSE,4,FALSE,"1"
"Jan 10 2015","12:09:01",33,"Live","50samev50switch","Zero",4,"Chrome",14,"Switch",1,"Novel52",0,"Novel103",1,218,"up-left-4sec","0","exposure",0,TRUE,FALSE,4,TRUE,"1"
"Jan 10 2015","12:09:01",34,"Live","50samev50switch","Zero",4,"Chrome",14,"Switch",1,"Novel128",0,"Novel103",1,161,"straight-ahead","-1","test",0,TRUE,FALSE,4,FALSE,"1"
"Jan 10 2015","12:09:01",35,"Live","50samev50switch","Zero",4,"Chrome",15,"Same",0,"Novel11",2,"Novel11",2,1494,"down-left-4sec","2","exposure",0,TRUE,FALSE,4,TRUE,"1"
"Jan 10 2015","12:09:01",36,"Live","50samev50switch","Zero",4,"Chrome",15,"Same",0,"Novel11",0,"Novel11",2,403,"straight-ahead","-1","test",0,TRUE,FALSE,4,TRUE,"1"
"Jan 10 2015","14:20:51",1,"Live","50samev50switch","Zero",4,"Chrome",0,"Same",0,"squirrel",0,"",0,1304,"up-left-4sec","0","example",0,TRUE,FALSE,4,TRUE,"2"
"Jan 10 2015","14:20:51",2,"Live","50samev50switch","Zero",4,"Chrome",0,"Same",0,"squirrel",0,"",0,970,"up-left-4sec","0","example",0,TRUE,FALSE,4,TRUE,"2"
"Jan 10 2015","14:20:51",3,"Live","50samev50switch","Zero",4,"Chrome",0,"Same",0,"tomato",1,"",0,501,"up-right-4sec","1","example",0,TRUE,FALSE,4,TRUE,"2"
"Jan 10 2015","14:20:51",4,"Live","50samev50switch","Zero",4,"Chrome",0,"Same",0,"tomato",2,"",0,715,"down-left-4sec","2","example",0,TRUE,FALSE,4,TRUE,"2"
"Jan 10 2015","14:20:51",5,"Live","50samev50switch","Zero",4,"Chrome",0,"Same",0,"Novel69",2,"Novel69",2,774,"down-left-4sec","2","exposure",0,TRUE,FALSE,4,TRUE,"2"
"Jan 10 2015","14:20:51",6,"Live","50samev50switch","Zero",4,"Chrome",0,"Same",0,"Novel69",3,"Novel69",2,1451,"straight-ahead","-1","test",0,TRUE,TRUE,4,TRUE,"2"
"Jan 10 2015","14:20:51",7,"Live","50samev50switch","Zero",4,"Chrome",1,"Same",0,"Novel126",2,"Novel126",2,1045,"down-left-4sec","2","exposure",0,TRUE,FALSE,4,TRUE,"2"
"Jan 10 2015","14:20:51",8,"Live","50samev50switch","Zero",4,"Chrome",1,"Same",0,"Novel126",3,"Novel126",2,624,"straight-ahead","-1","test",0,TRUE,FALSE,4,TRUE,"2"
"Jan 10 2015","14:20:51",9,"Live","50samev50switch","Zero",4,"Chrome",2,"Same",1,"Novel36",1,"Novel36",1,1121,"up-right-4sec","1","exposure",0,TRUE,FALSE,4,TRUE,"2"
"Jan 10 2015","14:20:51",10,"Live","50samev50switch","Zero",4,"Chrome",2,"Same",1,"Novel36",1,"Novel36",1,1016,"straight-ahead","-1","test",0,TRUE,FALSE,4,TRUE,"2"
"Jan 10 2015","14:20:51",11,"Live","50samev50switch","Zero",4,"Chrome",3,"Switch",1,"Novel111",2,"Novel10",3,1127,"down-left-4sec","2","exposure",0,TRUE,FALSE,4,TRUE,"2"
"Jan 10 2015","14:20:51",12,"Live","50samev50switch","Zero",4,"Chrome",3,"Switch",1,"Novel135",2,"Novel10",3,3062,"straight-ahead","-1","test",0,TRUE,FALSE,4,FALSE,"2"
"Jan 10 2015","14:20:51",13,"Live","50samev50switch","Zero",4,"Chrome",4,"Same",1,"Novel99",1,"Novel99",1,804,"up-right-4sec","1","exposure",0,TRUE,FALSE,4,TRUE,"2"
"Jan 10 2015","14:20:51",14,"Live","50samev50switch","Zero",4,"Chrome",4,"Same",1,"Novel99",1,"Novel99",1,271,"straight-ahead","-1","test",0,TRUE,FALSE,4,TRUE,"2"
"Jan 10 2015","14:20:51",15,"Live","50samev50switch","Zero",4,"Chrome",5,"Switch",1,"Novel140",0,"Novel22",3,794,"up-left-4sec","0","exposure",0,TRUE,FALSE,4,TRUE,"2"
"Jan 10 2015","14:20:51",16,"Live","50samev50switch","Zero",4,"Chrome",5,"Switch",1,"Novel22",3,"Novel22",3,2120,"straight-ahead","-1","test",0,TRUE,FALSE,4,TRUE,"2"
"Jan 10 2015","14:20:51",17,"Live","50samev50switch","Zero",4,"Chrome",6,"Same",0,"Novel48",0,"Novel48",0,987,"up-left-4sec","0","exposure",0,TRUE,FALSE,4,TRUE,"2"
"Jan 10 2015","14:20:51",18,"Live","50samev50switch","Zero",4,"Chrome",6,"Same",0,"Novel48",3,"Novel48",0,837,"straight-ahead","-1","test",0,TRUE,FALSE,4,TRUE,"2"
"Jan 10 2015","14:20:51",19,"Live","50samev50switch","Zero",4,"Chrome",7,"Same",0,"Novel60",1,"Novel60",1,762,"up-right-4sec","1","exposure",0,TRUE,FALSE,4,TRUE,"2"
"Jan 10 2015","14:20:51",20,"Live","50samev50switch","Zero",4,"Chrome",7,"Same",0,"Novel60",3,"Novel60",1,933,"straight-ahead","-1","test",0,TRUE,FALSE,4,TRUE,"2"
"Jan 10 2015","14:20:51",21,"Live","50samev50switch","Zero",4,"Chrome",8,"Switch",0,"Novel1",3,"Novel15",0,1061,"down-right-4sec","3","exposure",0,TRUE,FALSE,4,TRUE,"2"
"Jan 10 2015","14:20:51",22,"Live","50samev50switch","Zero",4,"Chrome",8,"Switch",0,"Novel15",2,"Novel15",0,620,"straight-ahead","-1","test",0,TRUE,FALSE,4,TRUE,"2"
"Jan 10 2015","14:20:51",23,"Live","50samev50switch","Zero",4,"Chrome",9,"Switch",0,"Novel27",3,"Novel139",0,1036,"down-right-4sec","3","exposure",0,TRUE,FALSE,4,TRUE,"2"
"Jan 10 2015","14:20:51",24,"Live","50samev50switch","Zero",4,"Chrome",9,"Switch",0,"Novel64",1,"Novel139",0,680,"straight-ahead","-1","test",0,TRUE,FALSE,4,FALSE,"2"
"Jan 10 2015","14:20:51",25,"Live","50samev50switch","Zero",4,"Chrome",10,"Switch",1,"Novel28",3,"Novel83",1,589,"down-right-4sec","3","exposure",0,TRUE,FALSE,4,TRUE,"2"
"Jan 10 2015","14:20:51",26,"Live","50samev50switch","Zero",4,"Chrome",10,"Switch",1,"Novel128",0,"Novel83",1,433,"straight-ahead","-1","test",0,TRUE,FALSE,4,FALSE,"2"
"Jan 10 2015","14:20:51",27,"Live","50samev50switch","Zero",4,"Chrome",11,"Switch",1,"Novel90",3,"Novel30",2,481,"down-right-4sec","3","exposure",0,TRUE,FALSE,4,TRUE,"2"
"Jan 10 2015","14:20:51",28,"Live","50samev50switch","Zero",4,"Chrome",11,"Switch",1,"Novel30",2,"Novel30",2,75,"straight-ahead","-1","test",0,TRUE,FALSE,4,TRUE,"2"
"Jan 10 2015","14:20:51",29,"Live","50samev50switch","Zero",4,"Chrome",12,"Same",1,"Novel75",3,"Novel75",3,447,"down-right-4sec","3","exposure",0,TRUE,FALSE,4,TRUE,"2"
"Jan 10 2015","14:20:51",30,"Live","50samev50switch","Zero",4,"Chrome",12,"Same",1,"Novel75",3,"Novel75",3,533,"straight-ahead","-1","test",0,TRUE,FALSE,4,TRUE,"2"
"Jan 10 2015","14:20:51",31,"Live","50samev50switch","Zero",4,"Chrome",13,"Switch",1,"Novel93",1,"Novel92",3,625,"up-right-4sec","1","exposure",0,TRUE,FALSE,4,TRUE,"2"
"Jan 10 2015","14:20:51",32,"Live","50samev50switch","Zero",4,"Chrome",13,"Switch",1,"Novel92",3,"Novel92",3,1796,"straight-ahead","-1","test",0,TRUE,FALSE,4,TRUE,"2"
"Jan 10 2015","14:20:51",33,"Live","50samev50switch","Zero",4,"Chrome",14,"Same",0,"Novel136",1,"Novel136",1,458,"up-right-4sec","1","exposure",0,TRUE,FALSE,4,TRUE,"2"
"Jan 10 2015","14:20:51",34,"Live","50samev50switch","Zero",4,"Chrome",14,"Same",0,"Novel136",3,"Novel136",1,325,"straight-ahead","-1","test",0,TRUE,FALSE,4,TRUE,"2"
"Jan 10 2015","14:20:51",35,"Live","50samev50switch","Zero",4,"Chrome",15,"Switch",0,"Novel46",0,"Novel119",2,823,"up-left-4sec","0","exposure",0,TRUE,FALSE,4,TRUE,"2"
"Jan 10 2015","14:20:51",36,"Live","50samev50switch","Zero",4,"Chrome",15,"Switch",0,"Novel20",0,"Novel119",2,815,"straight-ahead","-1","test",0,TRUE,FALSE,4,FALSE,"2"
"Jan 10 2015","20:22:40",1,"Live","75same25switch","Zero",4,"Chrome",0,"Same",1,"squirrel",0,"",0,733,"up-left-4sec","0","example",0,TRUE,FALSE,4,TRUE,"3"
"Jan 10 2015","20:22:40",2,"Live","75same25switch","Zero",4,"Chrome",0,"Same",1,"squirrel",0,"",0,323,"up-left-4sec","0","example",0,TRUE,FALSE,4,TRUE,"3"
"Jan 10 2015","20:22:40",3,"Live","75same25switch","Zero",4,"Chrome",0,"Same",1,"tomato",1,"",0,279,"up-right-4sec","1","example",0,TRUE,FALSE,4,TRUE,"3"
"Jan 10 2015","20:22:40",4,"Live","75same25switch","Zero",4,"Chrome",0,"Same",1,"tomato",2,"",0,482,"down-left-4sec","2","example",0,TRUE,FALSE,4,TRUE,"3"
"Jan 10 2015","20:22:40",5,"Live","75same25switch","Zero",4,"Chrome",0,"Same",1,"Novel76",0,"Novel76",0,7980,"up-left-4sec","0","exposure",0,TRUE,FALSE,4,TRUE,"3"
"Jan 10 2015","20:22:40",6,"Live","75same25switch","Zero",4,"Chrome",0,"Same",1,"Novel76",0,"Novel76",0,1505,"straight-ahead","-1","test",0,TRUE,TRUE,4,TRUE,"3"
"Jan 10 2015","20:22:40",7,"Live","75same25switch","Zero",4,"Chrome",1,"Switch",0,"Novel139",1,"Novel16",2,643,"up-right-4sec","1","exposure",0,TRUE,FALSE,4,TRUE,"3"
"Jan 10 2015","20:22:40",8,"Live","75same25switch","Zero",4,"Chrome",1,"Switch",0,"Novel123",0,"Novel16",2,4800,"straight-ahead","-1","test",0,TRUE,FALSE,4,FALSE,"3"
"Jan 10 2015","20:22:40",9,"Live","75same25switch","Zero",4,"Chrome",2,"Same",0,"Novel41",1,"Novel41",1,707,"up-right-4sec","1","exposure",0,TRUE,FALSE,4,TRUE,"3"
"Jan 10 2015","20:22:40",10,"Live","75same25switch","Zero",4,"Chrome",2,"Same",0,"Novel41",3,"Novel41",1,2288,"straight-ahead","-1","test",0,TRUE,FALSE,4,TRUE,"3"
"Jan 10 2015","20:22:40",11,"Live","75same25switch","Zero",4,"Chrome",3,"Same",1,"Novel62",2,"Novel62",2,238,"down-left-4sec","2","exposure",0,TRUE,FALSE,4,TRUE,"3"
"Jan 10 2015","20:22:40",12,"Live","75same25switch","Zero",4,"Chrome",3,"Same",1,"Novel62",2,"Novel62",2,280,"straight-ahead","-1","test",0,TRUE,FALSE,4,TRUE,"3"
"Jan 10 2015","20:22:40",13,"Live","75same25switch","Zero",4,"Chrome",4,"Same",1,"Novel37",2,"Novel37",2,382,"down-left-4sec","2","exposure",0,TRUE,FALSE,4,TRUE,"3"
"Jan 10 2015","20:22:40",14,"Live","75same25switch","Zero",4,"Chrome",4,"Same",1,"Novel37",2,"Novel37",2,65,"straight-ahead","-1","test",0,TRUE,FALSE,4,TRUE,"3"
"Jan 10 2015","20:22:40",15,"Live","75same25switch","Zero",4,"Chrome",5,"Same",1,"Novel45",0,"Novel45",0,675,"up-left-4sec","0","exposure",0,TRUE,FALSE,4,TRUE,"3"
"Jan 10 2015","20:22:40",16,"Live","75same25switch","Zero",4,"Chrome",5,"Same",1,"Novel45",0,"Novel45",0,197,"straight-ahead","-1","test",0,TRUE,FALSE,4,TRUE,"3"
"Jan 10 2015","20:22:40",17,"Live","75same25switch","Zero",4,"Chrome",6,"Switch",0,"Novel87",1,"Novel22",0,110,"up-right-4sec","1","exposure",0,TRUE,FALSE,4,TRUE,"3"
"Jan 10 2015","20:22:40",18,"Live","75same25switch","Zero",4,"Chrome",6,"Switch",0,"Novel22",2,"Novel22",0,2043,"straight-ahead","-1","test",0,TRUE,FALSE,4,TRUE,"3"
"Jan 10 2015","20:22:40",19,"Live","75same25switch","Zero",4,"Chrome",7,"Same",0,"Novel44",0,"Novel44",0,792,"up-left-4sec","0","exposure",0,TRUE,FALSE,4,TRUE,"3"
"Jan 10 2015","20:22:40",20,"Live","75same25switch","Zero",4,"Chrome",7,"Same",0,"Novel127",0,"Novel44",0,655,"straight-ahead","-1","test",0,TRUE,FALSE,4,FALSE,"3"
"Jan 10 2015","20:22:40",21,"Live","75same25switch","Zero",4,"Chrome",8,"Same",1,"Novel102",0,"Novel102",0,1349,"up-left-4sec","0","exposure",0,TRUE,FALSE,4,TRUE,"3"
"Jan 10 2015","20:22:40",22,"Live","75same25switch","Zero",4,"Chrome",8,"Same",1,"Novel102",0,"Novel102",0,653,"straight-ahead","-1","test",0,TRUE,FALSE,4,TRUE,"3"
"Jan 10 2015","20:22:40",23,"Live","75same25switch","Zero",4,"Chrome",9,"Same",0,"Novel47",1,"Novel47",1,331,"up-right-4sec","1","exposure",0,TRUE,FALSE,4,TRUE,"3"
"Jan 10 2015","20:22:40",24,"Live","75same25switch","Zero",4,"Chrome",9,"Same",0,"Novel52",1,"Novel47",1,476,"straight-ahead","-1","test",0,TRUE,FALSE,4,FALSE,"3"
"Jan 10 2015","20:22:40",25,"Live","75same25switch","Zero",4,"Chrome",10,"Same",0,"Novel63",2,"Novel63",2,1265,"down-left-4sec","2","exposure",0,TRUE,FALSE,4,TRUE,"3"
"Jan 10 2015","20:22:40",26,"Live","75same25switch","Zero",4,"Chrome",10,"Same",0,"Novel63",3,"Novel63",2,250,"straight-ahead","-1","test",0,TRUE,FALSE,4,TRUE,"3"
"Jan 10 2015","20:22:40",27,"Live","75same25switch","Zero",4,"Chrome",11,"Same",1,"Novel33",2,"Novel33",2,268,"down-left-4sec","2","exposure",0,TRUE,FALSE,4,TRUE,"3"
"Jan 10 2015","20:22:40",28,"Live","75same25switch","Zero",4,"Chrome",11,"Same",1,"Novel33",2,"Novel33",2,78,"straight-ahead","-1","test",0,TRUE,FALSE,4,TRUE,"3"
"Jan 10 2015","20:22:40",29,"Live","75same25switch","Zero",4,"Chrome",12,"Same",1,"Novel39",2,"Novel39",2,188,"down-left-4sec","2","exposure",0,TRUE,FALSE,4,TRUE,"3"
"Jan 10 2015","20:22:40",30,"Live","75same25switch","Zero",4,"Chrome",12,"Same",1,"Novel97",0,"Novel39",2,3787,"straight-ahead","-1","test",0,TRUE,FALSE,4,FALSE,"3"
"Jan 10 2015","20:22:40",31,"Live","75same25switch","Zero",4,"Chrome",13,"Switch",1,"Novel6",2,"Novel53",0,218,"down-left-4sec","2","exposure",0,TRUE,FALSE,4,TRUE,"3"
"Jan 10 2015","20:22:40",32,"Live","75same25switch","Zero",4,"Chrome",13,"Switch",1,"Novel138",1,"Novel53",0,2431,"straight-ahead","-1","test",0,TRUE,FALSE,4,FALSE,"3"
"Jan 10 2015","20:22:40",33,"Live","75same25switch","Zero",4,"Chrome",14,"Switch",0,"Novel9",1,"Novel116",2,400,"up-right-4sec","1","exposure",0,TRUE,FALSE,4,TRUE,"3"
"Jan 10 2015","20:22:40",34,"Live","75same25switch","Zero",4,"Chrome",14,"Switch",0,"Novel116",1,"Novel116",2,3732,"straight-ahead","-1","test",0,TRUE,FALSE,4,TRUE,"3"
"Jan 10 2015","20:22:40",35,"Live","75same25switch","Zero",4,"Chrome",15,"Same",0,"Novel89",0,"Novel89",0,733,"up-left-4sec","0","exposure",0,TRUE,FALSE,4,TRUE,"3"
"Jan 10 2015","20:22:40",36,"Live","75same25switch","Zero",4,"Chrome",15,"Same",0,"Novel89",3,"Novel89",0,1254,"straight-ahead","-1","test",0,TRUE,FALSE,4,TRUE,"3"
"Jan 10 2015","19:06:44",1,"Live","75same25switch","Zero",4,"Chrome",0,"Same",1,"squirrel",0,"",0,3012,"up-left-4sec","0","example",0,TRUE,FALSE,4,TRUE,"4"
"Jan 10 2015","19:06:44",2,"Live","75same25switch","Zero",4,"Chrome",0,"Same",1,"squirrel",0,"",0,687,"up-left-4sec","0","example",0,TRUE,FALSE,4,TRUE,"4"
"Jan 10 2015","19:06:44",3,"Live","75same25switch","Zero",4,"Chrome",0,"Same",1,"tomato",1,"",0,1805,"up-right-4sec","1","example",0,TRUE,FALSE,4,TRUE,"4"
"Jan 10 2015","19:06:44",4,"Live","75same25switch","Zero",4,"Chrome",0,"Same",1,"tomato",2,"",0,1098,"down-left-4sec","2","example",0,TRUE,FALSE,4,TRUE,"4"
"Jan 10 2015","19:06:44",5,"Live","75same25switch","Zero",4,"Chrome",0,"Same",1,"Novel50",1,"Novel50",1,3119,"up-right-4sec","1","exposure",0,TRUE,FALSE,4,TRUE,"4"
"Jan 10 2015","19:06:44",6,"Live","75same25switch","Zero",4,"Chrome",0,"Same",1,"Novel50",1,"Novel50",1,1476,"straight-ahead","-1","test",0,TRUE,TRUE,4,TRUE,"4"
"Jan 10 2015","19:06:44",7,"Live","75same25switch","Zero",4,"Chrome",1,"Same",0,"Novel137",3,"Novel137",3,1587,"down-right-4sec","3","exposure",0,TRUE,FALSE,4,TRUE,"4"
"Jan 10 2015","19:06:44",8,"Live","75same25switch","Zero",4,"Chrome",1,"Same",0,"Novel137",2,"Novel137",3,716,"straight-ahead","-1","test",0,TRUE,FALSE,4,TRUE,"4"
"Jan 10 2015","19:06:44",9,"Live","75same25switch","Zero",4,"Chrome",2,"Same",0,"Novel4",1,"Novel4",1,1148,"up-right-4sec","1","exposure",0,TRUE,FALSE,4,TRUE,"4"
"Jan 10 2015","19:06:44",10,"Live","75same25switch","Zero",4,"Chrome",2,"Same",0,"Novel4",2,"Novel4",1,651,"straight-ahead","-1","test",0,TRUE,FALSE,4,TRUE,"4"
"Jan 10 2015","19:06:44",11,"Live","75same25switch","Zero",4,"Chrome",3,"Same",1,"Novel30",1,"Novel30",1,1015,"up-right-4sec","1","exposure",0,TRUE,FALSE,4,TRUE,"4"
"Jan 10 2015","19:06:44",12,"Live","75same25switch","Zero",4,"Chrome",3,"Same",1,"Novel30",1,"Novel30",1,491,"straight-ahead","-1","test",0,TRUE,FALSE,4,TRUE,"4"
"Jan 10 2015","19:06:44",13,"Live","75same25switch","Zero",4,"Chrome",4,"Same",1,"Novel119",1,"Novel119",1,956,"up-right-4sec","1","exposure",0,TRUE,FALSE,4,TRUE,"4"
"Jan 10 2015","19:06:44",14,"Live","75same25switch","Zero",4,"Chrome",4,"Same",1,"Novel119",1,"Novel119",1,472,"straight-ahead","-1","test",0,TRUE,FALSE,4,TRUE,"4"
"Jan 10 2015","19:06:44",15,"Live","75same25switch","Zero",4,"Chrome",5,"Same",0,"Novel138",1,"Novel138",1,2451,"up-right-4sec","1","exposure",0,TRUE,FALSE,4,TRUE,"4"
"Jan 10 2015","19:06:44",16,"Live","75same25switch","Zero",4,"Chrome",5,"Same",0,"Novel138",2,"Novel138",1,1466,"straight-ahead","-1","test",0,TRUE,FALSE,4,TRUE,"4"
"Jan 10 2015","19:06:44",17,"Live","75same25switch","Zero",4,"Chrome",6,"Switch",0,"Novel115",0,"Novel47",1,1868,"up-left-4sec","0","exposure",0,TRUE,FALSE,4,TRUE,"4"
"Jan 10 2015","19:06:44",18,"Live","75same25switch","Zero",4,"Chrome",6,"Switch",0,"Novel17",2,"Novel47",1,5101,"straight-ahead","-1","test",0,TRUE,FALSE,4,FALSE,"4"
"Jan 10 2015","19:06:44",19,"Live","75same25switch","Zero",4,"Chrome",7,"Same",1,"Novel65",0,"Novel65",0,2503,"up-left-4sec","0","exposure",0,TRUE,FALSE,4,TRUE,"4"
"Jan 10 2015","19:06:44",20,"Live","75same25switch","Zero",4,"Chrome",7,"Same",1,"Novel65",0,"Novel65",0,64,"straight-ahead","-1","test",0,TRUE,FALSE,4,TRUE,"4"
"Jan 10 2015","19:06:44",21,"Live","75same25switch","Zero",4,"Chrome",8,"Switch",1,"Novel94",0,"Novel116",3,2533,"up-left-4sec","0","exposure",0,TRUE,FALSE,4,TRUE,"4"
"Jan 10 2015","19:06:44",22,"Live","75same25switch","Zero",4,"Chrome",8,"Switch",1,"Novel116",3,"Novel116",3,564,"straight-ahead","-1","test",0,TRUE,FALSE,4,TRUE,"4"
"Jan 10 2015","19:06:44",23,"Live","75same25switch","Zero",4,"Chrome",9,"Same",0,"Novel129",1,"Novel129",1,2048,"up-right-4sec","1","exposure",0,TRUE,FALSE,4,TRUE,"4"
"Jan 10 2015","19:06:44",24,"Live","75same25switch","Zero",4,"Chrome",9,"Same",0,"Novel129",0,"Novel129",1,550,"straight-ahead","-1","test",0,TRUE,FALSE,4,TRUE,"4"
"Jan 10 2015","19:06:44",25,"Live","75same25switch","Zero",4,"Chrome",10,"Switch",0,"Novel135",1,"Novel133",0,1641,"up-right-4sec","1","exposure",0,TRUE,FALSE,4,TRUE,"4"
"Jan 10 2015","19:06:44",26,"Live","75same25switch","Zero",4,"Chrome",10,"Switch",0,"Novel58",0,"Novel133",0,1228,"straight-ahead","-1","test",0,TRUE,FALSE,4,FALSE,"4"
"Jan 10 2015","19:06:44",27,"Live","75same25switch","Zero",4,"Chrome",11,"Same",1,"Novel53",3,"Novel53",3,3685,"down-right-4sec","3","exposure",0,TRUE,FALSE,4,TRUE,"4"
"Jan 10 2015","19:06:44",28,"Live","75same25switch","Zero",4,"Chrome",11,"Same",1,"Novel53",3,"Novel53",3,567,"straight-ahead","-1","test",0,TRUE,FALSE,4,TRUE,"4"
"Jan 10 2015","19:06:44",29,"Live","75same25switch","Zero",4,"Chrome",12,"Same",1,"Novel131",1,"Novel131",1,834,"up-right-4sec","1","exposure",0,TRUE,FALSE,4,TRUE,"4"
"Jan 10 2015","19:06:44",30,"Live","75same25switch","Zero",4,"Chrome",12,"Same",1,"Novel131",1,"Novel131",1,225,"straight-ahead","-1","test",0,TRUE,FALSE,4,TRUE,"4"
"Jan 10 2015","19:06:44",31,"Live","75same25switch","Zero",4,"Chrome",13,"Switch",0,"Novel72",3,"Novel20",2,733,"down-right-4sec","3","exposure",0,TRUE,FALSE,4,TRUE,"4"
"Jan 10 2015","19:06:44",32,"Live","75same25switch","Zero",4,"Chrome",13,"Switch",0,"Novel81",2,"Novel20",2,1825,"straight-ahead","-1","test",0,TRUE,FALSE,4,FALSE,"4"
"Jan 10 2015","19:06:44",33,"Live","75same25switch","Zero",4,"Chrome",14,"Same",0,"Novel93",2,"Novel93",2,801,"down-left-4sec","2","exposure",0,TRUE,FALSE,4,TRUE,"4"
"Jan 10 2015","19:06:44",34,"Live","75same25switch","Zero",4,"Chrome",14,"Same",0,"Novel93",0,"Novel93",2,216,"straight-ahead","-1","test",0,TRUE,FALSE,4,TRUE,"4"
"Jan 10 2015","19:06:44",35,"Live","75same25switch","Zero",4,"Chrome",15,"Same",1,"Novel120",3,"Novel120",3,1230,"down-right-4sec","3","exposure",0,TRUE,FALSE,4,TRUE,"4"
"Jan 10 2015","19:06:44",36,"Live","75same25switch","Zero",4,"Chrome",15,"Same",1,"Novel120",3,"Novel120",3,614,"straight-ahead","-1","test",0,TRUE,FALSE,4,TRUE,"4"
"Jan 10 2015","18:50:41",1,"Live","25same75switch","Zero",4,"Chrome",0,"Switch",0,"squirrel",0,"",0,2387,"up-left-4sec","0","example",0,TRUE,FALSE,4,TRUE,"5"
"Jan 10 2015","18:50:41",2,"Live","25same75switch","Zero",4,"Chrome",0,"Switch",0,"squirrel",0,"",0,2019,"up-left-4sec","0","example",0,TRUE,FALSE,4,TRUE,"5"
"Jan 10 2015","18:50:41",3,"Live","25same75switch","Zero",4,"Chrome",0,"Switch",0,"tomato",1,"",0,1598,"up-right-4sec","1","example",0,TRUE,FALSE,4,TRUE,"5"
"Jan 10 2015","18:50:41",4,"Live","25same75switch","Zero",4,"Chrome",0,"Switch",0,"tomato",2,"",0,1569,"down-left-4sec","2","example",0,TRUE,FALSE,4,TRUE,"5"
"Jan 10 2015","18:50:41",5,"Live","25same75switch","Zero",4,"Chrome",0,"Switch",0,"Novel45",3,"Novel125",1,5363,"down-right-4sec","3","exposure",0,TRUE,FALSE,4,TRUE,"5"
"Jan 10 2015","18:50:41",6,"Live","25same75switch","Zero",4,"Chrome",0,"Switch",0,"Novel28",1,"Novel125",1,6257,"straight-ahead","-1","test",0,TRUE,TRUE,4,FALSE,"5"
"Jan 10 2015","18:50:41",7,"Live","25same75switch","Zero",4,"Chrome",1,"Switch",1,"Novel104",0,"Novel56",3,6782,"up-left-4sec","0","exposure",0,TRUE,FALSE,4,TRUE,"5"
"Jan 10 2015","18:50:41",8,"Live","25same75switch","Zero",4,"Chrome",1,"Switch",1,"Novel25",1,"Novel56",3,4772,"straight-ahead","-1","test",0,TRUE,FALSE,4,FALSE,"5"
"Jan 10 2015","18:50:41",9,"Live","25same75switch","Zero",4,"Chrome",2,"Same",0,"Novel5",0,"Novel5",0,3808,"up-left-4sec","0","exposure",0,TRUE,FALSE,4,TRUE,"5"
"Jan 10 2015","18:50:41",10,"Live","25same75switch","Zero",4,"Chrome",2,"Same",0,"Novel40",3,"Novel5",0,2495,"straight-ahead","-1","test",0,TRUE,FALSE,4,FALSE,"5"
"Jan 10 2015","18:50:41",11,"Live","25same75switch","Zero",4,"Chrome",3,"Switch",0,"Novel68",3,"Novel126",1,3394,"down-right-4sec","3","exposure",0,TRUE,FALSE,4,TRUE,"5"
"Jan 10 2015","18:50:41",12,"Live","25same75switch","Zero",4,"Chrome",3,"Switch",0,"Novel133",0,"Novel126",1,3801,"straight-ahead","-1","test",0,TRUE,FALSE,4,FALSE,"5"
"Jan 10 2015","18:50:41",13,"Live","25same75switch","Zero",4,"Chrome",4,"Switch",1,"Novel83",3,"Novel64",2,3303,"down-right-4sec","3","exposure",0,TRUE,FALSE,4,TRUE,"5"
"Jan 10 2015","18:50:41",14,"Live","25same75switch","Zero",4,"Chrome",4,"Switch",1,"Novel140",3,"Novel64",2,6883,"straight-ahead","-1","test",0,TRUE,FALSE,4,FALSE,"5"
"Jan 10 2015","18:50:41",15,"Live","25same75switch","Zero",4,"Chrome",5,"Switch",0,"Novel129",2,"Novel100",0,6823,"down-left-4sec","2","exposure",0,TRUE,FALSE,4,TRUE,"5"
"Jan 10 2015","18:50:41",16,"Live","25same75switch","Zero",4,"Chrome",5,"Switch",0,"Novel115",2,"Novel100",0,2506,"straight-ahead","-1","test",0,TRUE,FALSE,4,FALSE,"5"
"Jan 10 2015","18:50:41",17,"Live","25same75switch","Zero",4,"Chrome",6,"Switch",1,"Novel46",3,"Novel31",2,4406,"down-right-4sec","3","exposure",0,TRUE,FALSE,4,TRUE,"5"
"Jan 10 2015","18:50:41",18,"Live","25same75switch","Zero",4,"Chrome",6,"Switch",1,"Novel31",2,"Novel31",2,2799,"straight-ahead","-1","test",0,TRUE,FALSE,4,TRUE,"5"
"Jan 10 2015","18:50:41",19,"Live","25same75switch","Zero",4,"Chrome",7,"Switch",1,"Novel67",0,"Novel75",2,3613,"up-left-4sec","0","exposure",0,TRUE,FALSE,4,TRUE,"5"
"Jan 10 2015","18:50:41",20,"Live","25same75switch","Zero",4,"Chrome",7,"Switch",1,"Novel75",2,"Novel75",2,1328,"straight-ahead","-1","test",0,TRUE,FALSE,4,TRUE,"5"
"Jan 10 2015","18:50:41",21,"Live","25same75switch","Zero",4,"Chrome",8,"Switch",0,"Novel33",1,"Novel30",0,3360,"up-right-4sec","1","exposure",0,TRUE,FALSE,4,TRUE,"5"
"Jan 10 2015","18:50:41",22,"Live","25same75switch","Zero",4,"Chrome",8,"Switch",0,"Novel112",3,"Novel30",0,1619,"straight-ahead","-1","test",0,TRUE,FALSE,4,FALSE,"5"
"Jan 10 2015","18:50:41",23,"Live","25same75switch","Zero",4,"Chrome",9,"Switch",1,"Novel135",2,"Novel10",3,6751,"down-left-4sec","2","exposure",0,TRUE,FALSE,4,TRUE,"5"
"Jan 10 2015","18:50:41",24,"Live","25same75switch","Zero",4,"Chrome",9,"Switch",1,"Novel92",2,"Novel10",3,8356,"straight-ahead","-1","test",0,TRUE,FALSE,4,FALSE,"5"
"Jan 10 2015","18:50:41",25,"Live","25same75switch","Zero",4,"Chrome",10,"Same",0,"Novel12",2,"Novel12",2,5291,"down-left-4sec","2","exposure",0,TRUE,FALSE,4,TRUE,"5"
"Jan 10 2015","18:50:41",26,"Live","25same75switch","Zero",4,"Chrome",10,"Same",0,"Novel12",3,"Novel12",2,2844,"straight-ahead","-1","test",0,TRUE,FALSE,4,TRUE,"5"
"Jan 10 2015","18:50:41",27,"Live","25same75switch","Zero",4,"Chrome",11,"Same",0,"Novel118",2,"Novel118",2,5819,"down-left-4sec","2","exposure",0,TRUE,FALSE,4,TRUE,"5"
"Jan 10 2015","18:50:41",28,"Live","25same75switch","Zero",4,"Chrome",11,"Same",0,"Novel118",1,"Novel118",2,2508,"straight-ahead","-1","test",0,TRUE,FALSE,4,TRUE,"5"
"Jan 10 2015","18:50:41",29,"Live","25same75switch","Zero",4,"Chrome",12,"Switch",1,"Novel42",0,"Novel60",2,3271,"up-left-4sec","0","exposure",0,TRUE,FALSE,4,TRUE,"5"
"Jan 10 2015","18:50:41",30,"Live","25same75switch","Zero",4,"Chrome",12,"Switch",1,"Novel60",2,"Novel60",2,1332,"straight-ahead","-1","test",0,TRUE,FALSE,4,TRUE,"5"
"Jan 10 2015","18:50:41",31,"Live","25same75switch","Zero",4,"Chrome",13,"Same",0,"Novel18",3,"Novel18",3,3455,"down-right-4sec","3","exposure",0,TRUE,FALSE,4,TRUE,"5"
"Jan 10 2015","18:50:41",32,"Live","25same75switch","Zero",4,"Chrome",13,"Same",0,"Novel18",2,"Novel18",3,2359,"straight-ahead","-1","test",0,TRUE,FALSE,4,TRUE,"5"
"Jan 10 2015","18:50:41",33,"Live","25same75switch","Zero",4,"Chrome",14,"Switch",1,"Novel55",1,"Novel91",3,3033,"up-right-4sec","1","exposure",0,TRUE,FALSE,4,TRUE,"5"
"Jan 10 2015","18:50:41",34,"Live","25same75switch","Zero",4,"Chrome",14,"Switch",1,"Novel91",3,"Novel91",3,1569,"straight-ahead","-1","test",0,TRUE,FALSE,4,TRUE,"5"
"Jan 10 2015","18:50:41",35,"Live","25same75switch","Zero",4,"Chrome",15,"Switch",1,"Novel29",1,"Novel49",3,2875,"up-right-4sec","1","exposure",0,TRUE,FALSE,4,TRUE,"5"
"Jan 10 2015","18:50:41",36,"Live","25same75switch","Zero",4,"Chrome",15,"Switch",1,"Novel99",1,"Novel49",3,1582,"straight-ahead","-1","test",0,TRUE,FALSE,4,FALSE,"5"
"Jan 10 2015","16:11:28",1,"Live","25same75switch","Zero",4,"Chrome",0,"Same",0,"squirrel",0,"",0,3163,"up-left-4sec","0","example",0,TRUE,FALSE,4,TRUE,"6"
"Jan 10 2015","16:11:28",2,"Live","25same75switch","Zero",4,"Chrome",0,"Same",0,"squirrel",0,"",0,453,"up-left-4sec","0","example",0,TRUE,FALSE,4,TRUE,"6"
"Jan 10 2015","16:11:28",3,"Live","25same75switch","Zero",4,"Chrome",0,"Same",0,"tomato",1,"",0,1254,"up-right-4sec","1","example",0,TRUE,FALSE,4,TRUE,"6"
"Jan 10 2015","16:11:28",4,"Live","25same75switch","Zero",4,"Chrome",0,"Same",0,"tomato",2,"",0,6824,"down-left-4sec","2","example",0,TRUE,FALSE,4,TRUE,"6"
"Jan 10 2015","16:11:28",5,"Live","25same75switch","Zero",4,"Chrome",0,"Same",0,"Novel50",3,"Novel50",3,5184,"down-right-4sec","3","exposure",0,TRUE,FALSE,4,TRUE,"6"
"Jan 10 2015","16:11:28",6,"Live","25same75switch","Zero",4,"Chrome",0,"Same",0,"Novel50",1,"Novel50",3,3230,"straight-ahead","-1","test",0,TRUE,TRUE,4,TRUE,"6"
"Jan 10 2015","16:11:28",7,"Live","25same75switch","Zero",4,"Chrome",1,"Switch",1,"Novel65",0,"Novel30",3,3517,"up-left-4sec","0","exposure",0,TRUE,FALSE,4,TRUE,"6"
"Jan 10 2015","16:11:28",8,"Live","25same75switch","Zero",4,"Chrome",1,"Switch",1,"Novel30",3,"Novel30",3,5329,"straight-ahead","-1","test",0,TRUE,FALSE,4,TRUE,"6"
"Jan 10 2015","16:11:28",9,"Live","25same75switch","Zero",4,"Chrome",2,"Switch",0,"Novel131",2,"Novel138",1,2489,"up-right-4sec","1","exposure",0,TRUE,FALSE,4,FALSE,"6"
"Jan 10 2015","16:11:28",10,"Live","25same75switch","Zero",4,"Chrome",2,"Switch",0,"Novel138",0,"Novel138",1,849,"straight-ahead","-1","test",0,TRUE,FALSE,4,TRUE,"6"
"Jan 10 2015","16:11:28",11,"Live","25same75switch","Zero",4,"Chrome",3,"Switch",1,"Novel125",1,"Novel80",3,3230,"up-right-4sec","1","exposure",0,TRUE,FALSE,4,TRUE,"6"
"Jan 10 2015","16:11:28",12,"Live","25same75switch","Zero",4,"Chrome",3,"Switch",1,"Novel80",3,"Novel80",3,4770,"straight-ahead","-1","test",0,TRUE,FALSE,4,TRUE,"6"
"Jan 10 2015","16:11:28",13,"Live","25same75switch","Zero",4,"Chrome",4,"Same",1,"Novel133",2,"Novel133",2,2543,"down-left-4sec","2","exposure",0,TRUE,FALSE,4,TRUE,"6"
"Jan 10 2015","16:11:28",14,"Live","25same75switch","Zero",4,"Chrome",4,"Same",1,"Novel133",2,"Novel133",2,540,"straight-ahead","-1","test",0,TRUE,FALSE,4,TRUE,"6"
"Jan 10 2015","16:11:28",15,"Live","25same75switch","Zero",4,"Chrome",5,"Same",0,"Novel96",2,"Novel96",2,827,"down-left-4sec","2","exposure",0,TRUE,FALSE,4,TRUE,"6"
"Jan 10 2015","16:11:28",16,"Live","25same75switch","Zero",4,"Chrome",5,"Same",0,"Novel96",1,"Novel96",2,1198,"straight-ahead","-1","test",0,TRUE,FALSE,4,TRUE,"6"
"Jan 10 2015","16:11:28",17,"Live","25same75switch","Zero",4,"Chrome",6,"Switch",1,"Novel123",2,"Novel92",1,1700,"down-left-4sec","2","exposure",0,TRUE,FALSE,4,TRUE,"6"
"Jan 10 2015","16:11:28",18,"Live","25same75switch","Zero",4,"Chrome",6,"Switch",1,"Novel82",3,"Novel92",1,2153,"straight-ahead","-1","test",0,TRUE,FALSE,4,FALSE,"6"
"Jan 10 2015","16:11:28",19,"Live","25same75switch","Zero",4,"Chrome",7,"Switch",0,"Novel66",0,"Novel4",2,1492,"up-left-4sec","0","exposure",0,TRUE,FALSE,4,TRUE,"6"
"Jan 10 2015","16:11:28",20,"Live","25same75switch","Zero",4,"Chrome",7,"Switch",0,"Novel71",1,"Novel4",2,1647,"straight-ahead","-1","test",0,TRUE,FALSE,4,FALSE,"6"
"Jan 10 2015","16:11:28",21,"Live","25same75switch","Zero",4,"Chrome",8,"Switch",0,"Novel74",2,"Novel14",3,880,"down-left-4sec","2","exposure",0,TRUE,FALSE,4,TRUE,"6"
"Jan 10 2015","16:11:28",22,"Live","25same75switch","Zero",4,"Chrome",8,"Switch",0,"Novel14",0,"Novel14",3,1370,"straight-ahead","-1","test",0,TRUE,FALSE,4,TRUE,"6"
"Jan 10 2015","16:11:28",23,"Live","25same75switch","Zero",4,"Chrome",9,"Switch",1,"Novel58",3,"Novel54",2,1166,"down-right-4sec","3","exposure",0,TRUE,FALSE,4,TRUE,"6"
"Jan 10 2015","16:11:28",24,"Live","25same75switch","Zero",4,"Chrome",9,"Switch",1,"Novel37",3,"Novel54",2,275,"straight-ahead","-1","test",0,TRUE,FALSE,4,FALSE,"6"
"Jan 10 2015","16:11:28",25,"Live","25same75switch","Zero",4,"Chrome",10,"Switch",0,"Novel9",3,"Novel62",0,901,"down-right-4sec","3","exposure",0,TRUE,FALSE,4,TRUE,"6"
"Jan 10 2015","16:11:28",26,"Live","25same75switch","Zero",4,"Chrome",10,"Switch",0,"Novel49",0,"Novel62",0,970,"straight-ahead","-1","test",0,TRUE,FALSE,4,FALSE,"6"
"Jan 10 2015","16:11:28",27,"Live","25same75switch","Zero",4,"Chrome",11,"Switch",1,"Novel40",1,"Novel114",3,2070,"up-right-4sec","1","exposure",0,TRUE,FALSE,4,TRUE,"6"
"Jan 10 2015","16:11:28",28,"Live","25same75switch","Zero",4,"Chrome",11,"Switch",1,"Novel38",2,"Novel114",3,3384,"straight-ahead","-1","test",0,TRUE,FALSE,4,FALSE,"6"
"Jan 10 2015","16:11:28",29,"Live","25same75switch","Zero",4,"Chrome",12,"Same",1,"Novel79",0,"Novel79",0,2161,"up-left-4sec","0","exposure",0,TRUE,FALSE,4,TRUE,"6"
"Jan 10 2015","16:11:28",30,"Live","25same75switch","Zero",4,"Chrome",12,"Same",1,"Novel79",0,"Novel79",0,305,"straight-ahead","-1","test",0,TRUE,FALSE,4,TRUE,"6"
"Jan 10 2015","16:11:28",31,"Live","25same75switch","Zero",4,"Chrome",13,"Switch",0,"Novel46",0,"Novel124",3,677,"up-left-4sec","0","exposure",0,TRUE,FALSE,4,TRUE,"6"
"Jan 10 2015","16:11:28",32,"Live","25same75switch","Zero",4,"Chrome",13,"Switch",0,"Novel89",3,"Novel124",3,1536,"straight-ahead","-1","test",0,TRUE,FALSE,4,FALSE,"6"
"Jan 10 2015","16:11:28",33,"Live","25same75switch","Zero",4,"Chrome",14,"Switch",1,"Novel85",2,"Novel2",3,2332,"down-left-4sec","2","exposure",0,TRUE,FALSE,4,TRUE,"6"
"Jan 10 2015","16:11:28",34,"Live","25same75switch","Zero",4,"Chrome",14,"Switch",1,"Novel53",0,"Novel2",3,85,"straight-ahead","-1","test",0,TRUE,FALSE,4,FALSE,"6"
"Jan 10 2015","16:11:28",35,"Live","25same75switch","Zero",4,"Chrome",15,"Switch",0,"Novel113",3,"Novel132",0,700,"down-right-4sec","3","exposure",0,TRUE,FALSE,4,TRUE,"6"
"Jan 10 2015","16:11:28",36,"Live","25same75switch","Zero",4,"Chrome",15,"Switch",0,"Novel60",1,"Novel132",0,1209,"straight-ahead","-1","test",0,TRUE,FALSE,4,FALSE,"6"
"Jan 10 2015","13:58:07",1,"Live","75same25switch","Zero",4,"Chrome",0,"Switch",1,"squirrel",0,"",0,292,"up-left-4sec","0","example",0,TRUE,FALSE,4,TRUE,"7"
"Jan 10 2015","13:58:07",2,"Live","75same25switch","Zero",4,"Chrome",0,"Switch",1,"squirrel",0,"",0,154,"up-left-4sec","0","example",0,TRUE,FALSE,4,TRUE,"7"
"Jan 10 2015","13:58:07",3,"Live","75same25switch","Zero",4,"Chrome",0,"Switch",1,"tomato",1,"",0,79,"up-right-4sec","1","example",0,TRUE,FALSE,4,TRUE,"7"
"Jan 10 2015","13:58:07",4,"Live","75same25switch","Zero",4,"Chrome",0,"Switch",1,"tomato",2,"",0,373,"down-left-4sec","2","example",0,TRUE,FALSE,4,TRUE,"7"
"Jan 10 2015","13:58:07",5,"Live","75same25switch","Zero",4,"Chrome",0,"Switch",1,"Novel123",3,"Novel125",0,619,"down-right-4sec","3","exposure",0,TRUE,FALSE,4,TRUE,"7"
"Jan 10 2015","13:58:07",6,"Live","75same25switch","Zero",4,"Chrome",0,"Switch",1,"Novel125",0,"Novel125",0,2266,"straight-ahead","-1","test",0,TRUE,TRUE,4,TRUE,"7"
"Jan 10 2015","13:58:07",7,"Live","75same25switch","Zero",4,"Chrome",1,"Switch",1,"Novel13",1,"Novel73",2,623,"up-right-4sec","1","exposure",0,TRUE,FALSE,4,TRUE,"7"
"Jan 10 2015","13:58:07",8,"Live","75same25switch","Zero",4,"Chrome",1,"Switch",1,"Novel73",2,"Novel73",2,2756,"straight-ahead","-1","test",0,TRUE,FALSE,4,TRUE,"7"
"Jan 10 2015","13:58:07",9,"Live","75same25switch","Zero",4,"Chrome",2,"Same",0,"Novel92",1,"Novel92",1,521,"up-right-4sec","1","exposure",0,TRUE,FALSE,4,TRUE,"7"
"Jan 10 2015","13:58:07",10,"Live","75same25switch","Zero",4,"Chrome",2,"Same",0,"Novel92",3,"Novel92",1,178,"straight-ahead","-1","test",0,TRUE,FALSE,4,TRUE,"7"
"Jan 10 2015","13:58:07",11,"Live","75same25switch","Zero",4,"Chrome",3,"Switch",1,"Novel2",2,"Novel55",0,1175,"down-left-4sec","2","exposure",0,TRUE,FALSE,4,TRUE,"7"
"Jan 10 2015","13:58:07",12,"Live","75same25switch","Zero",4,"Chrome",3,"Switch",1,"Novel55",0,"Novel55",0,843,"straight-ahead","-1","test",0,TRUE,FALSE,4,TRUE,"7"
"Jan 10 2015","13:58:07",13,"Live","75same25switch","Zero",4,"Chrome",4,"Same",1,"Novel43",0,"Novel43",0,287,"up-left-4sec","0","exposure",0,TRUE,FALSE,4,TRUE,"7"
"Jan 10 2015","13:58:07",14,"Live","75same25switch","Zero",4,"Chrome",4,"Same",1,"Novel43",0,"Novel43",0,64,"straight-ahead","-1","test",0,TRUE,FALSE,4,TRUE,"7"
"Jan 10 2015","13:58:07",15,"Live","75same25switch","Zero",4,"Chrome",5,"Same",0,"Novel27",1,"Novel27",1,460,"up-right-4sec","1","exposure",0,TRUE,FALSE,4,TRUE,"7"
"Jan 10 2015","13:58:07",16,"Live","75same25switch","Zero",4,"Chrome",5,"Same",0,"Novel27",3,"Novel27",1,61,"straight-ahead","-1","test",0,TRUE,FALSE,4,TRUE,"7"
"Jan 10 2015","13:58:07",17,"Live","75same25switch","Zero",4,"Chrome",6,"Same",0,"Novel35",2,"Novel35",2,788,"down-left-4sec","2","exposure",0,TRUE,FALSE,4,TRUE,"7"
"Jan 10 2015","13:58:07",18,"Live","75same25switch","Zero",4,"Chrome",6,"Same",0,"Novel35",0,"Novel35",2,108,"straight-ahead","-1","test",0,TRUE,FALSE,4,TRUE,"7"
"Jan 10 2015","13:58:07",19,"Live","75same25switch","Zero",4,"Chrome",7,"Same",0,"Novel37",0,"Novel37",0,1415,"up-left-4sec","0","exposure",0,TRUE,FALSE,4,TRUE,"7"
"Jan 10 2015","13:58:07",20,"Live","75same25switch","Zero",4,"Chrome",7,"Same",0,"Novel37",1,"Novel37",0,160,"straight-ahead","-1","test",0,TRUE,FALSE,4,TRUE,"7"
"Jan 10 2015","13:58:07",21,"Live","75same25switch","Zero",4,"Chrome",8,"Same",1,"Novel78",0,"Novel78",0,295,"up-left-4sec","0","exposure",0,TRUE,FALSE,4,TRUE,"7"
"Jan 10 2015","13:58:07",22,"Live","75same25switch","Zero",4,"Chrome",8,"Same",1,"Novel78",0,"Novel78",0,60,"straight-ahead","-1","test",0,TRUE,FALSE,4,TRUE,"7"
"Jan 10 2015","13:58:07",23,"Live","75same25switch","Zero",4,"Chrome",9,"Same",1,"Novel24",3,"Novel24",3,232,"down-right-4sec","3","exposure",0,TRUE,FALSE,4,TRUE,"7"
"Jan 10 2015","13:58:07",24,"Live","75same25switch","Zero",4,"Chrome",9,"Same",1,"Novel24",3,"Novel24",3,181,"straight-ahead","-1","test",0,TRUE,FALSE,4,TRUE,"7"
"Jan 10 2015","13:58:07",25,"Live","75same25switch","Zero",4,"Chrome",10,"Same",0,"Novel65",3,"Novel65",3,285,"down-right-4sec","3","exposure",0,TRUE,FALSE,4,TRUE,"7"
"Jan 10 2015","13:58:07",26,"Live","75same25switch","Zero",4,"Chrome",10,"Same",0,"Novel65",1,"Novel65",3,63,"straight-ahead","-1","test",0,TRUE,FALSE,4,TRUE,"7"
"Jan 10 2015","13:58:07",27,"Live","75same25switch","Zero",4,"Chrome",11,"Switch",1,"Novel85",3,"Novel81",0,350,"down-right-4sec","3","exposure",0,TRUE,FALSE,4,TRUE,"7"
"Jan 10 2015","13:58:07",28,"Live","75same25switch","Zero",4,"Chrome",11,"Switch",1,"Novel81",0,"Novel81",0,219,"straight-ahead","-1","test",0,TRUE,FALSE,4,TRUE,"7"
"Jan 10 2015","13:58:07",29,"Live","75same25switch","Zero",4,"Chrome",12,"Same",1,"Novel140",3,"Novel140",3,238,"down-right-4sec","3","exposure",0,TRUE,FALSE,4,TRUE,"7"
"Jan 10 2015","13:58:07",30,"Live","75same25switch","Zero",4,"Chrome",12,"Same",1,"Novel140",3,"Novel140",3,77,"straight-ahead","-1","test",0,TRUE,FALSE,4,TRUE,"7"
"Jan 10 2015","13:58:07",31,"Live","75same25switch","Zero",4,"Chrome",13,"Same",0,"Novel133",3,"Novel133",3,326,"down-right-4sec","3","exposure",0,TRUE,FALSE,4,TRUE,"7"
"Jan 10 2015","13:58:07",32,"Live","75same25switch","Zero",4,"Chrome",13,"Same",0,"Novel133",2,"Novel133",3,120,"straight-ahead","-1","test",0,TRUE,FALSE,4,TRUE,"7"
"Jan 10 2015","13:58:07",33,"Live","75same25switch","Zero",4,"Chrome",14,"Same",0,"Novel94",1,"Novel94",1,571,"up-right-4sec","1","exposure",0,TRUE,FALSE,4,TRUE,"7"
"Jan 10 2015","13:58:07",34,"Live","75same25switch","Zero",4,"Chrome",14,"Same",0,"Novel94",2,"Novel94",1,36,"straight-ahead","-1","test",0,TRUE,FALSE,4,TRUE,"7"
"Jan 10 2015","13:58:07",35,"Live","75same25switch","Zero",4,"Chrome",15,"Same",0,"Novel6",1,"Novel6",1,230,"up-right-4sec","1","exposure",0,TRUE,FALSE,4,TRUE,"7"
"Jan 10 2015","13:58:07",36,"Live","75same25switch","Zero",4,"Chrome",15,"Same",0,"Novel6",0,"Novel6",1,179,"straight-ahead","-1","test",0,TRUE,FALSE,4,TRUE,"7"
"Jan 10 2015","12:06:15",1,"Live","25same75switch","Zero",4,"Firefox",0,"Same",1,"squirrel",0,"",0,859,"up-left-4sec","0","example",0,TRUE,FALSE,4,TRUE,"8"
"Jan 10 2015","12:06:15",2,"Live","25same75switch","Zero",4,"Firefox",0,"Same",1,"squirrel",0,"",0,613,"up-left-4sec","0","example",0,TRUE,FALSE,4,TRUE,"8"
"Jan 10 2015","12:06:15",3,"Live","25same75switch","Zero",4,"Firefox",0,"Same",1,"tomato",1,"",0,1172,"up-right-4sec","1","example",0,TRUE,FALSE,4,TRUE,"8"
"Jan 10 2015","12:06:15",4,"Live","25same75switch","Zero",4,"Firefox",0,"Same",1,"tomato",2,"",0,202,"down-left-4sec","2","example",0,TRUE,FALSE,4,TRUE,"8"
"Jan 10 2015","12:06:15",5,"Live","25same75switch","Zero",4,"Firefox",0,"Same",1,"Novel134",1,"Novel134",1,5664,"down-right-4sec","3","exposure",0,TRUE,FALSE,4,FALSE,"8"
"Jan 10 2015","12:06:15",6,"Live","25same75switch","Zero",4,"Firefox",0,"Same",1,"Novel134",1,"Novel134",1,2353,"straight-ahead","-1","test",0,TRUE,TRUE,4,TRUE,"8"
"Jan 10 2015","12:06:15",7,"Live","25same75switch","Zero",4,"Firefox",1,"Switch",1,"Novel58",1,"Novel16",0,1800,"up-left-4sec","0","exposure",0,TRUE,FALSE,4,FALSE,"8"
"Jan 10 2015","12:06:15",8,"Live","25same75switch","Zero",4,"Firefox",1,"Switch",1,"Novel28",2,"Novel16",0,1964,"straight-ahead","-1","test",0,TRUE,FALSE,4,FALSE,"8"
"Jan 10 2015","12:06:15",9,"Live","25same75switch","Zero",4,"Firefox",2,"Switch",0,"Novel87",2,"Novel89",0,3054,"down-right-4sec","3","exposure",0,TRUE,FALSE,4,FALSE,"8"
"Jan 10 2015","12:06:15",10,"Live","25same75switch","Zero",4,"Firefox",2,"Switch",0,"Novel89",2,"Novel89",0,408,"straight-ahead","-1","test",0,TRUE,FALSE,4,TRUE,"8"
"Jan 10 2015","12:06:15",11,"Live","25same75switch","Zero",4,"Firefox",3,"Switch",0,"Novel18",3,"Novel74",0,3206,"down-left-4sec","2","exposure",0,TRUE,FALSE,4,FALSE,"8"
"Jan 10 2015","12:06:15",12,"Live","25same75switch","Zero",4,"Firefox",3,"Switch",0,"Novel74",3,"Novel74",0,567,"straight-ahead","-1","test",0,TRUE,FALSE,4,TRUE,"8"
"Jan 10 2015","12:06:15",13,"Live","25same75switch","Zero",4,"Firefox",4,"Switch",0,"Novel116",1,"Novel62",2,2989,"down-left-4sec","2","exposure",0,TRUE,FALSE,4,FALSE,"8"
"Jan 10 2015","12:06:15",14,"Live","25same75switch","Zero",4,"Firefox",4,"Switch",0,"Novel62",0,"Novel62",2,693,"straight-ahead","-1","test",0,TRUE,FALSE,4,TRUE,"8"
"Jan 10 2015","12:06:15",15,"Live","25same75switch","Zero",4,"Firefox",5,"Switch",1,"Novel105",2,"Novel102",0,2193,"up-right-4sec","1","exposure",0,TRUE,FALSE,4,FALSE,"8"
"Jan 10 2015","12:06:15",16,"Live","25same75switch","Zero",4,"Firefox",5,"Switch",1,"Novel102",0,"Novel102",0,577,"straight-ahead","-1","test",0,TRUE,FALSE,4,TRUE,"8"
"Jan 10 2015","12:06:15",17,"Live","25same75switch","Zero",4,"Firefox",6,"Same",1,"Novel107",1,"Novel107",1,1703,"down-left-4sec","2","exposure",0,TRUE,FALSE,4,FALSE,"8"
"Jan 10 2015","12:06:15",18,"Live","25same75switch","Zero",4,"Firefox",6,"Same",1,"Novel107",1,"Novel107",1,345,"straight-ahead","-1","test",0,TRUE,FALSE,4,TRUE,"8"
"Jan 10 2015","12:06:15",19,"Live","25same75switch","Zero",4,"Firefox",7,"Switch",0,"Novel60",2,"Novel54",3,1812,"up-left-4sec","0","exposure",0,TRUE,FALSE,4,FALSE,"8"
"Jan 10 2015","12:06:15",20,"Live","25same75switch","Zero",4,"Firefox",7,"Switch",0,"Novel54",2,"Novel54",3,33,"straight-ahead","-1","test",0,TRUE,FALSE,4,TRUE,"8"
"Jan 10 2015","12:06:15",21,"Live","25same75switch","Zero",4,"Firefox",8,"Switch",1,"Novel125",3,"Novel32",2,1758,"down-right-4sec","3","exposure",0,TRUE,FALSE,4,TRUE,"8"
"Jan 10 2015","12:06:15",22,"Live","25same75switch","Zero",4,"Firefox",8,"Switch",1,"Novel32",2,"Novel32",2,571,"straight-ahead","-1","test",0,TRUE,FALSE,4,TRUE,"8"
"Jan 10 2015","12:06:15",23,"Live","25same75switch","Zero",4,"Firefox",9,"Switch",1,"Novel128",1,"Novel80",0,2969,"up-right-4sec","1","exposure",0,TRUE,FALSE,4,TRUE,"8"
"Jan 10 2015","12:06:15",24,"Live","25same75switch","Zero",4,"Firefox",9,"Switch",1,"Novel80",0,"Novel80",0,332,"straight-ahead","-1","test",0,TRUE,FALSE,4,TRUE,"8"
"Jan 10 2015","12:06:15",25,"Live","25same75switch","Zero",4,"Firefox",10,"Same",0,"Novel120",2,"Novel120",2,2355,"down-right-4sec","3","exposure",0,TRUE,FALSE,4,FALSE,"8"
"Jan 10 2015","12:06:15",26,"Live","25same75switch","Zero",4,"Firefox",10,"Same",0,"Novel120",1,"Novel120",2,597,"straight-ahead","-1","test",0,TRUE,FALSE,4,TRUE,"8"
"Jan 10 2015","12:06:15",27,"Live","25same75switch","Zero",4,"Firefox",11,"Switch",0,"Novel53",2,"Novel42",0,2665,"down-left-4sec","2","exposure",0,TRUE,FALSE,4,TRUE,"8"
"Jan 10 2015","12:06:15",28,"Live","25same75switch","Zero",4,"Firefox",11,"Switch",0,"Novel42",1,"Novel42",0,1361,"straight-ahead","-1","test",0,TRUE,FALSE,4,TRUE,"8"
"Jan 10 2015","12:06:15",29,"Live","25same75switch","Zero",4,"Firefox",12,"Switch",0,"Novel14",1,"Novel127",0,2163,"up-right-4sec","1","exposure",0,TRUE,FALSE,4,TRUE,"8"
"Jan 10 2015","12:06:15",30,"Live","25same75switch","Zero",4,"Firefox",12,"Switch",0,"Novel127",3,"Novel127",0,2444,"straight-ahead","-1","test",0,TRUE,FALSE,4,TRUE,"8"
"Jan 10 2015","12:06:15",31,"Live","25same75switch","Zero",4,"Firefox",13,"Switch",1,"Novel101",0,"Novel66",1,2345,"up-right-4sec","1","exposure",0,TRUE,FALSE,4,FALSE,"8"
"Jan 10 2015","12:06:15",32,"Live","25same75switch","Zero",4,"Firefox",13,"Switch",1,"Novel66",1,"Novel66",1,771,"straight-ahead","-1","test",0,TRUE,FALSE,4,TRUE,"8"
"Jan 10 2015","12:06:15",33,"Live","25same75switch","Zero",4,"Firefox",14,"Same",1,"Novel63",3,"Novel63",3,1004,"up-left-4sec","0","exposure",0,TRUE,FALSE,4,FALSE,"8"
"Jan 10 2015","12:06:15",34,"Live","25same75switch","Zero",4,"Firefox",14,"Same",1,"Novel63",3,"Novel63",3,358,"straight-ahead","-1","test",0,TRUE,FALSE,4,TRUE,"8"
"Jan 10 2015","12:06:15",35,"Live","25same75switch","Zero",4,"Firefox",15,"Switch",0,"Novel112",1,"Novel70",3,4177,"down-right-4sec","3","exposure",0,TRUE,FALSE,4,FALSE,"8"
"Jan 10 2015","12:06:15",36,"Live","25same75switch","Zero",4,"Firefox",15,"Switch",0,"Novel70",1,"Novel70",3,460,"straight-ahead","-1","test",0,TRUE,FALSE,4,TRUE,"8"
"Jan 10 2015","19:32:51",1,"Live","25same75switch","Zero",4,"Firefox",0,"Switch",0,"squirrel",0,"",0,4749,"up-left-4sec","0","example",0,TRUE,FALSE,4,TRUE,"9"
"Jan 10 2015","19:32:51",2,"Live","25same75switch","Zero",4,"Firefox",0,"Switch",0,"squirrel",0,"",0,2623,"up-left-4sec","0","example",0,TRUE,FALSE,4,TRUE,"9"
"Jan 10 2015","19:32:51",3,"Live","25same75switch","Zero",4,"Firefox",0,"Switch",0,"tomato",1,"",0,645,"up-right-4sec","1","example",0,TRUE,FALSE,4,TRUE,"9"
"Jan 10 2015","19:32:51",4,"Live","25same75switch","Zero",4,"Firefox",0,"Switch",0,"tomato",2,"",0,1008,"down-left-4sec","2","example",0,TRUE,FALSE,4,TRUE,"9"
"Jan 10 2015","19:32:51",5,"Live","25same75switch","Zero",4,"Firefox",0,"Switch",0,"Novel77",0,"Novel51",3,2882,"up-left-4sec","0","exposure",0,TRUE,FALSE,4,TRUE,"9"
"Jan 10 2015","19:32:51",6,"Live","25same75switch","Zero",4,"Firefox",0,"Switch",0,"Novel51",2,"Novel51",3,4654,"straight-ahead","-1","test",0,TRUE,TRUE,4,TRUE,"9"
"Jan 10 2015","19:32:51",7,"Live","25same75switch","Zero",4,"Firefox",1,"Switch",0,"Novel19",1,"Novel22",3,3986,"down-right-4sec","3","exposure",0,TRUE,FALSE,4,FALSE,"9"
"Jan 10 2015","19:32:51",8,"Live","25same75switch","Zero",4,"Firefox",1,"Switch",0,"Novel22",1,"Novel22",3,830,"straight-ahead","-1","test",0,TRUE,FALSE,4,TRUE,"9"
"Jan 10 2015","19:32:51",9,"Live","25same75switch","Zero",4,"Firefox",2,"Switch",0,"Novel54",0,"Novel132",2,1358,"up-left-4sec","0","exposure",0,TRUE,FALSE,4,TRUE,"9"
"Jan 10 2015","19:32:51",10,"Live","25same75switch","Zero",4,"Firefox",2,"Switch",0,"Novel34",2,"Novel132",2,489,"straight-ahead","-1","test",0,TRUE,FALSE,4,FALSE,"9"
"Jan 10 2015","19:32:51",11,"Live","25same75switch","Zero",4,"Firefox",3,"Switch",0,"Novel83",3,"Novel133",0,2322,"up-right-4sec","1","exposure",0,TRUE,FALSE,4,FALSE,"9"
"Jan 10 2015","19:32:51",12,"Live","25same75switch","Zero",4,"Firefox",3,"Switch",0,"Novel102",2,"Novel133",0,2708,"straight-ahead","-1","test",0,TRUE,FALSE,4,FALSE,"9"
"Jan 10 2015","19:32:51",13,"Live","25same75switch","Zero",4,"Firefox",4,"Same",1,"Novel46",3,"Novel46",3,1639,"up-left-4sec","0","exposure",0,TRUE,FALSE,4,FALSE,"9"
"Jan 10 2015","19:32:51",14,"Live","25same75switch","Zero",4,"Firefox",4,"Same",1,"Novel46",3,"Novel46",3,185,"straight-ahead","-1","test",0,TRUE,FALSE,4,TRUE,"9"
"Jan 10 2015","19:32:51",15,"Live","25same75switch","Zero",4,"Firefox",5,"Switch",1,"Novel108",3,"Novel120",1,1984,"down-left-4sec","2","exposure",0,TRUE,FALSE,4,FALSE,"9"
"Jan 10 2015","19:32:51",16,"Live","25same75switch","Zero",4,"Firefox",5,"Switch",1,"Novel120",1,"Novel120",1,2657,"straight-ahead","-1","test",0,TRUE,FALSE,4,TRUE,"9"
"Jan 10 2015","19:32:51",17,"Live","25same75switch","Zero",4,"Firefox",6,"Same",1,"Novel105",2,"Novel105",2,2509,"down-left-4sec","2","exposure",0,TRUE,FALSE,4,TRUE,"9"
"Jan 10 2015","19:32:51",18,"Live","25same75switch","Zero",4,"Firefox",6,"Same",1,"Novel105",2,"Novel105",2,113,"straight-ahead","-1","test",0,TRUE,FALSE,4,TRUE,"9"
"Jan 10 2015","19:32:51",19,"Live","25same75switch","Zero",4,"Firefox",7,"Switch",1,"Novel82",0,"Novel16",2,939,"up-left-4sec","0","exposure",0,TRUE,FALSE,4,TRUE,"9"
"Jan 10 2015","19:32:51",20,"Live","25same75switch","Zero",4,"Firefox",7,"Switch",1,"Novel16",2,"Novel16",2,53,"straight-ahead","-1","test",0,TRUE,FALSE,4,TRUE,"9"
"Jan 10 2015","19:32:51",21,"Live","25same75switch","Zero",4,"Firefox",8,"Switch",0,"Novel33",3,"Novel42",1,1029,"up-right-4sec","1","exposure",0,TRUE,FALSE,4,FALSE,"9"
"Jan 10 2015","19:32:51",22,"Live","25same75switch","Zero",4,"Firefox",8,"Switch",0,"Novel42",0,"Novel42",1,41,"straight-ahead","-1","test",0,TRUE,FALSE,4,TRUE,"9"
"Jan 10 2015","19:32:51",23,"Live","25same75switch","Zero",4,"Firefox",9,"Switch",0,"Novel76",1,"Novel96",0,2999,"down-left-4sec","2","exposure",0,TRUE,FALSE,4,FALSE,"9"
"Jan 10 2015","19:32:51",24,"Live","25same75switch","Zero",4,"Firefox",9,"Switch",0,"Novel10",3,"Novel96",0,58,"straight-ahead","-1","test",0,TRUE,FALSE,4,FALSE,"9"
"Jan 10 2015","19:32:51",25,"Live","25same75switch","Zero",4,"Firefox",10,"Switch",0,"Novel14",0,"Novel98",1,923,"up-left-4sec","0","exposure",0,TRUE,FALSE,4,TRUE,"9"
"Jan 10 2015","19:32:51",26,"Live","25same75switch","Zero",4,"Firefox",10,"Switch",0,"Novel4",3,"Novel98",1,100,"straight-ahead","-1","test",0,TRUE,FALSE,4,FALSE,"9"
"Jan 10 2015","19:32:51",27,"Live","25same75switch","Zero",4,"Firefox",11,"Same",0,"Novel20",1,"Novel20",1,229,"down-right-4sec","3","exposure",0,TRUE,FALSE,4,FALSE,"9"
"Jan 10 2015","19:32:51",28,"Live","25same75switch","Zero",4,"Firefox",11,"Same",0,"Novel20",3,"Novel20",1,69,"straight-ahead","-1","test",0,TRUE,FALSE,4,TRUE,"9"
"Jan 10 2015","19:32:51",29,"Live","25same75switch","Zero",4,"Firefox",12,"Same",1,"Novel79",1,"Novel79",1,947,"down-left-4sec","2","exposure",0,TRUE,FALSE,4,FALSE,"9"
"Jan 10 2015","19:32:51",30,"Live","25same75switch","Zero",4,"Firefox",12,"Same",1,"Novel79",1,"Novel79",1,1080,"straight-ahead","-1","test",0,TRUE,FALSE,4,TRUE,"9"
"Jan 10 2015","19:32:51",31,"Live","25same75switch","Zero",4,"Firefox",13,"Switch",1,"Novel104",2,"Novel137",1,562,"down-left-4sec","2","exposure",0,TRUE,FALSE,4,TRUE,"9"
"Jan 10 2015","19:32:51",32,"Live","25same75switch","Zero",4,"Firefox",13,"Switch",1,"Novel137",1,"Novel137",1,101,"straight-ahead","-1","test",0,TRUE,FALSE,4,TRUE,"9"
"Jan 10 2015","19:32:51",33,"Live","25same75switch","Zero",4,"Firefox",14,"Switch",1,"Novel62",1,"Novel59",2,734,"up-right-4sec","1","exposure",0,TRUE,FALSE,4,TRUE,"9"
"Jan 10 2015","19:32:51",34,"Live","25same75switch","Zero",4,"Firefox",14,"Switch",1,"Novel59",2,"Novel59",2,158,"straight-ahead","-1","test",0,TRUE,FALSE,4,TRUE,"9"
"Jan 10 2015","19:32:51",35,"Live","25same75switch","Zero",4,"Firefox",15,"Switch",1,"Novel134",3,"Novel66",2,526,"down-right-4sec","3","exposure",0,TRUE,FALSE,4,TRUE,"9"
"Jan 10 2015","19:32:51",36,"Live","25same75switch","Zero",4,"Firefox",15,"Switch",1,"Novel92",1,"Novel66",2,133,"straight-ahead","-1","test",0,TRUE,FALSE,4,FALSE,"9"
"Jan 10 2015","19:05:30",1,"Live","75same25switch","Zero",4,"Firefox",0,"Same",1,"squirrel",0,"",0,1438,"up-left-4sec","0","example",0,TRUE,FALSE,4,TRUE,"10"
"Jan 10 2015","19:05:30",2,"Live","75same25switch","Zero",4,"Firefox",0,"Same",1,"squirrel",0,"",0,1913,"up-left-4sec","0","example",0,TRUE,FALSE,4,TRUE,"10"
"Jan 10 2015","19:05:30",3,"Live","75same25switch","Zero",4,"Firefox",0,"Same",1,"tomato",1,"",0,639,"up-right-4sec","1","example",0,TRUE,FALSE,4,TRUE,"10"
"Jan 10 2015","19:05:30",4,"Live","75same25switch","Zero",4,"Firefox",0,"Same",1,"tomato",2,"",0,495,"down-left-4sec","2","example",0,TRUE,FALSE,4,TRUE,"10"
"Jan 10 2015","19:05:30",5,"Live","75same25switch","Zero",4,"Firefox",0,"Same",1,"Novel59",1,"Novel59",1,5108,"up-right-4sec","1","exposure",0,TRUE,FALSE,4,TRUE,"10"
"Jan 10 2015","19:05:30",6,"Live","75same25switch","Zero",4,"Firefox",0,"Same",1,"Novel59",1,"Novel59",1,1569,"straight-ahead","-1","test",0,TRUE,TRUE,4,TRUE,"10"
"Jan 10 2015","19:05:30",7,"Live","75same25switch","Zero",4,"Firefox",1,"Same",0,"Novel119",1,"Novel119",1,3854,"up-right-4sec","1","exposure",0,TRUE,FALSE,4,TRUE,"10"
"Jan 10 2015","19:05:30",8,"Live","75same25switch","Zero",4,"Firefox",1,"Same",0,"Novel119",2,"Novel119",1,855,"straight-ahead","-1","test",0,TRUE,FALSE,4,TRUE,"10"
"Jan 10 2015","19:05:30",9,"Live","75same25switch","Zero",4,"Firefox",2,"Same",1,"Novel103",3,"Novel103",3,4359,"down-left-4sec","2","exposure",0,TRUE,FALSE,4,FALSE,"10"
"Jan 10 2015","19:05:30",10,"Live","75same25switch","Zero",4,"Firefox",2,"Same",1,"Novel103",3,"Novel103",3,474,"straight-ahead","-1","test",0,TRUE,FALSE,4,TRUE,"10"
"Jan 10 2015","19:05:30",11,"Live","75same25switch","Zero",4,"Firefox",3,"Same",1,"Novel130",3,"Novel130",3,4127,"up-right-4sec","1","exposure",0,TRUE,FALSE,4,FALSE,"10"
"Jan 10 2015","19:05:30",12,"Live","75same25switch","Zero",4,"Firefox",3,"Same",1,"Novel1",1,"Novel130",3,3691,"straight-ahead","-1","test",0,TRUE,FALSE,4,FALSE,"10"
"Jan 10 2015","19:05:30",13,"Live","75same25switch","Zero",4,"Firefox",4,"Switch",0,"Novel110",2,"Novel86",0,3498,"up-left-4sec","0","exposure",0,TRUE,FALSE,4,FALSE,"10"
"Jan 10 2015","19:05:30",14,"Live","75same25switch","Zero",4,"Firefox",4,"Switch",0,"Novel136",0,"Novel86",0,3945,"straight-ahead","-1","test",0,TRUE,FALSE,4,FALSE,"10"
"Jan 10 2015","19:05:30",15,"Live","75same25switch","Zero",4,"Firefox",5,"Same",0,"Novel82",2,"Novel82",2,4421,"down-left-4sec","2","exposure",0,TRUE,FALSE,4,TRUE,"10"
"Jan 10 2015","19:05:30",16,"Live","75same25switch","Zero",4,"Firefox",5,"Same",0,"Novel14",0,"Novel82",2,1456,"straight-ahead","-1","test",0,TRUE,FALSE,4,FALSE,"10"
"Jan 10 2015","19:05:30",17,"Live","75same25switch","Zero",4,"Firefox",6,"Same",0,"Novel40",2,"Novel40",2,5100,"up-left-4sec","0","exposure",0,TRUE,FALSE,4,FALSE,"10"
"Jan 10 2015","19:05:30",18,"Live","75same25switch","Zero",4,"Firefox",6,"Same",0,"Novel40",1,"Novel40",2,536,"straight-ahead","-1","test",0,TRUE,FALSE,4,TRUE,"10"
"Jan 10 2015","19:05:30",19,"Live","75same25switch","Zero",4,"Firefox",7,"Same",1,"Novel38",1,"Novel38",1,1913,"down-left-4sec","2","exposure",0,TRUE,FALSE,4,FALSE,"10"
"Jan 10 2015","19:05:30",20,"Live","75same25switch","Zero",4,"Firefox",7,"Same",1,"Novel38",1,"Novel38",1,835,"straight-ahead","-1","test",0,TRUE,FALSE,4,TRUE,"10"
"Jan 10 2015","19:05:30",21,"Live","75same25switch","Zero",4,"Firefox",8,"Same",1,"Novel6",1,"Novel6",1,2372,"up-right-4sec","1","exposure",0,TRUE,FALSE,4,TRUE,"10"
"Jan 10 2015","19:05:30",22,"Live","75same25switch","Zero",4,"Firefox",8,"Same",1,"Novel6",1,"Novel6",1,696,"straight-ahead","-1","test",0,TRUE,FALSE,4,TRUE,"10"
"Jan 10 2015","19:05:30",23,"Live","75same25switch","Zero",4,"Firefox",9,"Same",0,"Novel131",1,"Novel131",1,3913,"down-right-4sec","3","exposure",0,TRUE,FALSE,4,FALSE,"10"
"Jan 10 2015","19:05:30",24,"Live","75same25switch","Zero",4,"Firefox",9,"Same",0,"Novel131",0,"Novel131",1,321,"straight-ahead","-1","test",0,TRUE,FALSE,4,TRUE,"10"
"Jan 10 2015","19:05:30",25,"Live","75same25switch","Zero",4,"Firefox",10,"Same",1,"Novel20",0,"Novel20",0,3546,"down-right-4sec","3","exposure",0,TRUE,FALSE,4,FALSE,"10"
"Jan 10 2015","19:05:30",26,"Live","75same25switch","Zero",4,"Firefox",10,"Same",1,"Novel43",3,"Novel20",0,457,"straight-ahead","-1","test",0,TRUE,FALSE,4,FALSE,"10"
"Jan 10 2015","19:05:30",27,"Live","75same25switch","Zero",4,"Firefox",11,"Switch",1,"Novel98",2,"Novel139",3,2907,"up-right-4sec","1","exposure",0,TRUE,FALSE,4,FALSE,"10"
"Jan 10 2015","19:05:30",28,"Live","75same25switch","Zero",4,"Firefox",11,"Switch",1,"Novel90",0,"Novel139",3,1646,"straight-ahead","-1","test",0,TRUE,FALSE,4,FALSE,"10"
"Jan 10 2015","19:05:30",29,"Live","75same25switch","Zero",4,"Firefox",12,"Switch",0,"Novel117",0,"Novel125",1,3655,"down-left-4sec","2","exposure",0,TRUE,FALSE,4,FALSE,"10"
"Jan 10 2015","19:05:30",30,"Live","75same25switch","Zero",4,"Firefox",12,"Switch",0,"Novel108",1,"Novel125",1,637,"straight-ahead","-1","test",0,TRUE,FALSE,4,FALSE,"10"
"Jan 10 2015","19:05:30",31,"Live","75same25switch","Zero",4,"Firefox",13,"Switch",0,"Novel76",1,"Novel77",2,1758,"down-right-4sec","3","exposure",0,TRUE,FALSE,4,FALSE,"10"
"Jan 10 2015","19:05:30",32,"Live","75same25switch","Zero",4,"Firefox",13,"Switch",0,"Novel33",2,"Novel77",2,1605,"straight-ahead","-1","test",0,TRUE,FALSE,4,FALSE,"10"
"Jan 10 2015","19:05:30",33,"Live","75same25switch","Zero",4,"Firefox",14,"Same",0,"Novel7",1,"Novel7",1,2846,"up-right-4sec","1","exposure",0,TRUE,FALSE,4,TRUE,"10"
"Jan 10 2015","19:05:30",34,"Live","75same25switch","Zero",4,"Firefox",14,"Same",0,"Novel7",2,"Novel7",1,118,"straight-ahead","-1","test",0,TRUE,FALSE,4,TRUE,"10"
"Jan 10 2015","19:05:30",35,"Live","75same25switch","Zero",4,"Firefox",15,"Same",1,"Novel37",1,"Novel37",1,1008,"up-right-4sec","1","exposure",0,TRUE,FALSE,4,TRUE,"10"
"Jan 10 2015","19:05:30",36,"Live","75same25switch","Zero",4,"Firefox",15,"Same",1,"Novel37",1,"Novel37",1,300,"straight-ahead","-1","test",0,TRUE,FALSE,4,TRUE,"10"
"Jan 10 2015","13:06:40",1,"Live","50samev50switch","Zero",4,"Chrome",0,"Same",0,"squirrel",0,"",0,333,"up-left-4sec","0","example",0,TRUE,FALSE,4,TRUE,"11"
"Jan 10 2015","13:06:40",2,"Live","50samev50switch","Zero",4,"Chrome",0,"Same",0,"squirrel",0,"",0,331,"up-left-4sec","0","example",0,TRUE,FALSE,4,TRUE,"11"
"Jan 10 2015","13:06:40",3,"Live","50samev50switch","Zero",4,"Chrome",0,"Same",0,"tomato",1,"",0,367,"up-right-4sec","1","example",0,TRUE,FALSE,4,TRUE,"11"
"Jan 10 2015","13:06:40",4,"Live","50samev50switch","Zero",4,"Chrome",0,"Same",0,"tomato",2,"",0,410,"down-left-4sec","2","example",0,TRUE,FALSE,4,TRUE,"11"
"Jan 10 2015","13:06:40",5,"Live","50samev50switch","Zero",4,"Chrome",0,"Same",0,"Novel67",3,"Novel67",3,1157,"down-right-4sec","3","exposure",0,TRUE,FALSE,4,TRUE,"11"
"Jan 10 2015","13:06:40",6,"Live","50samev50switch","Zero",4,"Chrome",0,"Same",0,"Novel116",2,"Novel67",3,1543,"straight-ahead","-1","test",0,TRUE,TRUE,4,FALSE,"11"
"Jan 10 2015","13:06:40",7,"Live","50samev50switch","Zero",4,"Chrome",1,"Same",0,"Novel96",2,"Novel96",2,983,"down-left-4sec","2","exposure",0,TRUE,FALSE,4,TRUE,"11"
"Jan 10 2015","13:06:40",8,"Live","50samev50switch","Zero",4,"Chrome",1,"Same",0,"Novel96",0,"Novel96",2,438,"straight-ahead","-1","test",0,TRUE,FALSE,4,TRUE,"11"
"Jan 10 2015","13:06:40",9,"Live","50samev50switch","Zero",4,"Chrome",2,"Same",1,"Novel33",0,"Novel33",0,819,"up-left-4sec","0","exposure",0,TRUE,FALSE,4,TRUE,"11"
"Jan 10 2015","13:06:40",10,"Live","50samev50switch","Zero",4,"Chrome",2,"Same",1,"Novel33",0,"Novel33",0,1175,"straight-ahead","-1","test",0,TRUE,FALSE,4,TRUE,"11"
"Jan 10 2015","13:06:40",11,"Live","50samev50switch","Zero",4,"Chrome",3,"Same",0,"Novel54",0,"Novel54",0,834,"up-left-4sec","0","exposure",0,TRUE,FALSE,4,TRUE,"11"
"Jan 10 2015","13:06:40",12,"Live","50samev50switch","Zero",4,"Chrome",3,"Same",0,"Novel54",2,"Novel54",0,451,"straight-ahead","-1","test",0,TRUE,FALSE,4,TRUE,"11"
"Jan 10 2015","13:06:40",13,"Live","50samev50switch","Zero",4,"Chrome",4,"Same",1,"Novel130",0,"Novel130",0,2692,"up-left-4sec","0","exposure",0,TRUE,FALSE,4,TRUE,"11"
"Jan 10 2015","13:06:40",14,"Live","50samev50switch","Zero",4,"Chrome",4,"Same",1,"Novel130",0,"Novel130",0,425,"straight-ahead","-1","test",0,TRUE,FALSE,4,TRUE,"11"
"Jan 10 2015","13:06:40",15,"Live","50samev50switch","Zero",4,"Chrome",5,"Same",1,"Novel139",0,"Novel139",0,601,"up-left-4sec","0","exposure",0,TRUE,FALSE,4,TRUE,"11"
"Jan 10 2015","13:06:40",16,"Live","50samev50switch","Zero",4,"Chrome",5,"Same",1,"Novel139",0,"Novel139",0,1607,"straight-ahead","-1","test",0,TRUE,FALSE,4,TRUE,"11"
"Jan 10 2015","13:06:40",17,"Live","50samev50switch","Zero",4,"Chrome",6,"Switch",0,"Novel91",0,"Novel129",2,788,"up-left-4sec","0","exposure",0,TRUE,FALSE,4,TRUE,"11"
"Jan 10 2015","13:06:40",18,"Live","50samev50switch","Zero",4,"Chrome",6,"Switch",0,"Novel26",1,"Novel129",2,3494,"straight-ahead","-1","test",0,TRUE,FALSE,4,FALSE,"11"
"Jan 10 2015","13:06:40",19,"Live","50samev50switch","Zero",4,"Chrome",7,"Switch",1,"Novel97",2,"Novel89",3,675,"down-left-4sec","2","exposure",0,TRUE,FALSE,4,TRUE,"11"
"Jan 10 2015","13:06:40",20,"Live","50samev50switch","Zero",4,"Chrome",7,"Switch",1,"Novel107",1,"Novel89",3,1565,"straight-ahead","-1","test",0,TRUE,FALSE,4,FALSE,"11"
"Jan 10 2015","13:06:40",21,"Live","50samev50switch","Zero",4,"Chrome",8,"Switch",0,"Novel123",0,"Novel22",3,2513,"down-right-4sec","3","exposure",0,TRUE,FALSE,4,FALSE,"11"
"Jan 10 2015","13:06:40",22,"Live","50samev50switch","Zero",4,"Chrome",8,"Switch",0,"Novel22",2,"Novel22",3,751,"straight-ahead","-1","test",0,TRUE,FALSE,4,TRUE,"11"
"Jan 10 2015","13:06:40",23,"Live","50samev50switch","Zero",4,"Chrome",9,"Switch",0,"Novel57",3,"Novel56",0,880,"down-right-4sec","3","exposure",0,TRUE,FALSE,4,TRUE,"11"
"Jan 10 2015","13:06:40",24,"Live","50samev50switch","Zero",4,"Chrome",9,"Switch",0,"Novel90",2,"Novel56",0,1095,"straight-ahead","-1","test",0,TRUE,FALSE,4,FALSE,"11"
"Jan 10 2015","13:06:40",25,"Live","50samev50switch","Zero",4,"Chrome",10,"Switch",1,"Novel65",0,"Novel21",1,904,"up-right-4sec","1","exposure",0,TRUE,FALSE,4,FALSE,"11"
"Jan 10 2015","13:06:40",26,"Live","50samev50switch","Zero",4,"Chrome",10,"Switch",1,"Novel21",1,"Novel21",1,647,"straight-ahead","-1","test",0,TRUE,FALSE,4,TRUE,"11"
"Jan 10 2015","13:06:40",27,"Live","50samev50switch","Zero",4,"Chrome",11,"Same",0,"Novel86",0,"Novel86",0,618,"up-left-4sec","0","exposure",0,TRUE,FALSE,4,TRUE,"11"
"Jan 10 2015","13:06:40",28,"Live","50samev50switch","Zero",4,"Chrome",11,"Same",0,"Novel86",2,"Novel86",0,397,"straight-ahead","-1","test",0,TRUE,FALSE,4,TRUE,"11"
"Jan 10 2015","13:06:40",29,"Live","50samev50switch","Zero",4,"Chrome",12,"Same",1,"Novel32",3,"Novel32",3,2286,"down-right-4sec","3","exposure",0,TRUE,FALSE,4,TRUE,"11"
"Jan 10 2015","13:06:40",30,"Live","50samev50switch","Zero",4,"Chrome",12,"Same",1,"Novel32",3,"Novel32",3,263,"straight-ahead","-1","test",0,TRUE,FALSE,4,TRUE,"11"
"Jan 10 2015","13:06:40",31,"Live","50samev50switch","Zero",4,"Chrome",13,"Switch",1,"Novel66",2,"Novel103",3,1324,"down-left-4sec","2","exposure",0,TRUE,FALSE,4,TRUE,"11"
"Jan 10 2015","13:06:40",32,"Live","50samev50switch","Zero",4,"Chrome",13,"Switch",1,"Novel36",1,"Novel103",3,328,"straight-ahead","-1","test",0,TRUE,FALSE,4,FALSE,"11"
"Jan 10 2015","13:06:40",33,"Live","50samev50switch","Zero",4,"Chrome",14,"Switch",0,"Novel20",0,"Novel42",2,796,"up-left-4sec","0","exposure",0,TRUE,FALSE,4,TRUE,"11"
"Jan 10 2015","13:06:40",34,"Live","50samev50switch","Zero",4,"Chrome",14,"Switch",0,"Novel42",3,"Novel42",2,436,"straight-ahead","-1","test",0,TRUE,FALSE,4,TRUE,"11"
"Jan 10 2015","13:06:40",35,"Live","50samev50switch","Zero",4,"Chrome",15,"Switch",1,"Novel9",2,"Novel6",1,806,"down-left-4sec","2","exposure",0,TRUE,FALSE,4,TRUE,"11"
"Jan 10 2015","13:06:40",36,"Live","50samev50switch","Zero",4,"Chrome",15,"Switch",1,"Novel121",2,"Novel6",1,201,"straight-ahead","-1","test",0,TRUE,FALSE,4,FALSE,"11"
"Jan 10 2015","12:03:13",1,"Live","25same75switch","Zero",4,"Chrome",0,"Switch",0,"squirrel",0,"",0,3968,"up-left-4sec","0","example",0,TRUE,FALSE,4,TRUE,"12"
"Jan 10 2015","12:03:13",2,"Live","25same75switch","Zero",4,"Chrome",0,"Switch",0,"squirrel",0,"",0,561,"up-left-4sec","0","example",0,TRUE,FALSE,4,TRUE,"12"
"Jan 10 2015","12:03:13",3,"Live","25same75switch","Zero",4,"Chrome",0,"Switch",0,"tomato",1,"",0,396,"up-right-4sec","1","example",0,TRUE,FALSE,4,TRUE,"12"
"Jan 10 2015","12:03:13",4,"Live","25same75switch","Zero",4,"Chrome",0,"Switch",0,"tomato",2,"",0,827,"down-left-4sec","2","example",0,TRUE,FALSE,4,TRUE,"12"
"Jan 10 2015","12:03:13",5,"Live","25same75switch","Zero",4,"Chrome",0,"Switch",0,"Novel18",3,"Novel104",2,3605,"down-right-4sec","3","exposure",0,TRUE,FALSE,4,TRUE,"12"
"Jan 10 2015","12:03:13",6,"Live","25same75switch","Zero",4,"Chrome",0,"Switch",0,"Novel111",2,"Novel104",2,3950,"straight-ahead","-1","test",0,TRUE,TRUE,4,FALSE,"12"
"Jan 10 2015","12:03:13",7,"Live","25same75switch","Zero",4,"Chrome",1,"Switch",0,"Novel45",1,"Novel98",0,2195,"up-right-4sec","1","exposure",0,TRUE,FALSE,4,TRUE,"12"
"Jan 10 2015","12:03:13",8,"Live","25same75switch","Zero",4,"Chrome",1,"Switch",0,"Novel82",1,"Novel98",0,15253,"straight-ahead","-1","test",0,TRUE,FALSE,4,FALSE,"12"
"Jan 10 2015","12:03:13",9,"Live","25same75switch","Zero",4,"Chrome",2,"Switch",1,"Novel138",1,"Novel92",2,4153,"up-right-4sec","1","exposure",0,TRUE,FALSE,4,TRUE,"12"
"Jan 10 2015","12:03:13",10,"Live","25same75switch","Zero",4,"Chrome",2,"Switch",1,"Novel5",1,"Novel92",2,16081,"straight-ahead","-1","test",0,TRUE,FALSE,4,FALSE,"12"
"Jan 10 2015","12:03:13",11,"Live","25same75switch","Zero",4,"Chrome",3,"Switch",1,"Novel140",1,"Novel9",2,2220,"up-right-4sec","1","exposure",0,TRUE,FALSE,4,TRUE,"12"
"Jan 10 2015","12:03:13",12,"Live","25same75switch","Zero",4,"Chrome",3,"Switch",1,"Novel9",2,"Novel9",2,5059,"straight-ahead","-1","test",0,TRUE,FALSE,4,TRUE,"12"
"Jan 10 2015","12:03:13",13,"Live","25same75switch","Zero",4,"Chrome",4,"Switch",0,"Novel109",0,"Novel68",2,930,"up-left-4sec","0","exposure",0,TRUE,FALSE,4,TRUE,"12"
"Jan 10 2015","12:03:13",14,"Live","25same75switch","Zero",4,"Chrome",4,"Switch",0,"Novel27",0,"Novel68",2,3294,"straight-ahead","-1","test",0,TRUE,FALSE,4,FALSE,"12"
"Jan 10 2015","12:03:13",15,"Live","25same75switch","Zero",4,"Chrome",5,"Same",0,"Novel31",2,"Novel31",2,385,"down-left-4sec","2","exposure",0,TRUE,FALSE,4,TRUE,"12"
"Jan 10 2015","12:03:13",16,"Live","25same75switch","Zero",4,"Chrome",5,"Same",0,"Novel31",0,"Novel31",2,223,"straight-ahead","-1","test",0,TRUE,FALSE,4,TRUE,"12"
"Jan 10 2015","12:03:13",17,"Live","25same75switch","Zero",4,"Chrome",6,"Same",1,"Novel83",2,"Novel83",2,1210,"down-left-4sec","2","exposure",0,TRUE,FALSE,4,TRUE,"12"
"Jan 10 2015","12:03:13",18,"Live","25same75switch","Zero",4,"Chrome",6,"Same",1,"Novel83",2,"Novel83",2,1117,"straight-ahead","-1","test",0,TRUE,FALSE,4,TRUE,"12"
"Jan 10 2015","12:03:13",19,"Live","25same75switch","Zero",4,"Chrome",7,"Switch",1,"Novel42",1,"Novel6",3,644,"up-right-4sec","1","exposure",0,TRUE,FALSE,4,TRUE,"12"
"Jan 10 2015","12:03:13",20,"Live","25same75switch","Zero",4,"Chrome",7,"Switch",1,"Novel118",1,"Novel6",3,336,"straight-ahead","-1","test",0,TRUE,FALSE,4,FALSE,"12"
"Jan 10 2015","12:03:13",21,"Live","25same75switch","Zero",4,"Chrome",8,"Switch",0,"Novel88",0,"Novel75",2,751,"up-left-4sec","0","exposure",0,TRUE,FALSE,4,TRUE,"12"
"Jan 10 2015","12:03:13",22,"Live","25same75switch","Zero",4,"Chrome",8,"Switch",0,"Novel75",3,"Novel75",2,91,"straight-ahead","-1","test",0,TRUE,FALSE,4,TRUE,"12"
"Jan 10 2015","12:03:13",23,"Live","25same75switch","Zero",4,"Chrome",9,"Switch",0,"Novel60",3,"Novel90",2,320,"down-right-4sec","3","exposure",0,TRUE,FALSE,4,TRUE,"12"
"Jan 10 2015","12:03:13",24,"Live","25same75switch","Zero",4,"Chrome",9,"Switch",0,"Novel133",2,"Novel90",2,966,"straight-ahead","-1","test",0,TRUE,FALSE,4,FALSE,"12"
"Jan 10 2015","12:03:13",25,"Live","25same75switch","Zero",4,"Chrome",10,"Switch",1,"Novel43",1,"Novel126",3,488,"up-right-4sec","1","exposure",0,TRUE,FALSE,4,TRUE,"12"
"Jan 10 2015","12:03:13",26,"Live","25same75switch","Zero",4,"Chrome",10,"Switch",1,"Novel94",2,"Novel126",3,116,"straight-ahead","-1","test",0,TRUE,FALSE,4,FALSE,"12"
"Jan 10 2015","12:03:13",27,"Live","25same75switch","Zero",4,"Chrome",11,"Same",1,"Novel30",2,"Novel30",2,462,"down-left-4sec","2","exposure",0,TRUE,FALSE,4,TRUE,"12"
"Jan 10 2015","12:03:13",28,"Live","25same75switch","Zero",4,"Chrome",11,"Same",1,"Novel30",2,"Novel30",2,741,"straight-ahead","-1","test",0,TRUE,FALSE,4,TRUE,"12"
"Jan 10 2015","12:03:13",29,"Live","25same75switch","Zero",4,"Chrome",12,"Switch",0,"Novel61",1,"Novel74",3,792,"up-right-4sec","1","exposure",0,TRUE,FALSE,4,TRUE,"12"
"Jan 10 2015","12:03:13",30,"Live","25same75switch","Zero",4,"Chrome",12,"Switch",0,"Novel28",2,"Novel74",3,245,"straight-ahead","-1","test",0,TRUE,FALSE,4,FALSE,"12"
"Jan 10 2015","12:03:13",31,"Live","25same75switch","Zero",4,"Chrome",13,"Switch",0,"Novel12",1,"Novel53",0,143,"up-right-4sec","1","exposure",0,TRUE,FALSE,4,TRUE,"12"
"Jan 10 2015","12:03:13",32,"Live","25same75switch","Zero",4,"Chrome",13,"Switch",0,"Novel72",0,"Novel53",0,97,"straight-ahead","-1","test",0,TRUE,FALSE,4,FALSE,"12"
"Jan 10 2015","12:03:13",33,"Live","25same75switch","Zero",4,"Chrome",14,"Same",1,"Novel100",1,"Novel100",1,239,"up-right-4sec","1","exposure",0,TRUE,FALSE,4,TRUE,"12"
"Jan 10 2015","12:03:13",34,"Live","25same75switch","Zero",4,"Chrome",14,"Same",1,"Novel100",1,"Novel100",1,108,"straight-ahead","-1","test",0,TRUE,FALSE,4,TRUE,"12"
"Jan 10 2015","12:03:13",35,"Live","25same75switch","Zero",4,"Chrome",15,"Switch",1,"Novel48",3,"Novel91",2,347,"down-right-4sec","3","exposure",0,TRUE,FALSE,4,TRUE,"12"
"Jan 10 2015","12:03:13",36,"Live","25same75switch","Zero",4,"Chrome",15,"Switch",1,"Novel84",1,"Novel91",2,222,"straight-ahead","-1","test",0,TRUE,FALSE,4,FALSE,"12"
"Jan 10 2015","17:29:02",1,"Live","75same25switch","Zero",4,"Chrome",0,"Same",0,"squirrel",0,"",0,1071,"up-left-4sec","0","example",0,TRUE,FALSE,4,TRUE,"13"
"Jan 10 2015","17:29:02",2,"Live","75same25switch","Zero",4,"Chrome",0,"Same",0,"squirrel",0,"",0,786,"up-left-4sec","0","example",0,TRUE,FALSE,4,TRUE,"13"
"Jan 10 2015","17:29:02",3,"Live","75same25switch","Zero",4,"Chrome",0,"Same",0,"tomato",1,"",0,579,"up-right-4sec","1","example",0,TRUE,FALSE,4,TRUE,"13"
"Jan 10 2015","17:29:02",4,"Live","75same25switch","Zero",4,"Chrome",0,"Same",0,"tomato",2,"",0,741,"down-left-4sec","2","example",0,TRUE,FALSE,4,TRUE,"13"
"Jan 10 2015","17:29:02",5,"Live","75same25switch","Zero",4,"Chrome",0,"Same",0,"Novel68",2,"Novel68",2,1064,"down-left-4sec","2","exposure",0,TRUE,FALSE,4,TRUE,"13"
"Jan 10 2015","17:29:02",6,"Live","75same25switch","Zero",4,"Chrome",0,"Same",0,"Novel6",2,"Novel68",2,1214,"straight-ahead","-1","test",0,TRUE,TRUE,4,FALSE,"13"
"Jan 10 2015","17:29:02",7,"Live","75same25switch","Zero",4,"Chrome",1,"Switch",0,"Novel35",0,"Novel96",3,631,"up-left-4sec","0","exposure",0,TRUE,FALSE,4,TRUE,"13"
"Jan 10 2015","17:29:02",8,"Live","75same25switch","Zero",4,"Chrome",1,"Switch",0,"Novel49",0,"Novel96",3,438,"straight-ahead","-1","test",0,TRUE,FALSE,4,FALSE,"13"
"Jan 10 2015","17:29:02",9,"Live","75same25switch","Zero",4,"Chrome",2,"Same",0,"Novel86",3,"Novel86",3,613,"down-right-4sec","3","exposure",0,TRUE,FALSE,4,TRUE,"13"
"Jan 10 2015","17:29:02",10,"Live","75same25switch","Zero",4,"Chrome",2,"Same",0,"Novel86",0,"Novel86",3,299,"straight-ahead","-1","test",0,TRUE,FALSE,4,TRUE,"13"
"Jan 10 2015","17:29:02",11,"Live","75same25switch","Zero",4,"Chrome",3,"Same",1,"Novel45",2,"Novel45",2,628,"down-left-4sec","2","exposure",0,TRUE,FALSE,4,TRUE,"13"
"Jan 10 2015","17:29:02",12,"Live","75same25switch","Zero",4,"Chrome",3,"Same",1,"Novel45",2,"Novel45",2,302,"straight-ahead","-1","test",0,TRUE,FALSE,4,TRUE,"13"
"Jan 10 2015","17:29:02",13,"Live","75same25switch","Zero",4,"Chrome",4,"Same",1,"Novel2",2,"Novel2",2,344,"down-left-4sec","2","exposure",0,TRUE,FALSE,4,TRUE,"13"
"Jan 10 2015","17:29:02",14,"Live","75same25switch","Zero",4,"Chrome",4,"Same",1,"Novel2",2,"Novel2",2,426,"straight-ahead","-1","test",0,TRUE,FALSE,4,TRUE,"13"
"Jan 10 2015","17:29:02",15,"Live","75same25switch","Zero",4,"Chrome",5,"Switch",1,"Novel87",0,"Novel8",1,467,"up-left-4sec","0","exposure",0,TRUE,FALSE,4,TRUE,"13"
"Jan 10 2015","17:29:02",16,"Live","75same25switch","Zero",4,"Chrome",5,"Switch",1,"Novel126",3,"Novel8",1,2078,"straight-ahead","-1","test",0,TRUE,FALSE,4,FALSE,"13"
"Jan 10 2015","17:29:02",17,"Live","75same25switch","Zero",4,"Chrome",6,"Same",1,"Novel80",2,"Novel80",2,1784,"down-left-4sec","2","exposure",0,TRUE,FALSE,4,TRUE,"13"
"Jan 10 2015","17:29:02",18,"Live","75same25switch","Zero",4,"Chrome",6,"Same",1,"Novel80",2,"Novel80",2,1109,"straight-ahead","-1","test",0,TRUE,FALSE,4,TRUE,"13"
"Jan 10 2015","17:29:02",19,"Live","75same25switch","Zero",4,"Chrome",7,"Switch",0,"Novel92",0,"Novel53",2,1396,"up-left-4sec","0","exposure",0,TRUE,FALSE,4,TRUE,"13"
"Jan 10 2015","17:29:02",20,"Live","75same25switch","Zero",4,"Chrome",7,"Switch",0,"Novel33",3,"Novel53",2,1262,"straight-ahead","-1","test",0,TRUE,FALSE,4,FALSE,"13"
"Jan 10 2015","17:29:02",21,"Live","75same25switch","Zero",4,"Chrome",8,"Same",0,"Novel101",1,"Novel101",1,241,"up-right-4sec","1","exposure",0,TRUE,FALSE,4,TRUE,"13"
"Jan 10 2015","17:29:02",22,"Live","75same25switch","Zero",4,"Chrome",8,"Same",0,"Novel101",3,"Novel101",1,158,"straight-ahead","-1","test",0,TRUE,FALSE,4,TRUE,"13"
"Jan 10 2015","17:29:02",23,"Live","75same25switch","Zero",4,"Chrome",9,"Same",0,"Novel9",3,"Novel9",3,295,"down-right-4sec","3","exposure",0,TRUE,FALSE,4,TRUE,"13"
"Jan 10 2015","17:29:02",24,"Live","75same25switch","Zero",4,"Chrome",9,"Same",0,"Novel9",2,"Novel9",3,705,"straight-ahead","-1","test",0,TRUE,FALSE,4,TRUE,"13"
"Jan 10 2015","17:29:02",25,"Live","75same25switch","Zero",4,"Chrome",10,"Same",0,"Novel32",0,"Novel32",0,592,"up-left-4sec","0","exposure",0,TRUE,FALSE,4,TRUE,"13"
"Jan 10 2015","17:29:02",26,"Live","75same25switch","Zero",4,"Chrome",10,"Same",0,"Novel32",1,"Novel32",0,216,"straight-ahead","-1","test",0,TRUE,FALSE,4,TRUE,"13"
"Jan 10 2015","17:29:02",27,"Live","75same25switch","Zero",4,"Chrome",11,"Same",1,"Novel139",2,"Novel139",2,814,"down-left-4sec","2","exposure",0,TRUE,FALSE,4,TRUE,"13"
"Jan 10 2015","17:29:02",28,"Live","75same25switch","Zero",4,"Chrome",11,"Same",1,"Novel139",2,"Novel139",2,245,"straight-ahead","-1","test",0,TRUE,FALSE,4,TRUE,"13"
"Jan 10 2015","17:29:02",29,"Live","75same25switch","Zero",4,"Chrome",12,"Same",1,"Novel114",0,"Novel114",0,759,"up-left-4sec","0","exposure",0,TRUE,FALSE,4,TRUE,"13"
"Jan 10 2015","17:29:02",30,"Live","75same25switch","Zero",4,"Chrome",12,"Same",1,"Novel114",0,"Novel114",0,7294,"straight-ahead","-1","test",0,TRUE,FALSE,4,TRUE,"13"
"Jan 10 2015","17:29:02",31,"Live","75same25switch","Zero",4,"Chrome",13,"Same",1,"Novel83",0,"Novel83",0,912,"up-left-4sec","0","exposure",0,TRUE,FALSE,4,TRUE,"13"
"Jan 10 2015","17:29:02",32,"Live","75same25switch","Zero",4,"Chrome",13,"Same",1,"Novel83",0,"Novel83",0,428,"straight-ahead","-1","test",0,TRUE,FALSE,4,TRUE,"13"
"Jan 10 2015","17:29:02",33,"Live","75same25switch","Zero",4,"Chrome",14,"Switch",1,"Novel22",3,"Novel31",2,1976,"down-right-4sec","3","exposure",0,TRUE,FALSE,4,TRUE,"13"
"Jan 10 2015","17:29:02",34,"Live","75same25switch","Zero",4,"Chrome",14,"Switch",1,"Novel7",3,"Novel31",2,409,"straight-ahead","-1","test",0,TRUE,FALSE,4,FALSE,"13"
"Jan 10 2015","17:29:02",35,"Live","75same25switch","Zero",4,"Chrome",15,"Same",0,"Novel14",1,"Novel14",1,148,"up-right-4sec","1","exposure",0,TRUE,FALSE,4,TRUE,"13"
"Jan 10 2015","17:29:02",36,"Live","75same25switch","Zero",4,"Chrome",15,"Same",0,"Novel14",0,"Novel14",1,806,"straight-ahead","-1","test",0,TRUE,FALSE,4,TRUE,"13"
"Jan 10 2015","20:28:09",1,"Live","25same75switch","Zero",4,"Chrome",0,"Switch",0,"squirrel",0,"",0,2608,"up-left-4sec","0","example",0,TRUE,FALSE,4,TRUE,"14"
"Jan 10 2015","20:28:09",2,"Live","25same75switch","Zero",4,"Chrome",0,"Switch",0,"squirrel",0,"",0,1321,"up-left-4sec","0","example",0,TRUE,FALSE,4,TRUE,"14"
"Jan 10 2015","20:28:09",3,"Live","25same75switch","Zero",4,"Chrome",0,"Switch",0,"tomato",1,"",0,1829,"up-right-4sec","1","example",0,TRUE,FALSE,4,TRUE,"14"
"Jan 10 2015","20:28:09",4,"Live","25same75switch","Zero",4,"Chrome",0,"Switch",0,"tomato",2,"",0,859,"down-left-4sec","2","example",0,TRUE,FALSE,4,TRUE,"14"
"Jan 10 2015","20:28:09",5,"Live","25same75switch","Zero",4,"Chrome",0,"Switch",0,"Novel31",2,"Novel112",0,3350,"down-left-4sec","2","exposure",0,TRUE,FALSE,4,TRUE,"14"
"Jan 10 2015","20:28:09",6,"Live","25same75switch","Zero",4,"Chrome",0,"Switch",0,"Novel89",0,"Novel112",0,4232,"straight-ahead","-1","test",0,TRUE,TRUE,4,FALSE,"14"
"Jan 10 2015","20:28:09",7,"Live","25same75switch","Zero",4,"Chrome",1,"Switch",0,"Novel95",3,"Novel124",1,2214,"down-right-4sec","3","exposure",0,TRUE,FALSE,4,TRUE,"14"
"Jan 10 2015","20:28:09",8,"Live","25same75switch","Zero",4,"Chrome",1,"Switch",0,"Novel60",1,"Novel124",1,4945,"straight-ahead","-1","test",0,TRUE,FALSE,4,FALSE,"14"
"Jan 10 2015","20:28:09",9,"Live","25same75switch","Zero",4,"Chrome",2,"Switch",1,"Novel7",1,"Novel70",3,3039,"up-right-4sec","1","exposure",0,TRUE,FALSE,4,TRUE,"14"
"Jan 10 2015","20:28:09",10,"Live","25same75switch","Zero",4,"Chrome",2,"Switch",1,"Novel70",3,"Novel70",3,660,"straight-ahead","-1","test",0,TRUE,FALSE,4,TRUE,"14"
"Jan 10 2015","20:28:09",11,"Live","25same75switch","Zero",4,"Chrome",3,"Same",1,"Novel63",2,"Novel63",2,1095,"down-left-4sec","2","exposure",0,TRUE,FALSE,4,TRUE,"14"
"Jan 10 2015","20:28:09",12,"Live","25same75switch","Zero",4,"Chrome",3,"Same",1,"Novel63",2,"Novel63",2,1704,"straight-ahead","-1","test",0,TRUE,FALSE,4,TRUE,"14"
"Jan 10 2015","20:28:09",13,"Live","25same75switch","Zero",4,"Chrome",4,"Same",1,"Novel20",2,"Novel20",2,2172,"down-left-4sec","2","exposure",0,TRUE,FALSE,4,TRUE,"14"
"Jan 10 2015","20:28:09",14,"Live","25same75switch","Zero",4,"Chrome",4,"Same",1,"Novel20",2,"Novel20",2,459,"straight-ahead","-1","test",0,TRUE,FALSE,4,TRUE,"14"
"Jan 10 2015","20:28:09",15,"Live","25same75switch","Zero",4,"Chrome",5,"Switch",1,"Novel52",2,"Novel130",0,2600,"down-left-4sec","2","exposure",0,TRUE,FALSE,4,TRUE,"14"
"Jan 10 2015","20:28:09",16,"Live","25same75switch","Zero",4,"Chrome",5,"Switch",1,"Novel61",1,"Novel130",0,935,"straight-ahead","-1","test",0,TRUE,FALSE,4,FALSE,"14"
"Jan 10 2015","20:28:09",17,"Live","25same75switch","Zero",4,"Chrome",6,"Same",0,"Novel45",2,"Novel45",2,2666,"down-left-4sec","2","exposure",0,TRUE,FALSE,4,TRUE,"14"
"Jan 10 2015","20:28:09",18,"Live","25same75switch","Zero",4,"Chrome",6,"Same",0,"Novel45",3,"Novel45",2,537,"straight-ahead","-1","test",0,TRUE,FALSE,4,TRUE,"14"
"Jan 10 2015","20:28:09",19,"Live","25same75switch","Zero",4,"Chrome",7,"Same",0,"Novel93",0,"Novel93",0,2065,"up-left-4sec","0","exposure",0,TRUE,FALSE,4,TRUE,"14"
"Jan 10 2015","20:28:09",20,"Live","25same75switch","Zero",4,"Chrome",7,"Same",0,"Novel93",3,"Novel93",0,475,"straight-ahead","-1","test",0,TRUE,FALSE,4,TRUE,"14"
"Jan 10 2015","20:28:09",21,"Live","25same75switch","Zero",4,"Chrome",8,"Switch",0,"Novel25",3,"Novel121",0,1443,"down-right-4sec","3","exposure",0,TRUE,FALSE,4,TRUE,"14"
"Jan 10 2015","20:28:09",22,"Live","25same75switch","Zero",4,"Chrome",8,"Switch",0,"Novel62",3,"Novel121",0,1476,"straight-ahead","-1","test",0,TRUE,FALSE,4,FALSE,"14"
"Jan 10 2015","20:28:09",23,"Live","25same75switch","Zero",4,"Chrome",9,"Switch",0,"Novel18",2,"Novel98",3,2671,"down-left-4sec","2","exposure",0,TRUE,FALSE,4,TRUE,"14"
"Jan 10 2015","20:28:09",24,"Live","25same75switch","Zero",4,"Chrome",9,"Switch",0,"Novel88",3,"Novel98",3,6064,"straight-ahead","-1","test",0,TRUE,FALSE,4,FALSE,"14"
"Jan 10 2015","20:28:09",25,"Live","25same75switch","Zero",4,"Chrome",10,"Switch",1,"Novel132",2,"Novel22",3,3336,"down-left-4sec","2","exposure",0,TRUE,FALSE,4,TRUE,"14"
"Jan 10 2015","20:28:09",26,"Live","25same75switch","Zero",4,"Chrome",10,"Switch",1,"Novel49",0,"Novel22",3,2532,"straight-ahead","-1","test",0,TRUE,FALSE,4,FALSE,"14"
"Jan 10 2015","20:28:09",27,"Live","25same75switch","Zero",4,"Chrome",11,"Switch",1,"Novel77",1,"Novel110",2,1375,"up-right-4sec","1","exposure",0,TRUE,FALSE,4,TRUE,"14"
"Jan 10 2015","20:28:09",28,"Live","25same75switch","Zero",4,"Chrome",11,"Switch",1,"Novel133",3,"Novel110",2,959,"straight-ahead","-1","test",0,TRUE,FALSE,4,FALSE,"14"
"Jan 10 2015","20:28:09",29,"Live","25same75switch","Zero",4,"Chrome",12,"Switch",1,"Novel81",0,"Novel65",2,3930,"up-left-4sec","0","exposure",0,TRUE,FALSE,4,TRUE,"14"
"Jan 10 2015","20:28:09",30,"Live","25same75switch","Zero",4,"Chrome",12,"Switch",1,"Novel64",1,"Novel65",2,1092,"straight-ahead","-1","test",0,TRUE,FALSE,4,FALSE,"14"
"Jan 10 2015","20:28:09",31,"Live","25same75switch","Zero",4,"Chrome",13,"Switch",1,"Novel40",1,"Novel41",2,2077,"up-right-4sec","1","exposure",0,TRUE,FALSE,4,TRUE,"14"
"Jan 10 2015","20:28:09",32,"Live","25same75switch","Zero",4,"Chrome",13,"Switch",1,"Novel41",2,"Novel41",2,1186,"straight-ahead","-1","test",0,TRUE,FALSE,4,TRUE,"14"
"Jan 10 2015","20:28:09",33,"Live","25same75switch","Zero",4,"Chrome",14,"Switch",0,"Novel82",1,"Novel14",3,2533,"up-right-4sec","1","exposure",0,TRUE,FALSE,4,TRUE,"14"
"Jan 10 2015","20:28:09",34,"Live","25same75switch","Zero",4,"Chrome",14,"Switch",0,"Novel100",3,"Novel14",3,2908,"straight-ahead","-1","test",0,TRUE,FALSE,4,FALSE,"14"
"Jan 10 2015","20:28:09",35,"Live","25same75switch","Zero",4,"Chrome",15,"Switch",0,"Novel33",2,"Novel92",3,1285,"down-left-4sec","2","exposure",0,TRUE,FALSE,4,TRUE,"14"
"Jan 10 2015","20:28:09",36,"Live","25same75switch","Zero",4,"Chrome",15,"Switch",0,"Novel27",3,"Novel92",3,330,"straight-ahead","-1","test",0,TRUE,FALSE,4,FALSE,"14"
"Jan 10 2015","20:39:57",1,"Live","50samev50switch","Zero",4,"Chrome",0,"Same",0,"squirrel",0,"",0,1721,"up-left-4sec","0","example",0,TRUE,FALSE,4,TRUE,"15"
"Jan 10 2015","20:39:57",2,"Live","50samev50switch","Zero",4,"Chrome",0,"Same",0,"squirrel",0,"",0,662,"up-left-4sec","0","example",0,TRUE,FALSE,4,TRUE,"15"
"Jan 10 2015","20:39:57",3,"Live","50samev50switch","Zero",4,"Chrome",0,"Same",0,"tomato",1,"",0,852,"up-right-4sec","1","example",0,TRUE,FALSE,4,TRUE,"15"
"Jan 10 2015","20:39:57",4,"Live","50samev50switch","Zero",4,"Chrome",0,"Same",0,"tomato",2,"",0,641,"down-left-4sec","2","example",0,TRUE,FALSE,4,TRUE,"15"
"Jan 10 2015","20:39:57",5,"Live","50samev50switch","Zero",4,"Chrome",0,"Same",0,"Novel92",2,"Novel92",2,878,"down-left-4sec","2","exposure",0,TRUE,FALSE,4,TRUE,"15"
"Jan 10 2015","20:39:57",6,"Live","50samev50switch","Zero",4,"Chrome",0,"Same",0,"Novel92",0,"Novel92",2,1008,"straight-ahead","-1","test",0,TRUE,TRUE,4,TRUE,"15"
"Jan 10 2015","20:39:57",7,"Live","50samev50switch","Zero",4,"Chrome",1,"Same",1,"Novel120",2,"Novel120",2,5516,"down-left-4sec","2","exposure",0,TRUE,FALSE,4,TRUE,"15"
"Jan 10 2015","20:39:57",8,"Live","50samev50switch","Zero",4,"Chrome",1,"Same",1,"Novel120",2,"Novel120",2,584,"straight-ahead","-1","test",0,TRUE,FALSE,4,TRUE,"15"
"Jan 10 2015","20:39:57",9,"Live","50samev50switch","Zero",4,"Chrome",2,"Same",1,"Novel14",2,"Novel14",2,1179,"down-left-4sec","2","exposure",0,TRUE,FALSE,4,TRUE,"15"
"Jan 10 2015","20:39:57",10,"Live","50samev50switch","Zero",4,"Chrome",2,"Same",1,"Novel14",2,"Novel14",2,505,"straight-ahead","-1","test",0,TRUE,FALSE,4,TRUE,"15"
"Jan 10 2015","20:39:57",11,"Live","50samev50switch","Zero",4,"Chrome",3,"Switch",0,"Novel10",1,"Novel87",0,743,"up-right-4sec","1","exposure",0,TRUE,FALSE,4,TRUE,"15"
"Jan 10 2015","20:39:57",12,"Live","50samev50switch","Zero",4,"Chrome",3,"Switch",0,"Novel87",1,"Novel87",0,2787,"straight-ahead","-1","test",0,TRUE,FALSE,4,TRUE,"15"
"Jan 10 2015","20:39:57",13,"Live","50samev50switch","Zero",4,"Chrome",4,"Same",1,"Novel32",2,"Novel32",2,811,"down-left-4sec","2","exposure",0,TRUE,FALSE,4,TRUE,"15"
"Jan 10 2015","20:39:57",14,"Live","50samev50switch","Zero",4,"Chrome",4,"Same",1,"Novel32",2,"Novel32",2,662,"straight-ahead","-1","test",0,TRUE,FALSE,4,TRUE,"15"
"Jan 10 2015","20:39:57",15,"Live","50samev50switch","Zero",4,"Chrome",5,"Switch",0,"Novel29",1,"Novel12",2,1168,"up-right-4sec","1","exposure",0,TRUE,FALSE,4,TRUE,"15"
"Jan 10 2015","20:39:57",16,"Live","50samev50switch","Zero",4,"Chrome",5,"Switch",0,"Novel124",1,"Novel12",2,697,"straight-ahead","-1","test",0,TRUE,FALSE,4,FALSE,"15"
"Jan 10 2015","20:39:57",17,"Live","50samev50switch","Zero",4,"Chrome",6,"Switch",0,"Novel73",2,"Novel84",0,956,"down-left-4sec","2","exposure",0,TRUE,FALSE,4,TRUE,"15"
"Jan 10 2015","20:39:57",18,"Live","50samev50switch","Zero",4,"Chrome",6,"Switch",0,"Novel84",2,"Novel84",0,169,"straight-ahead","-1","test",0,TRUE,FALSE,4,TRUE,"15"
"Jan 10 2015","20:39:57",19,"Live","50samev50switch","Zero",4,"Chrome",7,"Switch",1,"Novel81",1,"Novel117",0,482,"up-right-4sec","1","exposure",0,TRUE,FALSE,4,TRUE,"15"
"Jan 10 2015","20:39:57",20,"Live","50samev50switch","Zero",4,"Chrome",7,"Switch",1,"Novel21",1,"Novel117",0,74,"straight-ahead","-1","test",0,TRUE,FALSE,4,FALSE,"15"
"Jan 10 2015","20:39:57",21,"Live","50samev50switch","Zero",4,"Chrome",8,"Same",0,"Novel116",3,"Novel116",3,613,"down-right-4sec","3","exposure",0,TRUE,FALSE,4,TRUE,"15"
"Jan 10 2015","20:39:57",22,"Live","50samev50switch","Zero",4,"Chrome",8,"Same",0,"Novel116",2,"Novel116",3,280,"straight-ahead","-1","test",0,TRUE,FALSE,4,TRUE,"15"
"Jan 10 2015","20:39:57",23,"Live","50samev50switch","Zero",4,"Chrome",9,"Switch",1,"Novel105",1,"Novel96",2,670,"up-right-4sec","1","exposure",0,TRUE,FALSE,4,TRUE,"15"
"Jan 10 2015","20:39:57",24,"Live","50samev50switch","Zero",4,"Chrome",9,"Switch",1,"Novel16",1,"Novel96",2,301,"straight-ahead","-1","test",0,TRUE,FALSE,4,FALSE,"15"
"Jan 10 2015","20:39:57",25,"Live","50samev50switch","Zero",4,"Chrome",10,"Switch",1,"Novel55",1,"Novel30",0,1170,"up-right-4sec","1","exposure",0,TRUE,FALSE,4,TRUE,"15"
"Jan 10 2015","20:39:57",26,"Live","50samev50switch","Zero",4,"Chrome",10,"Switch",1,"Novel37",1,"Novel30",0,482,"straight-ahead","-1","test",0,TRUE,FALSE,4,FALSE,"15"
"Jan 10 2015","20:39:57",27,"Live","50samev50switch","Zero",4,"Chrome",11,"Same",0,"Novel108",1,"Novel108",1,695,"up-right-4sec","1","exposure",0,TRUE,FALSE,4,TRUE,"15"
"Jan 10 2015","20:39:57",28,"Live","50samev50switch","Zero",4,"Chrome",11,"Same",0,"Novel108",2,"Novel108",1,237,"straight-ahead","-1","test",0,TRUE,FALSE,4,TRUE,"15"
"Jan 10 2015","20:39:57",29,"Live","50samev50switch","Zero",4,"Chrome",12,"Switch",1,"Novel91",3,"Novel131",1,978,"down-right-4sec","3","exposure",0,TRUE,FALSE,4,TRUE,"15"
"Jan 10 2015","20:39:57",30,"Live","50samev50switch","Zero",4,"Chrome",12,"Switch",1,"Novel5",3,"Novel131",1,496,"straight-ahead","-1","test",0,TRUE,FALSE,4,FALSE,"15"
"Jan 10 2015","20:39:57",31,"Live","50samev50switch","Zero",4,"Chrome",13,"Switch",0,"Novel94",3,"Novel119",0,854,"down-right-4sec","3","exposure",0,TRUE,FALSE,4,TRUE,"15"
"Jan 10 2015","20:39:57",32,"Live","50samev50switch","Zero",4,"Chrome",13,"Switch",0,"Novel15",3,"Novel119",0,943,"straight-ahead","-1","test",0,TRUE,FALSE,4,FALSE,"15"
"Jan 10 2015","20:39:57",33,"Live","50samev50switch","Zero",4,"Chrome",14,"Same",0,"Novel47",1,"Novel47",1,753,"up-right-4sec","1","exposure",0,TRUE,FALSE,4,TRUE,"15"
"Jan 10 2015","20:39:57",34,"Live","50samev50switch","Zero",4,"Chrome",14,"Same",0,"Novel47",2,"Novel47",1,224,"straight-ahead","-1","test",0,TRUE,FALSE,4,TRUE,"15"
"Jan 10 2015","20:39:57",35,"Live","50samev50switch","Zero",4,"Chrome",15,"Same",1,"Novel78",0,"Novel78",0,741,"up-left-4sec","0","exposure",0,TRUE,FALSE,4,TRUE,"15"
"Jan 10 2015","20:39:57",36,"Live","50samev50switch","Zero",4,"Chrome",15,"Same",1,"Novel78",0,"Novel78",0,742,"straight-ahead","-1","test",0,TRUE,FALSE,4,TRUE,"15"
"Jan 10 2015","16:30:26",1,"Live","50samev50switch","Zero",4,"Safari",0,"Same",0,"squirrel",0,"",0,3196,"up-left-4sec","0","example",0,TRUE,FALSE,4,TRUE,"16"
"Jan 10 2015","16:30:26",2,"Live","50samev50switch","Zero",4,"Safari",0,"Same",0,"squirrel",0,"",0,1305,"up-left-4sec","0","example",0,TRUE,FALSE,4,TRUE,"16"
"Jan 10 2015","16:30:26",3,"Live","50samev50switch","Zero",4,"Safari",0,"Same",0,"tomato",1,"",0,1334,"up-right-4sec","1","example",0,TRUE,FALSE,4,TRUE,"16"
"Jan 10 2015","16:30:26",4,"Live","50samev50switch","Zero",4,"Safari",0,"Same",0,"tomato",2,"",0,1087,"down-left-4sec","2","example",0,TRUE,FALSE,4,TRUE,"16"
"Jan 10 2015","16:30:26",5,"Live","50samev50switch","Zero",4,"Safari",0,"Same",0,"Novel104",1,"Novel104",1,1664,"up-right-4sec","1","exposure",0,TRUE,FALSE,4,TRUE,"16"
"Jan 10 2015","16:30:26",6,"Live","50samev50switch","Zero",4,"Safari",0,"Same",0,"Novel104",3,"Novel104",1,1135,"straight-ahead","-1","test",0,TRUE,TRUE,4,TRUE,"16"
"Jan 10 2015","16:30:26",7,"Live","50samev50switch","Zero",4,"Safari",1,"Same",1,"Novel139",0,"Novel139",0,2236,"up-left-4sec","0","exposure",0,TRUE,FALSE,4,TRUE,"16"
"Jan 10 2015","16:30:26",8,"Live","50samev50switch","Zero",4,"Safari",1,"Same",1,"Novel139",0,"Novel139",0,1936,"straight-ahead","-1","test",0,TRUE,FALSE,4,TRUE,"16"
"Jan 10 2015","16:30:26",9,"Live","50samev50switch","Zero",4,"Safari",2,"Switch",1,"Novel138",2,"Novel3",3,1203,"down-left-4sec","2","exposure",0,TRUE,FALSE,4,TRUE,"16"
"Jan 10 2015","16:30:26",10,"Live","50samev50switch","Zero",4,"Safari",2,"Switch",1,"Novel44",1,"Novel3",3,4003,"straight-ahead","-1","test",0,TRUE,FALSE,4,FALSE,"16"
"Jan 10 2015","16:30:26",11,"Live","50samev50switch","Zero",4,"Safari",3,"Switch",0,"Novel25",3,"Novel95",1,3511,"down-right-4sec","3","exposure",0,TRUE,FALSE,4,TRUE,"16"
"Jan 10 2015","16:30:26",12,"Live","50samev50switch","Zero",4,"Safari",3,"Switch",0,"Novel28",1,"Novel95",1,6476,"straight-ahead","-1","test",0,TRUE,FALSE,4,FALSE,"16"
"Jan 10 2015","16:30:26",13,"Live","50samev50switch","Zero",4,"Safari",4,"Same",1,"Novel117",1,"Novel117",1,2323,"up-right-4sec","1","exposure",0,TRUE,FALSE,4,TRUE,"16"
"Jan 10 2015","16:30:26",14,"Live","50samev50switch","Zero",4,"Safari",4,"Same",1,"Novel117",1,"Novel117",1,982,"straight-ahead","-1","test",0,TRUE,FALSE,4,TRUE,"16"
"Jan 10 2015","16:30:26",15,"Live","50samev50switch","Zero",4,"Safari",5,"Switch",1,"Novel30",0,"Novel116",3,1166,"up-left-4sec","0","exposure",0,TRUE,FALSE,4,TRUE,"16"
"Jan 10 2015","16:30:26",16,"Live","50samev50switch","Zero",4,"Safari",5,"Switch",1,"Novel53",1,"Novel116",3,3992,"straight-ahead","-1","test",0,TRUE,FALSE,4,FALSE,"16"
"Jan 10 2015","16:30:26",17,"Live","50samev50switch","Zero",4,"Safari",6,"Switch",0,"Novel69",0,"Novel55",2,1900,"up-left-4sec","0","exposure",0,TRUE,FALSE,4,TRUE,"16"
"Jan 10 2015","16:30:26",18,"Live","50samev50switch","Zero",4,"Safari",6,"Switch",0,"Novel89",3,"Novel55",2,3234,"straight-ahead","-1","test",0,TRUE,FALSE,4,FALSE,"16"
"Jan 10 2015","16:30:26",19,"Live","50samev50switch","Zero",4,"Safari",7,"Same",0,"Novel106",1,"Novel106",1,4361,"up-right-4sec","1","exposure",0,TRUE,FALSE,4,TRUE,"16"
"Jan 10 2015","16:30:26",20,"Live","50samev50switch","Zero",4,"Safari",7,"Same",0,"Novel106",3,"Novel106",1,1099,"straight-ahead","-1","test",0,TRUE,FALSE,4,TRUE,"16"
"Jan 10 2015","16:30:26",21,"Live","50samev50switch","Zero",4,"Safari",8,"Same",0,"Novel57",3,"Novel57",3,1788,"down-right-4sec","3","exposure",0,TRUE,FALSE,4,TRUE,"16"
"Jan 10 2015","16:30:26",22,"Live","50samev50switch","Zero",4,"Safari",8,"Same",0,"Novel57",1,"Novel57",3,813,"straight-ahead","-1","test",0,TRUE,FALSE,4,TRUE,"16"
"Jan 10 2015","16:30:26",23,"Live","50samev50switch","Zero",4,"Safari",9,"Same",1,"Novel67",1,"Novel67",1,1151,"up-right-4sec","1","exposure",0,TRUE,FALSE,4,TRUE,"16"
"Jan 10 2015","16:30:26",24,"Live","50samev50switch","Zero",4,"Safari",9,"Same",1,"Novel67",1,"Novel67",1,992,"straight-ahead","-1","test",0,TRUE,FALSE,4,TRUE,"16"
"Jan 10 2015","16:30:26",25,"Live","50samev50switch","Zero",4,"Safari",10,"Switch",1,"Novel34",2,"Novel122",1,1137,"down-left-4sec","2","exposure",0,TRUE,FALSE,4,TRUE,"16"
"Jan 10 2015","16:30:26",26,"Live","50samev50switch","Zero",4,"Safari",10,"Switch",1,"Novel122",1,"Novel122",1,2692,"straight-ahead","-1","test",0,TRUE,FALSE,4,TRUE,"16"
"Jan 10 2015","16:30:26",27,"Live","50samev50switch","Zero",4,"Safari",11,"Switch",0,"Novel78",1,"Novel68",0,1428,"up-right-4sec","1","exposure",0,TRUE,FALSE,4,TRUE,"16"
"Jan 10 2015","16:30:26",28,"Live","50samev50switch","Zero",4,"Safari",11,"Switch",0,"Novel129",0,"Novel68",0,2196,"straight-ahead","-1","test",0,TRUE,FALSE,4,FALSE,"16"
"Jan 10 2015","16:30:26",29,"Live","50samev50switch","Zero",4,"Safari",12,"Same",1,"Novel132",1,"Novel132",1,950,"up-right-4sec","1","exposure",0,TRUE,FALSE,4,TRUE,"16"
"Jan 10 2015","16:30:26",30,"Live","50samev50switch","Zero",4,"Safari",12,"Same",1,"Novel132",1,"Novel132",1,1066,"straight-ahead","-1","test",0,TRUE,FALSE,4,TRUE,"16"
"Jan 10 2015","16:30:26",31,"Live","50samev50switch","Zero",4,"Safari",13,"Switch",1,"Novel76",2,"Novel31",0,2073,"down-left-4sec","2","exposure",0,TRUE,FALSE,4,TRUE,"16"
"Jan 10 2015","16:30:26",32,"Live","50samev50switch","Zero",4,"Safari",13,"Switch",1,"Novel56",1,"Novel31",0,1077,"straight-ahead","-1","test",0,TRUE,FALSE,4,FALSE,"16"
"Jan 10 2015","16:30:26",33,"Live","50samev50switch","Zero",4,"Safari",14,"Switch",0,"Novel84",2,"Novel19",1,1168,"down-left-4sec","2","exposure",0,TRUE,FALSE,4,TRUE,"16"
"Jan 10 2015","16:30:26",34,"Live","50samev50switch","Zero",4,"Safari",14,"Switch",0,"Novel10",0,"Novel19",1,942,"straight-ahead","-1","test",0,TRUE,FALSE,4,FALSE,"16"
"Jan 10 2015","16:30:26",35,"Live","50samev50switch","Zero",4,"Safari",15,"Same",0,"Novel102",1,"Novel102",1,1366,"up-right-4sec","1","exposure",0,TRUE,FALSE,4,TRUE,"16"
"Jan 10 2015","16:30:26",36,"Live","50samev50switch","Zero",4,"Safari",15,"Same",0,"Novel102",0,"Novel102",1,723,"straight-ahead","-1","test",0,TRUE,FALSE,4,TRUE,"16"
"Jan 10 2015","16:06:14",1,"Live","75same25switch","Zero",4,"Chrome",0,"Same",1,"squirrel",0,"",0,1498,"up-left-4sec","0","example",0,TRUE,FALSE,4,TRUE,"17"
"Jan 10 2015","16:06:14",2,"Live","75same25switch","Zero",4,"Chrome",0,"Same",1,"squirrel",0,"",0,1439,"up-left-4sec","0","example",0,TRUE,FALSE,4,TRUE,"17"
"Jan 10 2015","16:06:14",3,"Live","75same25switch","Zero",4,"Chrome",0,"Same",1,"tomato",1,"",0,1312,"up-right-4sec","1","example",0,TRUE,FALSE,4,TRUE,"17"
"Jan 10 2015","16:06:14",4,"Live","75same25switch","Zero",4,"Chrome",0,"Same",1,"tomato",2,"",0,878,"down-left-4sec","2","example",0,TRUE,FALSE,4,TRUE,"17"
"Jan 10 2015","16:06:14",5,"Live","75same25switch","Zero",4,"Chrome",0,"Same",1,"Novel6",0,"Novel6",0,4852,"down-left-4sec","2","exposure",0,TRUE,FALSE,4,FALSE,"17"
"Jan 10 2015","16:06:14",6,"Live","75same25switch","Zero",4,"Chrome",0,"Same",1,"Novel6",0,"Novel6",0,2734,"straight-ahead","-1","test",0,TRUE,TRUE,4,TRUE,"17"
"Jan 10 2015","16:06:14",7,"Live","75same25switch","Zero",4,"Chrome",1,"Same",1,"Novel91",3,"Novel91",3,2862,"down-right-4sec","3","exposure",0,TRUE,FALSE,4,TRUE,"17"
"Jan 10 2015","16:06:14",8,"Live","75same25switch","Zero",4,"Chrome",1,"Same",1,"Novel91",3,"Novel91",3,1158,"straight-ahead","-1","test",0,TRUE,FALSE,4,TRUE,"17"
"Jan 10 2015","16:06:14",9,"Live","75same25switch","Zero",4,"Chrome",2,"Same",0,"Novel101",1,"Novel101",1,1568,"down-right-4sec","3","exposure",0,TRUE,FALSE,4,FALSE,"17"
"Jan 10 2015","16:06:14",10,"Live","75same25switch","Zero",4,"Chrome",2,"Same",0,"Novel101",3,"Novel101",1,1425,"straight-ahead","-1","test",0,TRUE,FALSE,4,TRUE,"17"
"Jan 10 2015","16:06:14",11,"Live","75same25switch","Zero",4,"Chrome",3,"Same",0,"Novel54",2,"Novel54",2,2557,"up-left-4sec","0","exposure",0,TRUE,FALSE,4,FALSE,"17"
"Jan 10 2015","16:06:14",12,"Live","75same25switch","Zero",4,"Chrome",3,"Same",0,"Novel54",1,"Novel54",2,622,"straight-ahead","-1","test",0,TRUE,FALSE,4,TRUE,"17"
"Jan 10 2015","16:06:14",13,"Live","75same25switch","Zero",4,"Chrome",4,"Switch",0,"Novel8",1,"Novel52",0,1580,"up-right-4sec","1","exposure",0,TRUE,FALSE,4,TRUE,"17"
"Jan 10 2015","16:06:14",14,"Live","75same25switch","Zero",4,"Chrome",4,"Switch",0,"Novel105",3,"Novel52",0,3483,"straight-ahead","-1","test",0,TRUE,FALSE,4,FALSE,"17"
"Jan 10 2015","16:06:14",15,"Live","75same25switch","Zero",4,"Chrome",5,"Same",1,"Novel18",3,"Novel18",3,2105,"up-right-4sec","1","exposure",0,TRUE,FALSE,4,FALSE,"17"
"Jan 10 2015","16:06:14",16,"Live","75same25switch","Zero",4,"Chrome",5,"Same",1,"Novel18",3,"Novel18",3,188,"straight-ahead","-1","test",0,TRUE,FALSE,4,TRUE,"17"
"Jan 10 2015","16:06:14",17,"Live","75same25switch","Zero",4,"Chrome",6,"Same",1,"Novel71",1,"Novel71",1,2626,"up-right-4sec","1","exposure",0,TRUE,FALSE,4,TRUE,"17"
"Jan 10 2015","16:06:14",18,"Live","75same25switch","Zero",4,"Chrome",6,"Same",1,"Novel71",1,"Novel71",1,542,"straight-ahead","-1","test",0,TRUE,FALSE,4,TRUE,"17"
"Jan 10 2015","16:06:14",19,"Live","75same25switch","Zero",4,"Chrome",7,"Same",0,"Novel62",1,"Novel62",1,1268,"up-right-4sec","1","exposure",0,TRUE,FALSE,4,TRUE,"17"
"Jan 10 2015","16:06:14",20,"Live","75same25switch","Zero",4,"Chrome",7,"Same",0,"Novel62",3,"Novel62",1,384,"straight-ahead","-1","test",0,TRUE,FALSE,4,TRUE,"17"
"Jan 10 2015","16:06:14",21,"Live","75same25switch","Zero",4,"Chrome",8,"Same",1,"Novel97",3,"Novel97",3,1126,"down-right-4sec","3","exposure",0,TRUE,FALSE,4,TRUE,"17"
"Jan 10 2015","16:06:14",22,"Live","75same25switch","Zero",4,"Chrome",8,"Same",1,"Novel97",3,"Novel97",3,164,"straight-ahead","-1","test",0,TRUE,FALSE,4,TRUE,"17"
"Jan 10 2015","16:06:14",23,"Live","75same25switch","Zero",4,"Chrome",9,"Same",1,"Novel1",0,"Novel1",0,430,"up-left-4sec","0","exposure",0,TRUE,FALSE,4,TRUE,"17"
"Jan 10 2015","16:06:14",24,"Live","75same25switch","Zero",4,"Chrome",9,"Same",1,"Novel1",0,"Novel1",0,86,"straight-ahead","-1","test",0,TRUE,FALSE,4,TRUE,"17"
"Jan 10 2015","16:06:14",25,"Live","75same25switch","Zero",4,"Chrome",10,"Same",0,"Novel47",1,"Novel47",1,171,"up-right-4sec","1","exposure",0,TRUE,FALSE,4,TRUE,"17"
"Jan 10 2015","16:06:14",26,"Live","75same25switch","Zero",4,"Chrome",10,"Same",0,"Novel47",0,"Novel47",1,395,"straight-ahead","-1","test",0,TRUE,FALSE,4,TRUE,"17"
"Jan 10 2015","16:06:14",27,"Live","75same25switch","Zero",4,"Chrome",11,"Switch",0,"Novel73",2,"Novel86",3,576,"down-left-4sec","2","exposure",0,TRUE,FALSE,4,TRUE,"17"
