"submit.date","submit.time","trial.num","gazeLength","condition","interval","numPic","browser","itemNum","trialType","samePos","chosen","chosenIdx","kept","keptIdx","rt","face","faceIdx","trial_cat","intervalNum","include","first.trial","numPicN","correct","subids"
"Jan 09 2015","05:04:06",1,"Live","SocialFirst","Three",4,"Firefox",0,"Switch",0,"squirrel",0,"",0,1416,"up-left-4sec","0","example",3,TRUE,FALSE,4,TRUE,"1"
"Jan 09 2015","05:04:06",2,"Live","SocialFirst","Three",4,"Firefox",0,"Switch",0,"squirrel",0,"",0,1287,"up-left-4sec","0","example",3,TRUE,FALSE,4,TRUE,"1"
"Jan 09 2015","05:04:06",3,"Live","SocialFirst","Three",4,"Firefox",0,"Switch",0,"tomato",1,"",0,613,"up-right-4sec","1","example",3,TRUE,FALSE,4,TRUE,"1"
"Jan 09 2015","05:04:06",4,"Live","SocialFirst","Three",4,"Firefox",0,"Switch",0,"tomato",2,"",0,587,"down-left-4sec","2","example",3,TRUE,FALSE,4,TRUE,"1"
"Jan 09 2015","05:04:06",5,"Live","SocialFirst","Three",4,"Firefox",0,"Switch",0,"Novel131",3,"Novel23",2,1391,"down-right-4sec","3","exposure",3,TRUE,FALSE,4,TRUE,"1"
"Jan 09 2015","05:04:06",6,"Live","SocialFirst","Three",4,"Firefox",1,"Same",0,"Novel5",1,"Novel5",1,690,"up-right-4sec","1","exposure",3,TRUE,FALSE,4,TRUE,"1"
"Jan 09 2015","05:04:06",7,"Live","SocialFirst","Three",4,"Firefox",2,"Switch",1,"Novel4",3,"Novel136",2,691,"down-right-4sec","3","exposure",3,TRUE,FALSE,4,TRUE,"1"
"Jan 09 2015","05:04:06",8,"Live","SocialFirst","Three",4,"Firefox",3,"Same",0,"Novel25",3,"Novel25",3,2113,"down-right-4sec","3","exposure",3,TRUE,FALSE,4,TRUE,"1"
"Jan 09 2015","05:04:06",9,"Live","SocialFirst","Three",4,"Firefox",0,"Switch",0,"Novel69",0,"Novel23",2,3057,"straight-ahead","-1","test",3,TRUE,TRUE,4,FALSE,"1"
"Jan 09 2015","05:04:06",10,"Live","SocialFirst","Three",4,"Firefox",1,"Same",0,"Novel107",2,"Novel5",1,1977,"straight-ahead","-1","test",3,TRUE,FALSE,4,FALSE,"1"
"Jan 09 2015","05:04:06",11,"Live","SocialFirst","Three",4,"Firefox",2,"Switch",1,"Novel129",1,"Novel136",2,2472,"straight-ahead","-1","test",3,TRUE,FALSE,4,FALSE,"1"
"Jan 09 2015","05:04:06",12,"Live","SocialFirst","Three",4,"Firefox",3,"Same",0,"Novel25",2,"Novel25",3,2750,"straight-ahead","-1","test",3,TRUE,FALSE,4,TRUE,"1"
"Jan 09 2015","05:04:06",13,"Live","SocialFirst","Three",4,"Firefox",4,"Switch",0,"Novel105",3,"Novel98",0,878,"down-right-4sec","3","exposure",3,TRUE,FALSE,4,TRUE,"1"
"Jan 09 2015","05:04:06",14,"Live","SocialFirst","Three",4,"Firefox",5,"Same",1,"Novel57",0,"Novel57",0,301,"up-left-4sec","0","exposure",3,TRUE,FALSE,4,TRUE,"1"
"Jan 09 2015","05:04:06",15,"Live","SocialFirst","Three",4,"Firefox",6,"Switch",1,"Novel139",2,"Novel21",3,210,"down-left-4sec","2","exposure",3,TRUE,FALSE,4,TRUE,"1"
"Jan 09 2015","05:04:06",16,"Live","SocialFirst","Three",4,"Firefox",7,"Same",1,"Novel14",0,"Novel14",0,169,"up-left-4sec","0","exposure",3,TRUE,FALSE,4,TRUE,"1"
"Jan 09 2015","05:04:06",17,"Live","SocialFirst","Three",4,"Firefox",4,"Switch",0,"Novel98",3,"Novel98",0,1591,"straight-ahead","-1","test",3,TRUE,FALSE,4,TRUE,"1"
"Jan 09 2015","05:04:06",18,"Live","SocialFirst","Three",4,"Firefox",5,"Same",1,"Novel126",1,"Novel57",0,1116,"straight-ahead","-1","test",3,TRUE,FALSE,4,FALSE,"1"
"Jan 09 2015","05:04:06",19,"Live","SocialFirst","Three",4,"Firefox",6,"Switch",1,"Novel49",0,"Novel21",3,940,"straight-ahead","-1","test",3,TRUE,FALSE,4,FALSE,"1"
"Jan 09 2015","05:04:06",20,"Live","SocialFirst","Three",4,"Firefox",7,"Same",1,"Novel109",2,"Novel14",0,739,"straight-ahead","-1","test",3,TRUE,FALSE,4,FALSE,"1"
"Jan 09 2015","05:04:06",21,"Live","SocialFirst","Three",4,"Firefox",8,"Switch",0,"Novel58",1,"Novel43",0,1077,"straight-ahead","-1","exposure",3,TRUE,FALSE,4,FALSE,"1"
"Jan 09 2015","05:04:06",22,"Live","SocialFirst","Three",4,"Firefox",9,"Same",0,"Novel46",3,"Novel46",3,1031,"straight-ahead","-1","exposure",3,TRUE,FALSE,4,FALSE,"1"
"Jan 09 2015","05:04:06",23,"Live","SocialFirst","Three",4,"Firefox",10,"Switch",1,"Novel63",0,"Novel92",1,612,"straight-ahead","-1","exposure",3,TRUE,FALSE,4,FALSE,"1"
"Jan 09 2015","05:04:06",24,"Live","SocialFirst","Three",4,"Firefox",11,"Same",0,"Novel81",1,"Novel81",1,1858,"straight-ahead","-1","exposure",3,TRUE,FALSE,4,FALSE,"1"
"Jan 09 2015","05:04:06",25,"Live","SocialFirst","Three",4,"Firefox",8,"Switch",0,"Novel61",3,"Novel43",0,1078,"straight-ahead","-1","test",3,TRUE,FALSE,4,FALSE,"1"
"Jan 09 2015","05:04:06",26,"Live","SocialFirst","Three",4,"Firefox",9,"Same",0,"Novel115",0,"Novel46",3,669,"straight-ahead","-1","test",3,TRUE,FALSE,4,FALSE,"1"
"Jan 09 2015","05:04:06",27,"Live","SocialFirst","Three",4,"Firefox",10,"Switch",1,"Novel92",1,"Novel92",1,536,"straight-ahead","-1","test",3,TRUE,FALSE,4,TRUE,"1"
"Jan 09 2015","05:04:06",28,"Live","SocialFirst","Three",4,"Firefox",11,"Same",0,"Novel81",2,"Novel81",1,274,"straight-ahead","-1","test",3,TRUE,FALSE,4,TRUE,"1"
"Jan 09 2015","05:04:06",29,"Live","SocialFirst","Three",4,"Firefox",12,"Switch",0,"Novel111",1,"Novel140",3,488,"straight-ahead","-1","exposure",3,TRUE,FALSE,4,FALSE,"1"
"Jan 09 2015","05:04:06",30,"Live","SocialFirst","Three",4,"Firefox",13,"Same",1,"Novel77",3,"Novel77",3,644,"straight-ahead","-1","exposure",3,TRUE,FALSE,4,FALSE,"1"
"Jan 09 2015","05:04:06",31,"Live","SocialFirst","Three",4,"Firefox",14,"Switch",1,"Novel62",0,"Novel11",1,661,"straight-ahead","-1","exposure",3,TRUE,FALSE,4,FALSE,"1"
"Jan 09 2015","05:04:06",32,"Live","SocialFirst","Three",4,"Firefox",15,"Same",1,"Novel93",3,"Novel93",3,1341,"straight-ahead","-1","exposure",3,TRUE,FALSE,4,FALSE,"1"
"Jan 09 2015","05:04:06",33,"Live","SocialFirst","Three",4,"Firefox",12,"Switch",0,"Novel55",0,"Novel140",3,490,"straight-ahead","-1","test",3,TRUE,FALSE,4,FALSE,"1"
"Jan 09 2015","05:04:06",34,"Live","SocialFirst","Three",4,"Firefox",13,"Same",1,"Novel40",2,"Novel77",3,513,"straight-ahead","-1","test",3,TRUE,FALSE,4,FALSE,"1"
"Jan 09 2015","05:04:06",35,"Live","SocialFirst","Three",4,"Firefox",14,"Switch",1,"Novel11",1,"Novel11",1,539,"straight-ahead","-1","test",3,TRUE,FALSE,4,TRUE,"1"
"Jan 09 2015","05:04:06",36,"Live","SocialFirst","Three",4,"Firefox",15,"Same",1,"Novel93",3,"Novel93",3,540,"straight-ahead","-1","test",3,TRUE,FALSE,4,TRUE,"1"
"Dec 05 2014","12:00:52",1,"Live","No-socialFirst","Zero",4,"Chrome",0,"Switch",1,"squirrel",0,"",0,3184,"up-left-4sec","0","example",0,TRUE,FALSE,4,TRUE,"2"
"Dec 05 2014","12:00:52",2,"Live","No-socialFirst","Zero",4,"Chrome",0,"Switch",1,"squirrel",0,"",0,2975,"up-left-4sec","0","example",0,TRUE,FALSE,4,TRUE,"2"
"Dec 05 2014","12:00:52",3,"Live","No-socialFirst","Zero",4,"Chrome",0,"Switch",1,"tomato",1,"",0,2756,"up-right-4sec","1","example",0,TRUE,FALSE,4,TRUE,"2"
"Dec 05 2014","12:00:52",4,"Live","No-socialFirst","Zero",4,"Chrome",0,"Switch",1,"tomato",2,"",0,1950,"down-left-4sec","2","example",0,TRUE,FALSE,4,TRUE,"2"
"Dec 05 2014","12:00:52",5,"Live","No-socialFirst","Zero",4,"Chrome",0,"Switch",1,"Novel134",1,"Novel35",0,5650,"straight-ahead","-1","exposure",0,TRUE,FALSE,4,FALSE,"2"
"Dec 05 2014","12:00:52",6,"Live","No-socialFirst","Zero",4,"Chrome",0,"Switch",1,"Novel35",0,"Novel35",0,6358,"straight-ahead","-1","test",0,TRUE,TRUE,4,TRUE,"2"
"Dec 05 2014","12:00:52",7,"Live","No-socialFirst","Zero",4,"Chrome",1,"Same",0,"Novel20",1,"Novel20",1,3796,"straight-ahead","-1","exposure",0,TRUE,FALSE,4,FALSE,"2"
"Dec 05 2014","12:00:52",8,"Live","No-socialFirst","Zero",4,"Chrome",1,"Same",0,"Novel20",0,"Novel20",1,2013,"straight-ahead","-1","test",0,TRUE,FALSE,4,TRUE,"2"
"Dec 05 2014","12:00:52",9,"Live","No-socialFirst","Zero",4,"Chrome",2,"Switch",0,"Novel100",2,"Novel138",0,4488,"straight-ahead","-1","exposure",0,TRUE,FALSE,4,FALSE,"2"
"Dec 05 2014","12:00:52",10,"Live","No-socialFirst","Zero",4,"Chrome",2,"Switch",0,"Novel138",2,"Novel138",0,2282,"straight-ahead","-1","test",0,TRUE,FALSE,4,TRUE,"2"
"Dec 05 2014","12:00:52",11,"Live","No-socialFirst","Zero",4,"Chrome",3,"Same",0,"Novel21",2,"Novel21",2,2909,"straight-ahead","-1","exposure",0,TRUE,FALSE,4,FALSE,"2"
"Dec 05 2014","12:00:52",12,"Live","No-socialFirst","Zero",4,"Chrome",3,"Same",0,"Novel21",1,"Novel21",2,1618,"straight-ahead","-1","test",0,TRUE,FALSE,4,TRUE,"2"
"Dec 05 2014","12:00:52",13,"Live","No-socialFirst","Zero",4,"Chrome",4,"Switch",0,"Novel98",2,"Novel47",3,3895,"straight-ahead","-1","exposure",0,TRUE,FALSE,4,FALSE,"2"
"Dec 05 2014","12:00:52",14,"Live","No-socialFirst","Zero",4,"Chrome",4,"Switch",0,"Novel47",2,"Novel47",3,2075,"straight-ahead","-1","test",0,TRUE,FALSE,4,TRUE,"2"
"Dec 05 2014","12:00:52",15,"Live","No-socialFirst","Zero",4,"Chrome",5,"Same",1,"Novel104",2,"Novel104",2,5933,"straight-ahead","-1","exposure",0,TRUE,FALSE,4,FALSE,"2"
"Dec 05 2014","12:00:52",16,"Live","No-socialFirst","Zero",4,"Chrome",5,"Same",1,"Novel104",2,"Novel104",2,2838,"straight-ahead","-1","test",0,TRUE,FALSE,4,TRUE,"2"
"Dec 05 2014","12:00:52",17,"Live","No-socialFirst","Zero",4,"Chrome",6,"Switch",1,"Novel64",1,"Novel109",2,8284,"straight-ahead","-1","exposure",0,TRUE,FALSE,4,FALSE,"2"
"Dec 05 2014","12:00:52",18,"Live","No-socialFirst","Zero",4,"Chrome",6,"Switch",1,"Novel109",2,"Novel109",2,1331,"straight-ahead","-1","test",0,TRUE,FALSE,4,TRUE,"2"
"Dec 05 2014","12:00:52",19,"Live","No-socialFirst","Zero",4,"Chrome",7,"Same",1,"Novel83",1,"Novel83",1,4312,"straight-ahead","-1","exposure",0,TRUE,FALSE,4,FALSE,"2"
"Dec 05 2014","12:00:52",20,"Live","No-socialFirst","Zero",4,"Chrome",7,"Same",1,"Novel83",1,"Novel83",1,2363,"straight-ahead","-1","test",0,TRUE,FALSE,4,TRUE,"2"
"Dec 05 2014","12:00:52",21,"Live","No-socialFirst","Zero",4,"Chrome",8,"Switch",1,"Novel25",0,"Novel22",3,2180,"up-left-4sec","0","exposure",0,TRUE,FALSE,4,TRUE,"2"
"Dec 05 2014","12:00:52",22,"Live","No-socialFirst","Zero",4,"Chrome",8,"Switch",1,"Novel22",3,"Novel22",3,2077,"straight-ahead","-1","test",0,TRUE,FALSE,4,TRUE,"2"
"Dec 05 2014","12:00:52",23,"Live","No-socialFirst","Zero",4,"Chrome",9,"Same",0,"Novel96",0,"Novel96",0,3829,"down-right-4sec","3","exposure",0,TRUE,FALSE,4,FALSE,"2"
"Dec 05 2014","12:00:52",24,"Live","No-socialFirst","Zero",4,"Chrome",9,"Same",0,"Novel96",2,"Novel96",0,1858,"straight-ahead","-1","test",0,TRUE,FALSE,4,TRUE,"2"
"Dec 05 2014","12:00:52",25,"Live","No-socialFirst","Zero",4,"Chrome",10,"Switch",0,"Novel130",3,"Novel94",1,1933,"up-left-4sec","0","exposure",0,TRUE,FALSE,4,FALSE,"2"
"Dec 05 2014","12:00:52",26,"Live","No-socialFirst","Zero",4,"Chrome",10,"Switch",0,"Novel13",2,"Novel94",1,1614,"straight-ahead","-1","test",0,TRUE,FALSE,4,FALSE,"2"
"Dec 05 2014","12:00:52",27,"Live","No-socialFirst","Zero",4,"Chrome",11,"Same",0,"Novel32",1,"Novel32",1,3649,"up-left-4sec","0","exposure",0,TRUE,FALSE,4,FALSE,"2"
"Dec 05 2014","12:00:52",28,"Live","No-socialFirst","Zero",4,"Chrome",11,"Same",0,"Novel32",2,"Novel32",1,1444,"straight-ahead","-1","test",0,TRUE,FALSE,4,TRUE,"2"
"Dec 05 2014","12:00:52",29,"Live","No-socialFirst","Zero",4,"Chrome",12,"Switch",0,"Novel55",2,"Novel84",1,2409,"up-right-4sec","1","exposure",0,TRUE,FALSE,4,FALSE,"2"
"Dec 05 2014","12:00:52",30,"Live","No-socialFirst","Zero",4,"Chrome",12,"Switch",0,"Novel9",2,"Novel84",1,37,"straight-ahead","-1","test",0,TRUE,FALSE,4,FALSE,"2"
"Dec 05 2014","12:00:52",31,"Live","No-socialFirst","Zero",4,"Chrome",13,"Same",1,"Novel51",3,"Novel51",3,2102,"down-left-4sec","2","exposure",0,TRUE,FALSE,4,FALSE,"2"
"Dec 05 2014","12:00:52",32,"Live","No-socialFirst","Zero",4,"Chrome",13,"Same",1,"Novel51",3,"Novel51",3,1429,"straight-ahead","-1","test",0,TRUE,FALSE,4,TRUE,"2"
"Dec 05 2014","12:00:52",33,"Live","No-socialFirst","Zero",4,"Chrome",14,"Switch",1,"Novel72",1,"Novel44",3,2069,"down-left-4sec","2","exposure",0,TRUE,FALSE,4,FALSE,"2"
"Dec 05 2014","12:00:52",34,"Live","No-socialFirst","Zero",4,"Chrome",14,"Switch",1,"Novel44",3,"Novel44",3,2398,"straight-ahead","-1","test",0,TRUE,FALSE,4,TRUE,"2"
"Dec 05 2014","12:00:52",35,"Live","No-socialFirst","Zero",4,"Chrome",15,"Same",1,"Novel33",2,"Novel33",2,3300,"up-left-4sec","0","exposure",0,TRUE,FALSE,4,FALSE,"2"
"Dec 05 2014","12:00:52",36,"Live","No-socialFirst","Zero",4,"Chrome",15,"Same",1,"Novel33",2,"Novel33",2,1380,"straight-ahead","-1","test",0,TRUE,FALSE,4,TRUE,"2"
"Jan 09 2015","07:05:33",1,"Live","No-socialFirst","Three",4,"Safari",0,"Same",1,"squirrel",0,"",0,3096,"up-left-4sec","0","example",3,TRUE,FALSE,4,TRUE,"3"
"Jan 09 2015","07:05:33",2,"Live","No-socialFirst","Three",4,"Safari",0,"Same",1,"squirrel",0,"",0,1089,"up-left-4sec","0","example",3,TRUE,FALSE,4,TRUE,"3"
"Jan 09 2015","07:05:33",3,"Live","No-socialFirst","Three",4,"Safari",0,"Same",1,"tomato",1,"",0,996,"up-right-4sec","1","example",3,TRUE,FALSE,4,TRUE,"3"
"Jan 09 2015","07:05:33",4,"Live","No-socialFirst","Three",4,"Safari",0,"Same",1,"tomato",2,"",0,872,"down-left-4sec","2","example",3,TRUE,FALSE,4,TRUE,"3"
"Jan 09 2015","07:05:33",5,"Live","No-socialFirst","Three",4,"Safari",0,"Same",1,"Novel130",1,"Novel130",1,6409,"straight-ahead","-1","exposure",3,TRUE,FALSE,4,FALSE,"3"
"Jan 09 2015","07:05:33",6,"Live","No-socialFirst","Three",4,"Safari",1,"Switch",1,"Novel80",0,"Novel23",1,5911,"straight-ahead","-1","exposure",3,TRUE,FALSE,4,FALSE,"3"
"Jan 09 2015","07:05:33",7,"Live","No-socialFirst","Three",4,"Safari",2,"Same",0,"Novel18",2,"Novel18",2,3145,"straight-ahead","-1","exposure",3,TRUE,FALSE,4,FALSE,"3"
"Jan 09 2015","07:05:33",8,"Live","No-socialFirst","Three",4,"Safari",3,"Switch",0,"Novel109",1,"Novel92",3,4529,"straight-ahead","-1","exposure",3,TRUE,FALSE,4,FALSE,"3"
"Jan 09 2015","07:05:33",9,"Live","No-socialFirst","Three",4,"Safari",0,"Same",1,"Novel130",1,"Novel130",1,1837,"straight-ahead","-1","test",3,TRUE,TRUE,4,TRUE,"3"
"Jan 09 2015","07:05:33",10,"Live","No-socialFirst","Three",4,"Safari",1,"Switch",1,"Novel10",2,"Novel23",1,3700,"straight-ahead","-1","test",3,TRUE,FALSE,4,FALSE,"3"
"Jan 09 2015","07:05:33",11,"Live","No-socialFirst","Three",4,"Safari",2,"Same",0,"Novel18",1,"Novel18",2,4868,"straight-ahead","-1","test",3,TRUE,FALSE,4,TRUE,"3"
"Jan 09 2015","07:05:33",12,"Live","No-socialFirst","Three",4,"Safari",3,"Switch",0,"Novel112",2,"Novel92",3,4284,"straight-ahead","-1","test",3,TRUE,FALSE,4,FALSE,"3"
"Jan 09 2015","07:05:33",13,"Live","No-socialFirst","Three",4,"Safari",4,"Same",1,"Novel30",0,"Novel30",0,5485,"straight-ahead","-1","exposure",3,TRUE,FALSE,4,FALSE,"3"
"Jan 09 2015","07:05:33",14,"Live","No-socialFirst","Three",4,"Safari",5,"Switch",1,"Novel12",3,"Novel60",0,5224,"straight-ahead","-1","exposure",3,TRUE,FALSE,4,FALSE,"3"
"Jan 09 2015","07:05:33",15,"Live","No-socialFirst","Three",4,"Safari",6,"Same",0,"Novel39",1,"Novel39",1,2586,"straight-ahead","-1","exposure",3,TRUE,FALSE,4,FALSE,"3"
"Jan 09 2015","07:05:33",16,"Live","No-socialFirst","Three",4,"Safari",7,"Switch",0,"Novel135",1,"Novel136",2,3303,"straight-ahead","-1","exposure",3,TRUE,FALSE,4,FALSE,"3"
"Jan 09 2015","07:05:33",17,"Live","No-socialFirst","Three",4,"Safari",4,"Same",1,"Novel30",0,"Novel30",0,1234,"straight-ahead","-1","test",3,TRUE,FALSE,4,TRUE,"3"
"Jan 09 2015","07:05:33",18,"Live","No-socialFirst","Three",4,"Safari",5,"Switch",1,"Novel67",3,"Novel60",0,2505,"straight-ahead","-1","test",3,TRUE,FALSE,4,FALSE,"3"
"Jan 09 2015","07:05:33",19,"Live","No-socialFirst","Three",4,"Safari",6,"Same",0,"Novel39",2,"Novel39",1,1436,"straight-ahead","-1","test",3,TRUE,FALSE,4,TRUE,"3"
"Jan 09 2015","07:05:33",20,"Live","No-socialFirst","Three",4,"Safari",7,"Switch",0,"Novel136",3,"Novel136",2,2477,"straight-ahead","-1","test",3,TRUE,FALSE,4,TRUE,"3"
"Jan 09 2015","07:05:33",21,"Live","No-socialFirst","Three",4,"Safari",8,"Same",1,"Novel33",3,"Novel33",3,3468,"down-right-4sec","3","exposure",3,TRUE,FALSE,4,TRUE,"3"
"Jan 09 2015","07:05:33",22,"Live","No-socialFirst","Three",4,"Safari",9,"Switch",1,"Novel48",1,"Novel4",0,2183,"up-right-4sec","1","exposure",3,TRUE,FALSE,4,TRUE,"3"
"Jan 09 2015","07:05:33",23,"Live","No-socialFirst","Three",4,"Safari",10,"Same",0,"Novel123",0,"Novel123",0,3704,"down-right-4sec","3","exposure",3,TRUE,FALSE,4,FALSE,"3"
"Jan 09 2015","07:05:33",24,"Live","No-socialFirst","Three",4,"Safari",11,"Switch",0,"Novel76",1,"Novel14",0,1201,"up-right-4sec","1","exposure",3,TRUE,FALSE,4,TRUE,"3"
"Jan 09 2015","07:05:33",25,"Live","No-socialFirst","Three",4,"Safari",8,"Same",1,"Novel33",3,"Novel33",3,1725,"straight-ahead","-1","test",3,TRUE,FALSE,4,TRUE,"3"
"Jan 09 2015","07:05:33",26,"Live","No-socialFirst","Three",4,"Safari",9,"Switch",1,"Novel127",1,"Novel4",0,2196,"straight-ahead","-1","test",3,TRUE,FALSE,4,FALSE,"3"
"Jan 09 2015","07:05:33",27,"Live","No-socialFirst","Three",4,"Safari",10,"Same",0,"Novel123",3,"Novel123",0,2112,"straight-ahead","-1","test",3,TRUE,FALSE,4,TRUE,"3"
"Jan 09 2015","07:05:33",28,"Live","No-socialFirst","Three",4,"Safari",11,"Switch",0,"Novel14",1,"Novel14",0,2262,"straight-ahead","-1","test",3,TRUE,FALSE,4,TRUE,"3"
"Jan 09 2015","07:05:33",29,"Live","No-socialFirst","Three",4,"Safari",12,"Same",1,"Novel31",0,"Novel31",0,1557,"up-left-4sec","0","exposure",3,TRUE,FALSE,4,TRUE,"3"
"Jan 09 2015","07:05:33",30,"Live","No-socialFirst","Three",4,"Safari",13,"Switch",1,"Novel126",1,"Novel36",3,1006,"up-right-4sec","1","exposure",3,TRUE,FALSE,4,TRUE,"3"
"Jan 09 2015","07:05:33",31,"Live","No-socialFirst","Three",4,"Safari",14,"Same",0,"Novel125",0,"Novel125",0,1123,"up-left-4sec","0","exposure",3,TRUE,FALSE,4,TRUE,"3"
"Jan 09 2015","07:05:33",32,"Live","No-socialFirst","Three",4,"Safari",15,"Switch",0,"Novel139",1,"Novel29",2,941,"up-right-4sec","1","exposure",3,TRUE,FALSE,4,TRUE,"3"
"Jan 09 2015","07:05:33",33,"Live","No-socialFirst","Three",4,"Safari",12,"Same",1,"Novel31",0,"Novel31",0,1236,"straight-ahead","-1","test",3,TRUE,FALSE,4,TRUE,"3"
"Jan 09 2015","07:05:33",34,"Live","No-socialFirst","Three",4,"Safari",13,"Switch",1,"Novel45",2,"Novel36",3,3614,"straight-ahead","-1","test",3,TRUE,FALSE,4,FALSE,"3"
"Jan 09 2015","07:05:33",35,"Live","No-socialFirst","Three",4,"Safari",14,"Same",0,"Novel74",3,"Novel125",0,804,"straight-ahead","-1","test",3,TRUE,FALSE,4,FALSE,"3"
"Jan 09 2015","07:05:33",36,"Live","No-socialFirst","Three",4,"Safari",15,"Switch",0,"Novel47",2,"Novel29",2,3118,"straight-ahead","-1","test",3,TRUE,FALSE,4,FALSE,"3"
"Jan 08 2015","23:11:29",1,"Live","No-socialFirst","Three",4,"Chrome",0,"Switch",0,"squirrel",0,"",0,820,"up-left-4sec","0","example",3,TRUE,FALSE,4,TRUE,"4"
"Jan 08 2015","23:11:29",2,"Live","No-socialFirst","Three",4,"Chrome",0,"Switch",0,"squirrel",0,"",0,490,"up-left-4sec","0","example",3,TRUE,FALSE,4,TRUE,"4"
"Jan 08 2015","23:11:29",3,"Live","No-socialFirst","Three",4,"Chrome",0,"Switch",0,"tomato",1,"",0,354,"up-right-4sec","1","example",3,TRUE,FALSE,4,TRUE,"4"
"Jan 08 2015","23:11:29",4,"Live","No-socialFirst","Three",4,"Chrome",0,"Switch",0,"tomato",2,"",0,433,"down-left-4sec","2","example",3,TRUE,FALSE,4,TRUE,"4"
"Jan 08 2015","23:11:29",5,"Live","No-socialFirst","Three",4,"Chrome",0,"Switch",0,"Novel134",0,"Novel133",1,4815,"straight-ahead","-1","exposure",3,TRUE,FALSE,4,FALSE,"4"
"Jan 08 2015","23:11:29",6,"Live","No-socialFirst","Three",4,"Chrome",1,"Same",0,"Novel92",2,"Novel92",2,6970,"straight-ahead","-1","exposure",3,TRUE,FALSE,4,FALSE,"4"
"Jan 08 2015","23:11:29",7,"Live","No-socialFirst","Three",4,"Chrome",2,"Switch",0,"Novel43",2,"Novel68",1,4301,"straight-ahead","-1","exposure",3,TRUE,FALSE,4,FALSE,"4"
"Jan 08 2015","23:11:29",8,"Live","No-socialFirst","Three",4,"Chrome",3,"Same",1,"Novel95",2,"Novel95",2,1582,"straight-ahead","-1","exposure",3,TRUE,FALSE,4,FALSE,"4"
"Jan 08 2015","23:11:29",9,"Live","No-socialFirst","Three",4,"Chrome",0,"Switch",0,"Novel133",2,"Novel133",1,1735,"straight-ahead","-1","test",3,TRUE,TRUE,4,TRUE,"4"
"Jan 08 2015","23:11:29",10,"Live","No-socialFirst","Three",4,"Chrome",1,"Same",0,"Novel92",3,"Novel92",2,2772,"straight-ahead","-1","test",3,TRUE,FALSE,4,TRUE,"4"
"Jan 08 2015","23:11:29",11,"Live","No-socialFirst","Three",4,"Chrome",2,"Switch",0,"Novel68",2,"Novel68",1,2349,"straight-ahead","-1","test",3,TRUE,FALSE,4,TRUE,"4"
"Jan 08 2015","23:11:29",12,"Live","No-socialFirst","Three",4,"Chrome",3,"Same",1,"Novel95",2,"Novel95",2,677,"straight-ahead","-1","test",3,TRUE,FALSE,4,TRUE,"4"
"Jan 08 2015","23:11:29",13,"Live","No-socialFirst","Three",4,"Chrome",4,"Switch",1,"Novel81",1,"Novel28",0,3786,"straight-ahead","-1","exposure",3,TRUE,FALSE,4,FALSE,"4"
"Jan 08 2015","23:11:29",14,"Live","No-socialFirst","Three",4,"Chrome",5,"Same",1,"Novel129",2,"Novel129",2,2951,"straight-ahead","-1","exposure",3,TRUE,FALSE,4,FALSE,"4"
"Jan 08 2015","23:11:29",15,"Live","No-socialFirst","Three",4,"Chrome",6,"Switch",1,"Novel123",0,"Novel1",2,3176,"straight-ahead","-1","exposure",3,TRUE,FALSE,4,FALSE,"4"
"Jan 08 2015","23:11:29",16,"Live","No-socialFirst","Three",4,"Chrome",7,"Same",0,"Novel29",0,"Novel29",0,1297,"straight-ahead","-1","exposure",3,TRUE,FALSE,4,FALSE,"4"
"Jan 08 2015","23:11:29",17,"Live","No-socialFirst","Three",4,"Chrome",4,"Switch",1,"Novel28",0,"Novel28",0,3770,"straight-ahead","-1","test",3,TRUE,FALSE,4,TRUE,"4"
"Jan 08 2015","23:11:29",18,"Live","No-socialFirst","Three",4,"Chrome",5,"Same",1,"Novel129",2,"Novel129",2,1130,"straight-ahead","-1","test",3,TRUE,FALSE,4,TRUE,"4"
"Jan 08 2015","23:11:29",19,"Live","No-socialFirst","Three",4,"Chrome",6,"Switch",1,"Novel25",0,"Novel1",2,1123,"straight-ahead","-1","test",3,TRUE,FALSE,4,FALSE,"4"
"Jan 08 2015","23:11:29",20,"Live","No-socialFirst","Three",4,"Chrome",7,"Same",0,"Novel29",1,"Novel29",0,2090,"straight-ahead","-1","test",3,TRUE,FALSE,4,TRUE,"4"
"Jan 08 2015","23:11:29",21,"Live","No-socialFirst","Three",4,"Chrome",8,"Switch",0,"Novel64",3,"Novel140",0,1186,"down-right-4sec","3","exposure",3,TRUE,FALSE,4,TRUE,"4"
"Jan 08 2015","23:11:29",22,"Live","No-socialFirst","Three",4,"Chrome",9,"Same",0,"Novel8",2,"Novel8",2,946,"down-left-4sec","2","exposure",3,TRUE,FALSE,4,TRUE,"4"
"Jan 08 2015","23:11:29",23,"Live","No-socialFirst","Three",4,"Chrome",10,"Switch",0,"Novel85",2,"Novel60",0,603,"down-left-4sec","2","exposure",3,TRUE,FALSE,4,TRUE,"4"
"Jan 08 2015","23:11:29",24,"Live","No-socialFirst","Three",4,"Chrome",11,"Same",1,"Novel119",0,"Novel119",0,350,"up-left-4sec","0","exposure",3,TRUE,FALSE,4,TRUE,"4"
"Jan 08 2015","23:11:29",25,"Live","No-socialFirst","Three",4,"Chrome",8,"Switch",0,"Novel88",1,"Novel140",0,5631,"straight-ahead","-1","test",3,TRUE,FALSE,4,FALSE,"4"
"Jan 08 2015","23:11:29",26,"Live","No-socialFirst","Three",4,"Chrome",9,"Same",0,"Novel8",0,"Novel8",2,356,"straight-ahead","-1","test",3,TRUE,FALSE,4,TRUE,"4"
"Jan 08 2015","23:11:29",27,"Live","No-socialFirst","Three",4,"Chrome",10,"Switch",0,"Novel55",2,"Novel60",0,1221,"straight-ahead","-1","test",3,TRUE,FALSE,4,FALSE,"4"
"Jan 08 2015","23:11:29",28,"Live","No-socialFirst","Three",4,"Chrome",11,"Same",1,"Novel119",0,"Novel119",0,441,"straight-ahead","-1","test",3,TRUE,FALSE,4,TRUE,"4"
"Jan 08 2015","23:11:29",29,"Live","No-socialFirst","Three",4,"Chrome",12,"Switch",1,"Novel11",3,"Novel101",1,2390,"down-right-4sec","3","exposure",3,TRUE,FALSE,4,TRUE,"4"
"Jan 08 2015","23:11:29",30,"Live","No-socialFirst","Three",4,"Chrome",13,"Same",1,"Novel15",2,"Novel15",2,489,"down-left-4sec","2","exposure",3,TRUE,FALSE,4,TRUE,"4"
"Jan 08 2015","23:11:29",31,"Live","No-socialFirst","Three",4,"Chrome",14,"Switch",1,"Novel35",2,"Novel13",0,975,"down-left-4sec","2","exposure",3,TRUE,FALSE,4,TRUE,"4"
"Jan 08 2015","23:11:29",32,"Live","No-socialFirst","Three",4,"Chrome",15,"Same",0,"Novel109",1,"Novel109",1,439,"up-right-4sec","1","exposure",3,TRUE,FALSE,4,TRUE,"4"
"Jan 08 2015","23:11:29",33,"Live","No-socialFirst","Three",4,"Chrome",12,"Switch",1,"Novel78",3,"Novel101",1,1565,"straight-ahead","-1","test",3,TRUE,FALSE,4,FALSE,"4"
"Jan 08 2015","23:11:29",34,"Live","No-socialFirst","Three",4,"Chrome",13,"Same",1,"Novel15",2,"Novel15",2,280,"straight-ahead","-1","test",3,TRUE,FALSE,4,TRUE,"4"
"Jan 08 2015","23:11:29",35,"Live","No-socialFirst","Three",4,"Chrome",14,"Switch",1,"Novel99",1,"Novel13",0,2073,"straight-ahead","-1","test",3,TRUE,FALSE,4,FALSE,"4"
"Jan 08 2015","23:11:29",36,"Live","No-socialFirst","Three",4,"Chrome",15,"Same",0,"Novel109",2,"Novel109",1,1430,"straight-ahead","-1","test",3,TRUE,FALSE,4,TRUE,"4"
"Jan 09 2015","05:51:30",1,"Live","SocialFirst","Three",4,"Chrome",0,"Switch",0,"squirrel",0,"",0,1253,"up-left-4sec","0","example",3,TRUE,FALSE,4,TRUE,"5"
"Jan 09 2015","05:51:30",2,"Live","SocialFirst","Three",4,"Chrome",0,"Switch",0,"squirrel",0,"",0,689,"up-left-4sec","0","example",3,TRUE,FALSE,4,TRUE,"5"
"Jan 09 2015","05:51:30",3,"Live","SocialFirst","Three",4,"Chrome",0,"Switch",0,"tomato",1,"",0,457,"up-right-4sec","1","example",3,TRUE,FALSE,4,TRUE,"5"
"Jan 09 2015","05:51:30",4,"Live","SocialFirst","Three",4,"Chrome",0,"Switch",0,"tomato",2,"",0,444,"down-left-4sec","2","example",3,TRUE,FALSE,4,TRUE,"5"
"Jan 09 2015","05:51:30",5,"Live","SocialFirst","Three",4,"Chrome",0,"Switch",0,"Novel25",2,"Novel56",1,1206,"down-left-4sec","2","exposure",3,TRUE,FALSE,4,TRUE,"5"
"Jan 09 2015","05:51:30",6,"Live","SocialFirst","Three",4,"Chrome",1,"Same",1,"Novel81",3,"Novel81",3,415,"down-right-4sec","3","exposure",3,TRUE,FALSE,4,TRUE,"5"
"Jan 09 2015","05:51:30",7,"Live","SocialFirst","Three",4,"Chrome",2,"Switch",1,"Novel2",0,"Novel43",1,316,"up-left-4sec","0","exposure",3,TRUE,FALSE,4,TRUE,"5"
"Jan 09 2015","05:51:30",8,"Live","SocialFirst","Three",4,"Chrome",3,"Same",1,"Novel41",0,"Novel41",0,142,"up-left-4sec","0","exposure",3,TRUE,FALSE,4,TRUE,"5"
"Jan 09 2015","05:51:30",9,"Live","SocialFirst","Three",4,"Chrome",0,"Switch",0,"Novel56",2,"Novel56",1,3142,"straight-ahead","-1","test",3,TRUE,TRUE,4,TRUE,"5"
"Jan 09 2015","05:51:30",10,"Live","SocialFirst","Three",4,"Chrome",1,"Same",1,"Novel81",3,"Novel81",3,1474,"straight-ahead","-1","test",3,TRUE,FALSE,4,TRUE,"5"
"Jan 09 2015","05:51:30",11,"Live","SocialFirst","Three",4,"Chrome",2,"Switch",1,"Novel53",0,"Novel43",1,1001,"straight-ahead","-1","test",3,TRUE,FALSE,4,FALSE,"5"
"Jan 09 2015","05:51:30",12,"Live","SocialFirst","Three",4,"Chrome",3,"Same",1,"Novel41",0,"Novel41",0,434,"straight-ahead","-1","test",3,TRUE,FALSE,4,TRUE,"5"
"Jan 09 2015","05:51:30",13,"Live","SocialFirst","Three",4,"Chrome",4,"Switch",0,"Novel121",1,"Novel29",0,1062,"up-right-4sec","1","exposure",3,TRUE,FALSE,4,TRUE,"5"
"Jan 09 2015","05:51:30",14,"Live","SocialFirst","Three",4,"Chrome",5,"Same",0,"Novel116",1,"Novel116",1,616,"up-right-4sec","1","exposure",3,TRUE,FALSE,4,TRUE,"5"
"Jan 09 2015","05:51:30",15,"Live","SocialFirst","Three",4,"Chrome",6,"Switch",1,"Novel137",0,"Novel42",2,582,"up-left-4sec","0","exposure",3,TRUE,FALSE,4,TRUE,"5"
"Jan 09 2015","05:51:30",16,"Live","SocialFirst","Three",4,"Chrome",7,"Same",0,"Novel64",0,"Novel64",0,503,"up-left-4sec","0","exposure",3,TRUE,FALSE,4,TRUE,"5"
"Jan 09 2015","05:51:30",17,"Live","SocialFirst","Three",4,"Chrome",4,"Switch",0,"Novel29",3,"Novel29",0,2230,"straight-ahead","-1","test",3,TRUE,FALSE,4,TRUE,"5"
"Jan 09 2015","05:51:30",18,"Live","SocialFirst","Three",4,"Chrome",5,"Same",0,"Novel116",3,"Novel116",1,456,"straight-ahead","-1","test",3,TRUE,FALSE,4,TRUE,"5"
"Jan 09 2015","05:51:30",19,"Live","SocialFirst","Three",4,"Chrome",6,"Switch",1,"Novel21",0,"Novel42",2,929,"straight-ahead","-1","test",3,TRUE,FALSE,4,FALSE,"5"
"Jan 09 2015","05:51:30",20,"Live","SocialFirst","Three",4,"Chrome",7,"Same",0,"Novel64",3,"Novel64",0,323,"straight-ahead","-1","test",3,TRUE,FALSE,4,TRUE,"5"
"Jan 09 2015","05:51:30",21,"Live","SocialFirst","Three",4,"Chrome",8,"Switch",0,"Novel80",0,"Novel13",3,2620,"straight-ahead","-1","exposure",3,TRUE,FALSE,4,FALSE,"5"
"Jan 09 2015","05:51:30",22,"Live","SocialFirst","Three",4,"Chrome",9,"Same",1,"Novel110",3,"Novel110",3,2413,"straight-ahead","-1","exposure",3,TRUE,FALSE,4,FALSE,"5"
"Jan 09 2015","05:51:30",23,"Live","SocialFirst","Three",4,"Chrome",10,"Switch",1,"Novel129",3,"Novel122",1,1690,"straight-ahead","-1","exposure",3,TRUE,FALSE,4,FALSE,"5"
"Jan 09 2015","05:51:30",24,"Live","SocialFirst","Three",4,"Chrome",11,"Same",1,"Novel125",3,"Novel125",3,893,"straight-ahead","-1","exposure",3,TRUE,FALSE,4,FALSE,"5"
"Jan 09 2015","05:51:30",25,"Live","SocialFirst","Three",4,"Chrome",8,"Switch",0,"Novel85",3,"Novel13",3,1003,"straight-ahead","-1","test",3,TRUE,FALSE,4,FALSE,"5"
"Jan 09 2015","05:51:30",26,"Live","SocialFirst","Three",4,"Chrome",9,"Same",1,"Novel110",3,"Novel110",3,772,"straight-ahead","-1","test",3,TRUE,FALSE,4,TRUE,"5"
"Jan 09 2015","05:51:30",27,"Live","SocialFirst","Three",4,"Chrome",10,"Switch",1,"Novel122",1,"Novel122",1,2230,"straight-ahead","-1","test",3,TRUE,FALSE,4,TRUE,"5"
"Jan 09 2015","05:51:30",28,"Live","SocialFirst","Three",4,"Chrome",11,"Same",1,"Novel125",3,"Novel125",3,1557,"straight-ahead","-1","test",3,TRUE,FALSE,4,TRUE,"5"
"Jan 09 2015","05:51:30",29,"Live","SocialFirst","Three",4,"Chrome",12,"Switch",0,"Novel92",3,"Novel5",1,287,"straight-ahead","-1","exposure",3,TRUE,FALSE,4,FALSE,"5"
"Jan 09 2015","05:51:30",30,"Live","SocialFirst","Three",4,"Chrome",13,"Same",0,"Novel28",0,"Novel28",0,243,"straight-ahead","-1","exposure",3,TRUE,FALSE,4,FALSE,"5"
"Jan 09 2015","05:51:30",31,"Live","SocialFirst","Three",4,"Chrome",14,"Switch",1,"Novel108",1,"Novel73",0,1020,"straight-ahead","-1","exposure",3,TRUE,FALSE,4,FALSE,"5"
"Jan 09 2015","05:51:30",32,"Live","SocialFirst","Three",4,"Chrome",15,"Same",0,"Novel40",1,"Novel40",1,4217,"straight-ahead","-1","exposure",3,TRUE,FALSE,4,FALSE,"5"
"Jan 09 2015","05:51:30",33,"Live","SocialFirst","Three",4,"Chrome",12,"Switch",0,"Novel15",1,"Novel5",1,2247,"straight-ahead","-1","test",3,TRUE,FALSE,4,FALSE,"5"
"Jan 09 2015","05:51:30",34,"Live","SocialFirst","Three",4,"Chrome",13,"Same",0,"Novel28",1,"Novel28",0,203,"straight-ahead","-1","test",3,TRUE,FALSE,4,TRUE,"5"
"Jan 09 2015","05:51:30",35,"Live","SocialFirst","Three",4,"Chrome",14,"Switch",1,"Novel111",2,"Novel73",0,1143,"straight-ahead","-1","test",3,TRUE,FALSE,4,FALSE,"5"
"Jan 09 2015","05:51:30",36,"Live","SocialFirst","Three",4,"Chrome",15,"Same",0,"Novel40",0,"Novel40",1,467,"straight-ahead","-1","test",3,TRUE,FALSE,4,TRUE,"5"
"Jan 08 2015","20:17:05",1,"Live","No-socialFirst","Three",4,"Chrome",0,"Switch",1,"squirrel",0,"",0,1645,"up-left-4sec","0","example",3,TRUE,FALSE,4,TRUE,"6"
"Jan 08 2015","20:17:05",2,"Live","No-socialFirst","Three",4,"Chrome",0,"Switch",1,"squirrel",0,"",0,932,"up-left-4sec","0","example",3,TRUE,FALSE,4,TRUE,"6"
"Jan 08 2015","20:17:05",3,"Live","No-socialFirst","Three",4,"Chrome",0,"Switch",1,"tomato",1,"",0,2240,"up-right-4sec","1","example",3,TRUE,FALSE,4,TRUE,"6"
"Jan 08 2015","20:17:05",4,"Live","No-socialFirst","Three",4,"Chrome",0,"Switch",1,"tomato",2,"",0,1425,"down-left-4sec","2","example",3,TRUE,FALSE,4,TRUE,"6"
"Jan 08 2015","20:17:05",5,"Live","No-socialFirst","Three",4,"Chrome",0,"Switch",1,"Novel20",0,"Novel22",1,8942,"straight-ahead","-1","exposure",3,TRUE,FALSE,4,FALSE,"6"
"Jan 08 2015","20:17:05",6,"Live","No-socialFirst","Three",4,"Chrome",1,"Same",1,"Novel2",0,"Novel2",0,3935,"straight-ahead","-1","exposure",3,TRUE,FALSE,4,FALSE,"6"
"Jan 08 2015","20:17:05",7,"Live","No-socialFirst","Three",4,"Chrome",2,"Switch",1,"Novel130",2,"Novel11",3,4179,"straight-ahead","-1","exposure",3,TRUE,FALSE,4,FALSE,"6"
"Jan 08 2015","20:17:05",8,"Live","No-socialFirst","Three",4,"Chrome",3,"Same",0,"Novel28",0,"Novel28",0,3137,"straight-ahead","-1","exposure",3,TRUE,FALSE,4,FALSE,"6"
"Jan 08 2015","20:17:05",9,"Live","No-socialFirst","Three",4,"Chrome",0,"Switch",1,"Novel22",1,"Novel22",1,4141,"straight-ahead","-1","test",3,TRUE,TRUE,4,TRUE,"6"
"Jan 08 2015","20:17:05",10,"Live","No-socialFirst","Three",4,"Chrome",1,"Same",1,"Novel2",0,"Novel2",0,1284,"straight-ahead","-1","test",3,TRUE,FALSE,4,TRUE,"6"
"Jan 08 2015","20:17:05",11,"Live","No-socialFirst","Three",4,"Chrome",2,"Switch",1,"Novel11",3,"Novel11",3,1388,"straight-ahead","-1","test",3,TRUE,FALSE,4,TRUE,"6"
"Jan 08 2015","20:17:05",12,"Live","No-socialFirst","Three",4,"Chrome",3,"Same",0,"Novel28",3,"Novel28",0,713,"straight-ahead","-1","test",3,TRUE,FALSE,4,TRUE,"6"
"Jan 08 2015","20:17:05",13,"Live","No-socialFirst","Three",4,"Chrome",4,"Switch",0,"Novel56",0,"Novel125",3,3251,"straight-ahead","-1","exposure",3,TRUE,FALSE,4,FALSE,"6"
"Jan 08 2015","20:17:05",14,"Live","No-socialFirst","Three",4,"Chrome",5,"Same",1,"Novel138",3,"Novel138",3,3453,"straight-ahead","-1","exposure",3,TRUE,FALSE,4,FALSE,"6"
"Jan 08 2015","20:17:05",15,"Live","No-socialFirst","Three",4,"Chrome",6,"Switch",0,"Novel118",0,"Novel62",3,3730,"straight-ahead","-1","exposure",3,TRUE,FALSE,4,FALSE,"6"
"Jan 08 2015","20:17:05",16,"Live","No-socialFirst","Three",4,"Chrome",7,"Same",0,"Novel120",2,"Novel120",2,2755,"straight-ahead","-1","exposure",3,TRUE,FALSE,4,FALSE,"6"
"Jan 08 2015","20:17:05",17,"Live","No-socialFirst","Three",4,"Chrome",4,"Switch",0,"Novel125",2,"Novel125",3,961,"straight-ahead","-1","test",3,TRUE,FALSE,4,TRUE,"6"
"Jan 08 2015","20:17:05",18,"Live","No-socialFirst","Three",4,"Chrome",5,"Same",1,"Novel138",3,"Novel138",3,1391,"straight-ahead","-1","test",3,TRUE,FALSE,4,TRUE,"6"
"Jan 08 2015","20:17:05",19,"Live","No-socialFirst","Three",4,"Chrome",6,"Switch",0,"Novel62",0,"Novel62",3,373,"straight-ahead","-1","test",3,TRUE,FALSE,4,TRUE,"6"
"Jan 08 2015","20:17:05",20,"Live","No-socialFirst","Three",4,"Chrome",7,"Same",0,"Novel120",3,"Novel120",2,615,"straight-ahead","-1","test",3,TRUE,FALSE,4,TRUE,"6"
"Jan 08 2015","20:17:05",21,"Live","No-socialFirst","Three",4,"Chrome",8,"Switch",1,"Novel107",0,"Novel131",2,2272,"up-left-4sec","0","exposure",3,TRUE,FALSE,4,TRUE,"6"
"Jan 08 2015","20:17:05",22,"Live","No-socialFirst","Three",4,"Chrome",9,"Same",1,"Novel126",3,"Novel126",3,1665,"down-right-4sec","3","exposure",3,TRUE,FALSE,4,TRUE,"6"
"Jan 08 2015","20:17:05",23,"Live","No-socialFirst","Three",4,"Chrome",10,"Switch",1,"Novel112",0,"Novel87",3,1819,"up-left-4sec","0","exposure",3,TRUE,FALSE,4,TRUE,"6"
"Jan 08 2015","20:17:05",24,"Live","No-socialFirst","Three",4,"Chrome",11,"Same",0,"Novel77",1,"Novel77",1,1286,"up-right-4sec","1","exposure",3,TRUE,FALSE,4,TRUE,"6"
"Jan 08 2015","20:17:05",25,"Live","No-socialFirst","Three",4,"Chrome",8,"Switch",1,"Novel131",2,"Novel131",2,697,"straight-ahead","-1","test",3,TRUE,FALSE,4,TRUE,"6"
"Jan 08 2015","20:17:05",26,"Live","No-socialFirst","Three",4,"Chrome",9,"Same",1,"Novel126",3,"Novel126",3,4144,"straight-ahead","-1","test",3,TRUE,FALSE,4,TRUE,"6"
"Jan 08 2015","20:17:05",27,"Live","No-socialFirst","Three",4,"Chrome",10,"Switch",1,"Novel103",1,"Novel87",3,722,"straight-ahead","-1","test",3,TRUE,FALSE,4,FALSE,"6"
"Jan 08 2015","20:17:05",28,"Live","No-socialFirst","Three",4,"Chrome",11,"Same",0,"Novel77",3,"Novel77",1,289,"straight-ahead","-1","test",3,TRUE,FALSE,4,TRUE,"6"
"Jan 08 2015","20:17:05",29,"Live","No-socialFirst","Three",4,"Chrome",12,"Switch",0,"Novel70",3,"Novel6",2,2879,"down-left-4sec","2","exposure",3,TRUE,FALSE,4,FALSE,"6"
"Jan 08 2015","20:17:05",30,"Live","No-socialFirst","Three",4,"Chrome",13,"Same",1,"Novel86",0,"Novel86",0,2192,"up-left-4sec","0","exposure",3,TRUE,FALSE,4,TRUE,"6"
"Jan 08 2015","20:17:05",31,"Live","No-socialFirst","Three",4,"Chrome",14,"Switch",0,"Novel127",3,"Novel73",2,3983,"up-right-4sec","1","exposure",3,TRUE,FALSE,4,FALSE,"6"
"Jan 08 2015","20:17:05",32,"Live","No-socialFirst","Three",4,"Chrome",15,"Same",0,"Novel55",3,"Novel55",3,2229,"down-right-4sec","3","exposure",3,TRUE,FALSE,4,TRUE,"6"
"Jan 08 2015","20:17:05",33,"Live","No-socialFirst","Three",4,"Chrome",12,"Switch",0,"Novel6",0,"Novel6",2,475,"straight-ahead","-1","test",3,TRUE,FALSE,4,TRUE,"6"
"Jan 08 2015","20:17:05",34,"Live","No-socialFirst","Three",4,"Chrome",13,"Same",1,"Novel86",0,"Novel86",0,208,"straight-ahead","-1","test",3,TRUE,FALSE,4,TRUE,"6"
"Jan 08 2015","20:17:05",35,"Live","No-socialFirst","Three",4,"Chrome",14,"Switch",0,"Novel73",3,"Novel73",2,251,"straight-ahead","-1","test",3,TRUE,FALSE,4,TRUE,"6"
"Jan 08 2015","20:17:05",36,"Live","No-socialFirst","Three",4,"Chrome",15,"Same",0,"Novel55",2,"Novel55",3,221,"straight-ahead","-1","test",3,TRUE,FALSE,4,TRUE,"6"
"Jan 08 2015","17:17:46",1,"Live","SocialFirst","Three",4,"Chrome",0,"Switch",1,"squirrel",0,"",0,1370,"up-left-4sec","0","example",3,TRUE,FALSE,4,TRUE,"7"
"Jan 08 2015","17:17:46",2,"Live","SocialFirst","Three",4,"Chrome",0,"Switch",1,"squirrel",0,"",0,1090,"up-left-4sec","0","example",3,TRUE,FALSE,4,TRUE,"7"
"Jan 08 2015","17:17:46",3,"Live","SocialFirst","Three",4,"Chrome",0,"Switch",1,"tomato",1,"",0,1250,"up-right-4sec","1","example",3,TRUE,FALSE,4,TRUE,"7"
"Jan 08 2015","17:17:46",4,"Live","SocialFirst","Three",4,"Chrome",0,"Switch",1,"tomato",2,"",0,1045,"down-left-4sec","2","example",3,TRUE,FALSE,4,TRUE,"7"
"Jan 08 2015","17:17:46",5,"Live","SocialFirst","Three",4,"Chrome",0,"Switch",1,"Novel63",3,"Novel85",2,1457,"down-right-4sec","3","exposure",3,TRUE,FALSE,4,TRUE,"7"
"Jan 08 2015","17:17:46",6,"Live","SocialFirst","Three",4,"Chrome",1,"Same",1,"Novel40",0,"Novel40",0,1653,"up-left-4sec","0","exposure",3,TRUE,FALSE,4,TRUE,"7"
"Jan 08 2015","17:17:46",7,"Live","SocialFirst","Three",4,"Chrome",2,"Switch",0,"Novel23",2,"Novel75",1,1287,"down-left-4sec","2","exposure",3,TRUE,FALSE,4,TRUE,"7"
"Jan 08 2015","17:17:46",8,"Live","SocialFirst","Three",4,"Chrome",3,"Same",1,"Novel81",3,"Novel81",3,1515,"down-right-4sec","3","exposure",3,TRUE,FALSE,4,TRUE,"7"
"Jan 08 2015","17:17:46",9,"Live","SocialFirst","Three",4,"Chrome",0,"Switch",1,"Novel106",0,"Novel85",2,3802,"straight-ahead","-1","test",3,TRUE,TRUE,4,FALSE,"7"
"Jan 08 2015","17:17:46",10,"Live","SocialFirst","Three",4,"Chrome",1,"Same",1,"Novel40",0,"Novel40",0,1870,"straight-ahead","-1","test",3,TRUE,FALSE,4,TRUE,"7"
"Jan 08 2015","17:17:46",11,"Live","SocialFirst","Three",4,"Chrome",2,"Switch",0,"Novel117",1,"Novel75",1,4033,"straight-ahead","-1","test",3,TRUE,FALSE,4,FALSE,"7"
"Jan 08 2015","17:17:46",12,"Live","SocialFirst","Three",4,"Chrome",3,"Same",1,"Novel81",3,"Novel81",3,2032,"straight-ahead","-1","test",3,TRUE,FALSE,4,TRUE,"7"
"Jan 08 2015","17:17:46",13,"Live","SocialFirst","Three",4,"Chrome",4,"Switch",1,"Novel55",2,"Novel15",0,1428,"down-left-4sec","2","exposure",3,TRUE,FALSE,4,TRUE,"7"
"Jan 08 2015","17:17:46",14,"Live","SocialFirst","Three",4,"Chrome",5,"Same",0,"Novel17",0,"Novel17",0,2375,"up-left-4sec","0","exposure",3,TRUE,FALSE,4,TRUE,"7"
"Jan 08 2015","17:17:46",15,"Live","SocialFirst","Three",4,"Chrome",6,"Switch",0,"Novel43",2,"Novel32",3,1465,"down-left-4sec","2","exposure",3,TRUE,FALSE,4,TRUE,"7"
"Jan 08 2015","17:17:46",16,"Live","SocialFirst","Three",4,"Chrome",7,"Same",0,"Novel65",1,"Novel65",1,1033,"up-right-4sec","1","exposure",3,TRUE,FALSE,4,TRUE,"7"
"Jan 08 2015","17:17:46",17,"Live","SocialFirst","Three",4,"Chrome",4,"Switch",1,"Novel89",3,"Novel15",0,4187,"straight-ahead","-1","test",3,TRUE,FALSE,4,FALSE,"7"
"Jan 08 2015","17:17:46",18,"Live","SocialFirst","Three",4,"Chrome",5,"Same",0,"Novel17",1,"Novel17",0,1675,"straight-ahead","-1","test",3,TRUE,FALSE,4,TRUE,"7"
"Jan 08 2015","17:17:46",19,"Live","SocialFirst","Three",4,"Chrome",6,"Switch",0,"Novel128",1,"Novel32",3,3188,"straight-ahead","-1","test",3,TRUE,FALSE,4,FALSE,"7"
"Jan 08 2015","17:17:46",20,"Live","SocialFirst","Three",4,"Chrome",7,"Same",0,"Novel65",2,"Novel65",1,1420,"straight-ahead","-1","test",3,TRUE,FALSE,4,TRUE,"7"
"Jan 08 2015","17:17:46",21,"Live","SocialFirst","Three",4,"Chrome",8,"Switch",1,"Novel94",0,"Novel127",3,2445,"straight-ahead","-1","exposure",3,TRUE,FALSE,4,FALSE,"7"
"Jan 08 2015","17:17:46",22,"Live","SocialFirst","Three",4,"Chrome",9,"Same",1,"Novel118",1,"Novel118",1,2590,"straight-ahead","-1","exposure",3,TRUE,FALSE,4,FALSE,"7"
"Jan 08 2015","17:17:46",23,"Live","SocialFirst","Three",4,"Chrome",10,"Switch",0,"Novel64",0,"Novel57",3,4235,"straight-ahead","-1","exposure",3,TRUE,FALSE,4,FALSE,"7"
"Jan 08 2015","17:17:46",24,"Live","SocialFirst","Three",4,"Chrome",11,"Same",1,"Novel22",2,"Novel22",2,2380,"straight-ahead","-1","exposure",3,TRUE,FALSE,4,FALSE,"7"
"Jan 08 2015","17:17:46",25,"Live","SocialFirst","Three",4,"Chrome",8,"Switch",1,"Novel121",1,"Novel127",3,3163,"straight-ahead","-1","test",3,TRUE,FALSE,4,FALSE,"7"
"Jan 08 2015","17:17:46",26,"Live","SocialFirst","Three",4,"Chrome",9,"Same",1,"Novel136",2,"Novel118",1,2668,"straight-ahead","-1","test",3,TRUE,FALSE,4,FALSE,"7"
"Jan 08 2015","17:17:46",27,"Live","SocialFirst","Three",4,"Chrome",10,"Switch",0,"Novel115",0,"Novel57",3,3015,"straight-ahead","-1","test",3,TRUE,FALSE,4,FALSE,"7"
"Jan 08 2015","17:17:46",28,"Live","SocialFirst","Three",4,"Chrome",11,"Same",1,"Novel22",2,"Novel22",2,1903,"straight-ahead","-1","test",3,TRUE,FALSE,4,TRUE,"7"
"Jan 08 2015","17:17:46",29,"Live","SocialFirst","Three",4,"Chrome",12,"Switch",1,"Novel62",0,"Novel80",1,3808,"straight-ahead","-1","exposure",3,TRUE,FALSE,4,FALSE,"7"
"Jan 08 2015","17:17:46",30,"Live","SocialFirst","Three",4,"Chrome",13,"Same",0,"Novel97",3,"Novel97",3,2795,"straight-ahead","-1","exposure",3,TRUE,FALSE,4,FALSE,"7"
"Jan 08 2015","17:17:46",31,"Live","SocialFirst","Three",4,"Chrome",14,"Switch",0,"Novel36",1,"Novel50",2,1427,"straight-ahead","-1","exposure",3,TRUE,FALSE,4,FALSE,"7"
"Jan 08 2015","17:17:46",32,"Live","SocialFirst","Three",4,"Chrome",15,"Same",0,"Novel134",2,"Novel134",2,3130,"straight-ahead","-1","exposure",3,TRUE,FALSE,4,FALSE,"7"
"Jan 08 2015","17:17:46",33,"Live","SocialFirst","Three",4,"Chrome",12,"Switch",1,"Novel80",1,"Novel80",1,3448,"straight-ahead","-1","test",3,TRUE,FALSE,4,TRUE,"7"
"Jan 08 2015","17:17:46",34,"Live","SocialFirst","Three",4,"Chrome",13,"Same",0,"Novel137",3,"Novel97",3,2643,"straight-ahead","-1","test",3,TRUE,FALSE,4,FALSE,"7"
"Jan 08 2015","17:17:46",35,"Live","SocialFirst","Three",4,"Chrome",14,"Switch",0,"Novel111",0,"Novel50",2,2920,"straight-ahead","-1","test",3,TRUE,FALSE,4,FALSE,"7"
"Jan 08 2015","17:17:46",36,"Live","SocialFirst","Three",4,"Chrome",15,"Same",0,"Novel134",1,"Novel134",2,1890,"straight-ahead","-1","test",3,TRUE,FALSE,4,TRUE,"7"
"Jan 08 2015","21:36:23",1,"Live","SocialFirst","Three",4,"Chrome",0,"Same",1,"squirrel",0,"",0,7114,"up-left-4sec","0","example",3,TRUE,FALSE,4,TRUE,"8"
"Jan 08 2015","21:36:23",2,"Live","SocialFirst","Three",4,"Chrome",0,"Same",1,"squirrel",0,"",0,1102,"up-left-4sec","0","example",3,TRUE,FALSE,4,TRUE,"8"
"Jan 08 2015","21:36:23",3,"Live","SocialFirst","Three",4,"Chrome",0,"Same",1,"tomato",1,"",0,1295,"up-right-4sec","1","example",3,TRUE,FALSE,4,TRUE,"8"
"Jan 08 2015","21:36:23",4,"Live","SocialFirst","Three",4,"Chrome",0,"Same",1,"tomato",2,"",0,1162,"down-left-4sec","2","example",3,TRUE,FALSE,4,TRUE,"8"
"Jan 08 2015","21:36:23",5,"Live","SocialFirst","Three",4,"Chrome",0,"Same",1,"Novel69",3,"Novel69",3,4152,"down-right-4sec","3","exposure",3,TRUE,FALSE,4,TRUE,"8"
"Jan 08 2015","21:36:23",6,"Live","SocialFirst","Three",4,"Chrome",1,"Switch",0,"Novel18",2,"Novel136",1,2636,"down-left-4sec","2","exposure",3,TRUE,FALSE,4,TRUE,"8"
"Jan 08 2015","21:36:23",7,"Live","SocialFirst","Three",4,"Chrome",2,"Same",1,"Novel46",2,"Novel46",2,2186,"down-left-4sec","2","exposure",3,TRUE,FALSE,4,TRUE,"8"
"Jan 08 2015","21:36:23",8,"Live","SocialFirst","Three",4,"Chrome",3,"Switch",0,"Novel17",2,"Novel13",3,1479,"down-left-4sec","2","exposure",3,TRUE,FALSE,4,TRUE,"8"
"Jan 08 2015","21:36:23",9,"Live","SocialFirst","Three",4,"Chrome",0,"Same",1,"Novel69",3,"Novel69",3,7872,"straight-ahead","-1","test",3,TRUE,TRUE,4,TRUE,"8"
"Jan 08 2015","21:36:23",10,"Live","SocialFirst","Three",4,"Chrome",1,"Switch",0,"Novel100",0,"Novel136",1,7118,"straight-ahead","-1","test",3,TRUE,FALSE,4,FALSE,"8"
"Jan 08 2015","21:36:23",11,"Live","SocialFirst","Three",4,"Chrome",2,"Same",1,"Novel46",2,"Novel46",2,2556,"straight-ahead","-1","test",3,TRUE,FALSE,4,TRUE,"8"
"Jan 08 2015","21:36:23",12,"Live","SocialFirst","Three",4,"Chrome",3,"Switch",0,"Novel75",2,"Novel13",3,6275,"straight-ahead","-1","test",3,TRUE,FALSE,4,FALSE,"8"
"Jan 08 2015","21:36:23",13,"Live","SocialFirst","Three",4,"Chrome",4,"Same",0,"Novel77",1,"Novel77",1,2958,"up-right-4sec","1","exposure",3,TRUE,FALSE,4,TRUE,"8"
"Jan 08 2015","21:36:23",14,"Live","SocialFirst","Three",4,"Chrome",5,"Switch",1,"Novel117",3,"Novel92",2,5606,"down-right-4sec","3","exposure",3,TRUE,FALSE,4,TRUE,"8"
"Jan 08 2015","21:36:23",15,"Live","SocialFirst","Three",4,"Chrome",6,"Same",0,"Novel63",2,"Novel63",2,3583,"down-left-4sec","2","exposure",3,TRUE,FALSE,4,TRUE,"8"
"Jan 08 2015","21:36:23",16,"Live","SocialFirst","Three",4,"Chrome",7,"Switch",1,"Novel106",0,"Novel81",3,3255,"up-left-4sec","0","exposure",3,TRUE,FALSE,4,TRUE,"8"
"Jan 08 2015","21:36:23",17,"Live","SocialFirst","Three",4,"Chrome",4,"Same",0,"Novel77",2,"Novel77",1,6285,"straight-ahead","-1","test",3,TRUE,FALSE,4,TRUE,"8"
"Jan 08 2015","21:36:23",18,"Live","SocialFirst","Three",4,"Chrome",5,"Switch",1,"Novel132",0,"Novel92",2,5571,"straight-ahead","-1","test",3,TRUE,FALSE,4,FALSE,"8"
"Jan 08 2015","21:36:23",19,"Live","SocialFirst","Three",4,"Chrome",6,"Same",0,"Novel63",3,"Novel63",2,2207,"straight-ahead","-1","test",3,TRUE,FALSE,4,TRUE,"8"
"Jan 08 2015","21:36:23",20,"Live","SocialFirst","Three",4,"Chrome",7,"Switch",1,"Novel138",2,"Novel81",3,3927,"straight-ahead","-1","test",3,TRUE,FALSE,4,FALSE,"8"
"Jan 08 2015","21:36:23",21,"Live","SocialFirst","Three",4,"Chrome",8,"Same",1,"Novel24",1,"Novel24",1,7885,"straight-ahead","-1","exposure",3,TRUE,FALSE,4,FALSE,"8"
"Jan 08 2015","21:36:23",22,"Live","SocialFirst","Three",4,"Chrome",9,"Switch",0,"Novel126",3,"Novel101",0,4232,"straight-ahead","-1","exposure",3,TRUE,FALSE,4,FALSE,"8"
"Jan 08 2015","21:36:23",23,"Live","SocialFirst","Three",4,"Chrome",10,"Same",1,"Novel109",2,"Novel109",2,6462,"straight-ahead","-1","exposure",3,TRUE,FALSE,4,FALSE,"8"
"Jan 08 2015","21:36:23",24,"Live","SocialFirst","Three",4,"Chrome",11,"Switch",0,"Novel76",2,"Novel86",1,4918,"straight-ahead","-1","exposure",3,TRUE,FALSE,4,FALSE,"8"
"Jan 08 2015","21:36:23",25,"Live","SocialFirst","Three",4,"Chrome",8,"Same",1,"Novel71",0,"Novel24",1,7647,"straight-ahead","-1","test",3,TRUE,FALSE,4,FALSE,"8"
"Jan 08 2015","21:36:23",26,"Live","SocialFirst","Three",4,"Chrome",9,"Switch",0,"Novel9",1,"Novel101",0,5257,"straight-ahead","-1","test",3,TRUE,FALSE,4,FALSE,"8"
"Jan 08 2015","21:36:23",27,"Live","SocialFirst","Three",4,"Chrome",10,"Same",1,"Novel109",2,"Novel109",2,3678,"straight-ahead","-1","test",3,TRUE,FALSE,4,TRUE,"8"
"Jan 08 2015","21:36:23",28,"Live","SocialFirst","Three",4,"Chrome",11,"Switch",0,"Novel86",0,"Novel86",1,4752,"straight-ahead","-1","test",3,TRUE,FALSE,4,TRUE,"8"
"Jan 08 2015","21:36:23",29,"Live","SocialFirst","Three",4,"Chrome",12,"Same",0,"Novel107",1,"Novel107",1,5541,"straight-ahead","-1","exposure",3,TRUE,FALSE,4,FALSE,"8"
"Jan 08 2015","21:36:23",30,"Live","SocialFirst","Three",4,"Chrome",13,"Switch",1,"Novel131",3,"Novel104",2,9173,"straight-ahead","-1","exposure",3,TRUE,FALSE,4,FALSE,"8"
"Jan 08 2015","21:36:23",31,"Live","SocialFirst","Three",4,"Chrome",14,"Same",0,"Novel116",2,"Novel116",2,4631,"straight-ahead","-1","exposure",3,TRUE,FALSE,4,FALSE,"8"
"Jan 08 2015","21:36:23",32,"Live","SocialFirst","Three",4,"Chrome",15,"Switch",1,"Novel89",2,"Novel43",3,4762,"straight-ahead","-1","exposure",3,TRUE,FALSE,4,FALSE,"8"
"Jan 08 2015","21:36:23",33,"Live","SocialFirst","Three",4,"Chrome",12,"Same",0,"Novel52",2,"Novel107",1,6062,"straight-ahead","-1","test",3,TRUE,FALSE,4,FALSE,"8"
"Jan 08 2015","21:36:23",34,"Live","SocialFirst","Three",4,"Chrome",13,"Switch",1,"Novel51",1,"Novel104",2,3226,"straight-ahead","-1","test",3,TRUE,FALSE,4,FALSE,"8"
"Jan 08 2015","21:36:23",35,"Live","SocialFirst","Three",4,"Chrome",14,"Same",0,"Novel57",1,"Novel116",2,5442,"straight-ahead","-1","test",3,TRUE,FALSE,4,FALSE,"8"
"Jan 08 2015","21:36:23",36,"Live","SocialFirst","Three",4,"Chrome",15,"Switch",1,"Novel98",1,"Novel43",3,6958,"straight-ahead","-1","test",3,TRUE,FALSE,4,FALSE,"8"
"Jan 08 2015","16:20:06",1,"Live","SocialFirst","Three",4,"Mozilla",0,"Switch",0,"squirrel",0,"",0,899,"up-left-4sec","0","example",3,TRUE,FALSE,4,TRUE,"9"
"Jan 08 2015","16:20:06",2,"Live","SocialFirst","Three",4,"Mozilla",0,"Switch",0,"squirrel",0,"",0,464,"up-left-4sec","0","example",3,TRUE,FALSE,4,TRUE,"9"
"Jan 08 2015","16:20:06",3,"Live","SocialFirst","Three",4,"Mozilla",0,"Switch",0,"tomato",1,"",0,1086,"up-right-4sec","1","example",3,TRUE,FALSE,4,TRUE,"9"
"Jan 08 2015","16:20:06",4,"Live","SocialFirst","Three",4,"Mozilla",0,"Switch",0,"tomato",2,"",0,417,"down-left-4sec","2","example",3,TRUE,FALSE,4,TRUE,"9"
"Jan 08 2015","16:20:06",5,"Live","SocialFirst","Three",4,"Mozilla",0,"Switch",0,"Novel73",2,"Novel135",3,882,"down-left-4sec","2","exposure",3,TRUE,FALSE,4,TRUE,"9"
"Jan 08 2015","16:20:06",6,"Live","SocialFirst","Three",4,"Mozilla",1,"Same",0,"Novel91",1,"Novel91",1,459,"down-left-4sec","2","exposure",3,TRUE,FALSE,4,FALSE,"9"
"Jan 08 2015","16:20:06",7,"Live","SocialFirst","Three",4,"Mozilla",2,"Switch",0,"Novel30",0,"Novel2",1,426,"down-left-4sec","2","exposure",3,TRUE,FALSE,4,FALSE,"9"
"Jan 08 2015","16:20:06",8,"Live","SocialFirst","Three",4,"Mozilla",3,"Same",1,"Novel34",3,"Novel34",3,1507,"down-left-4sec","2","exposure",3,TRUE,FALSE,4,FALSE,"9"
"Jan 08 2015","16:20:06",9,"Live","SocialFirst","Three",4,"Mozilla",0,"Switch",0,"Novel110",3,"Novel135",3,309,"straight-ahead","-1","test",3,TRUE,TRUE,4,FALSE,"9"
"Jan 08 2015","16:20:06",10,"Live","SocialFirst","Three",4,"Mozilla",1,"Same",0,"Novel1",0,"Novel91",1,31539,"straight-ahead","-1","test",3,TRUE,FALSE,4,FALSE,"9"
"Jan 08 2015","16:20:06",11,"Live","SocialFirst","Three",4,"Mozilla",2,"Switch",0,"Novel119",1,"Novel2",1,250,"straight-ahead","-1","test",3,TRUE,FALSE,4,FALSE,"9"
"Jan 08 2015","16:20:06",12,"Live","SocialFirst","Three",4,"Mozilla",3,"Same",1,"Novel34",3,"Novel34",3,2076,"straight-ahead","-1","test",3,TRUE,FALSE,4,TRUE,"9"
"Jan 08 2015","16:20:06",13,"Live","SocialFirst","Three",4,"Mozilla",4,"Switch",1,"Novel69",3,"Novel124",0,2770,"down-right-4sec","3","exposure",3,TRUE,FALSE,4,TRUE,"9"
"Jan 08 2015","16:20:06",14,"Live","SocialFirst","Three",4,"Mozilla",5,"Same",0,"Novel8",1,"Novel8",1,993,"up-right-4sec","1","exposure",3,TRUE,FALSE,4,TRUE,"9"
"Jan 08 2015","16:20:06",15,"Live","SocialFirst","Three",4,"Mozilla",6,"Switch",1,"Novel94",2,"Novel52",0,329,"down-left-4sec","2","exposure",3,TRUE,FALSE,4,TRUE,"9"
"Jan 08 2015","16:20:06",16,"Live","SocialFirst","Three",4,"Mozilla",7,"Same",1,"Novel109",0,"Novel109",0,587,"up-right-4sec","1","exposure",3,TRUE,FALSE,4,FALSE,"9"
"Jan 08 2015","16:20:06",17,"Live","SocialFirst","Three",4,"Mozilla",4,"Switch",1,"Novel79",1,"Novel124",0,1820,"straight-ahead","-1","test",3,TRUE,FALSE,4,FALSE,"9"
"Jan 08 2015","16:20:06",18,"Live","SocialFirst","Three",4,"Mozilla",5,"Same",0,"Novel61",2,"Novel8",1,896,"straight-ahead","-1","test",3,TRUE,FALSE,4,FALSE,"9"
"Jan 08 2015","16:20:06",19,"Live","SocialFirst","Three",4,"Mozilla",6,"Switch",1,"Novel113",1,"Novel52",0,1258,"straight-ahead","-1","test",3,TRUE,FALSE,4,FALSE,"9"
"Jan 08 2015","16:20:06",20,"Live","SocialFirst","Three",4,"Mozilla",7,"Same",1,"Novel106",2,"Novel109",0,238,"straight-ahead","-1","test",3,TRUE,FALSE,4,FALSE,"9"
"Jan 08 2015","16:20:06",21,"Live","SocialFirst","Three",4,"Mozilla",8,"Switch",0,"Novel70",1,"Novel96",0,1645,"straight-ahead","-1","exposure",3,TRUE,FALSE,4,FALSE,"9"
"Jan 08 2015","16:20:06",22,"Live","SocialFirst","Three",4,"Mozilla",9,"Same",0,"Novel53",0,"Novel53",0,353,"straight-ahead","-1","exposure",3,TRUE,FALSE,4,FALSE,"9"
"Jan 08 2015","16:20:06",23,"Live","SocialFirst","Three",4,"Mozilla",10,"Switch",0,"Novel72",1,"Novel81",2,230,"straight-ahead","-1","exposure",3,TRUE,FALSE,4,FALSE,"9"
"Jan 08 2015","16:20:06",24,"Live","SocialFirst","Three",4,"Mozilla",11,"Same",1,"Novel42",3,"Novel42",3,1279,"straight-ahead","-1","exposure",3,TRUE,FALSE,4,FALSE,"9"
"Jan 08 2015","16:20:06",25,"Live","SocialFirst","Three",4,"Mozilla",8,"Switch",0,"Novel80",1,"Novel96",0,519,"straight-ahead","-1","test",3,TRUE,FALSE,4,FALSE,"9"
"Jan 08 2015","16:20:06",26,"Live","SocialFirst","Three",4,"Mozilla",9,"Same",0,"Novel6",2,"Novel53",0,1989,"straight-ahead","-1","test",3,TRUE,FALSE,4,FALSE,"9"
"Jan 08 2015","16:20:06",27,"Live","SocialFirst","Three",4,"Mozilla",10,"Switch",0,"Novel68",3,"Novel81",2,383,"straight-ahead","-1","test",3,TRUE,FALSE,4,FALSE,"9"
"Jan 08 2015","16:20:06",28,"Live","SocialFirst","Three",4,"Mozilla",11,"Same",1,"Novel112",1,"Novel42",3,965,"straight-ahead","-1","test",3,TRUE,FALSE,4,FALSE,"9"
"Jan 08 2015","16:20:06",29,"Live","SocialFirst","Three",4,"Mozilla",12,"Switch",1,"Novel126",2,"Novel55",0,1882,"straight-ahead","-1","exposure",3,TRUE,FALSE,4,FALSE,"9"
"Jan 08 2015","16:20:06",30,"Live","SocialFirst","Three",4,"Mozilla",13,"Same",0,"Novel22",0,"Novel22",0,1494,"straight-ahead","-1","exposure",3,TRUE,FALSE,4,FALSE,"9"
"Jan 08 2015","16:20:06",31,"Live","SocialFirst","Three",4,"Mozilla",14,"Switch",1,"Novel131",0,"Novel28",3,311,"straight-ahead","-1","exposure",3,TRUE,FALSE,4,FALSE,"9"
"Jan 08 2015","16:20:06",32,"Live","SocialFirst","Three",4,"Mozilla",15,"Same",1,"Novel127",0,"Novel127",0,301,"straight-ahead","-1","exposure",3,TRUE,FALSE,4,FALSE,"9"
"Jan 08 2015","16:20:06",33,"Live","SocialFirst","Three",4,"Mozilla",12,"Switch",1,"Novel130",3,"Novel55",0,160,"straight-ahead","-1","test",3,TRUE,FALSE,4,FALSE,"9"
"Jan 08 2015","16:20:06",34,"Live","SocialFirst","Three",4,"Mozilla",13,"Same",0,"Novel65",1,"Novel22",0,549,"straight-ahead","-1","test",3,TRUE,FALSE,4,FALSE,"9"
"Jan 08 2015","16:20:06",35,"Live","SocialFirst","Three",4,"Mozilla",14,"Switch",1,"Novel122",2,"Novel28",3,90,"straight-ahead","-1","test",3,TRUE,FALSE,4,FALSE,"9"
"Jan 08 2015","16:20:06",36,"Live","SocialFirst","Three",4,"Mozilla",15,"Same",1,"Novel127",0,"Novel127",0,398,"straight-ahead","-1","test",3,TRUE,FALSE,4,TRUE,"9"
"Jan 08 2015","22:01:58",1,"Live","No-socialFirst","Three",4,"Firefox",0,"Switch",1,"squirrel",0,"",0,7925,"up-left-4sec","0","example",3,TRUE,FALSE,4,TRUE,"10"
"Jan 08 2015","22:01:58",2,"Live","No-socialFirst","Three",4,"Firefox",0,"Switch",1,"squirrel",0,"",0,830,"up-left-4sec","0","example",3,TRUE,FALSE,4,TRUE,"10"
"Jan 08 2015","22:01:58",3,"Live","No-socialFirst","Three",4,"Firefox",0,"Switch",1,"tomato",1,"",0,833,"up-right-4sec","1","example",3,TRUE,FALSE,4,TRUE,"10"
"Jan 08 2015","22:01:58",4,"Live","No-socialFirst","Three",4,"Firefox",0,"Switch",1,"tomato",2,"",0,2528,"down-left-4sec","2","example",3,TRUE,FALSE,4,TRUE,"10"
"Jan 08 2015","22:01:58",5,"Live","No-socialFirst","Three",4,"Firefox",0,"Switch",1,"Novel102",0,"Novel138",1,765,"straight-ahead","-1","exposure",3,TRUE,FALSE,4,FALSE,"10"
"Jan 08 2015","22:01:58",6,"Live","No-socialFirst","Three",4,"Firefox",1,"Same",1,"Novel137",3,"Novel137",3,95,"straight-ahead","-1","exposure",3,TRUE,FALSE,4,FALSE,"10"
"Jan 08 2015","22:01:58",7,"Live","No-socialFirst","Three",4,"Firefox",2,"Switch",1,"Novel13",1,"Novel19",2,63,"straight-ahead","-1","exposure",3,TRUE,FALSE,4,FALSE,"10"
"Jan 08 2015","22:01:58",8,"Live","No-socialFirst","Three",4,"Firefox",3,"Same",0,"Novel27",0,"Novel27",0,3289,"straight-ahead","-1","exposure",3,TRUE,FALSE,4,FALSE,"10"
"Jan 08 2015","22:01:58",9,"Live","No-socialFirst","Three",4,"Firefox",0,"Switch",1,"Novel43",2,"Novel138",1,240,"straight-ahead","-1","test",3,TRUE,TRUE,4,FALSE,"10"
"Jan 08 2015","22:01:58",10,"Live","No-socialFirst","Three",4,"Firefox",1,"Same",1,"Novel109",1,"Novel137",3,2457,"straight-ahead","-1","test",3,TRUE,FALSE,4,FALSE,"10"
"Jan 08 2015","22:01:58",11,"Live","No-socialFirst","Three",4,"Firefox",2,"Switch",1,"Novel15",3,"Novel19",2,11401,"straight-ahead","-1","test",3,TRUE,FALSE,4,FALSE,"10"
"Jan 08 2015","22:01:58",12,"Live","No-socialFirst","Three",4,"Firefox",3,"Same",0,"Novel27",2,"Novel27",0,704,"straight-ahead","-1","test",3,TRUE,FALSE,4,TRUE,"10"
"Jan 08 2015","22:01:58",13,"Live","No-socialFirst","Three",4,"Firefox",4,"Switch",0,"Novel14",0,"Novel3",1,182,"straight-ahead","-1","exposure",3,TRUE,FALSE,4,FALSE,"10"
"Jan 08 2015","22:01:58",14,"Live","No-socialFirst","Three",4,"Firefox",5,"Same",1,"Novel115",1,"Novel115",1,16,"straight-ahead","-1","exposure",3,TRUE,FALSE,4,FALSE,"10"
"Jan 08 2015","22:01:58",15,"Live","No-socialFirst","Three",4,"Firefox",6,"Switch",0,"Novel124",3,"Novel73",2,349,"straight-ahead","-1","exposure",3,TRUE,FALSE,4,FALSE,"10"
"Jan 08 2015","22:01:58",16,"Live","No-socialFirst","Three",4,"Firefox",7,"Same",0,"Novel10",1,"Novel10",1,8558,"straight-ahead","-1","exposure",3,TRUE,FALSE,4,FALSE,"10"
"Jan 08 2015","22:01:58",17,"Live","No-socialFirst","Three",4,"Firefox",4,"Switch",0,"Novel106",2,"Novel3",1,3194,"straight-ahead","-1","test",3,TRUE,FALSE,4,FALSE,"10"
"Jan 08 2015","22:01:58",18,"Live","No-socialFirst","Three",4,"Firefox",5,"Same",1,"Novel103",0,"Novel115",1,25102,"straight-ahead","-1","test",3,TRUE,FALSE,4,FALSE,"10"
"Jan 08 2015","22:01:58",19,"Live","No-socialFirst","Three",4,"Firefox",6,"Switch",0,"Novel12",2,"Novel73",2,6633,"straight-ahead","-1","test",3,TRUE,FALSE,4,FALSE,"10"
"Jan 08 2015","22:01:58",20,"Live","No-socialFirst","Three",4,"Firefox",7,"Same",0,"Novel127",2,"Novel10",1,4918,"straight-ahead","-1","test",3,TRUE,FALSE,4,FALSE,"10"
"Jan 08 2015","22:01:58",21,"Live","No-socialFirst","Three",4,"Firefox",8,"Switch",1,"Novel80",1,"Novel82",2,81841,"down-right-4sec","3","exposure",3,TRUE,FALSE,4,FALSE,"10"
"Jan 08 2015","22:01:58",22,"Live","No-socialFirst","Three",4,"Firefox",9,"Same",1,"Novel81",2,"Novel81",2,1196,"up-left-4sec","0","exposure",3,TRUE,FALSE,4,FALSE,"10"
"Jan 08 2015","22:01:58",23,"Live","No-socialFirst","Three",4,"Firefox",10,"Switch",1,"Novel121",0,"Novel60",1,492,"up-left-4sec","0","exposure",3,TRUE,FALSE,4,TRUE,"10"
"Jan 08 2015","22:01:58",24,"Live","No-socialFirst","Three",4,"Firefox",11,"Same",0,"Novel117",3,"Novel117",3,349,"down-right-4sec","3","exposure",3,TRUE,FALSE,4,TRUE,"10"
"Jan 08 2015","22:01:58",25,"Live","No-socialFirst","Three",4,"Firefox",8,"Switch",1,"Novel82",2,"Novel82",2,996,"straight-ahead","-1","test",3,TRUE,FALSE,4,TRUE,"10"
"Jan 08 2015","22:01:58",26,"Live","No-socialFirst","Three",4,"Firefox",9,"Same",1,"Novel81",2,"Novel81",2,1053,"straight-ahead","-1","test",3,TRUE,FALSE,4,TRUE,"10"
"Jan 08 2015","22:01:58",27,"Live","No-socialFirst","Three",4,"Firefox",10,"Switch",1,"Novel60",1,"Novel60",1,78,"straight-ahead","-1","test",3,TRUE,FALSE,4,TRUE,"10"
"Jan 08 2015","22:01:58",28,"Live","No-socialFirst","Three",4,"Firefox",11,"Same",0,"Novel101",2,"Novel117",3,5567,"straight-ahead","-1","test",3,TRUE,FALSE,4,FALSE,"10"
"Jan 08 2015","22:01:58",29,"Live","No-socialFirst","Three",4,"Firefox",12,"Switch",0,"Novel25",1,"Novel45",0,146,"up-right-4sec","1","exposure",3,TRUE,FALSE,4,TRUE,"10"
"Jan 08 2015","22:01:58",30,"Live","No-socialFirst","Three",4,"Firefox",13,"Same",1,"Novel107",3,"Novel107",3,90,"down-left-4sec","2","exposure",3,TRUE,FALSE,4,FALSE,"10"
"Jan 08 2015","22:01:58",31,"Live","No-socialFirst","Three",4,"Firefox",14,"Switch",0,"Novel30",0,"Novel7",2,266,"up-right-4sec","1","exposure",3,TRUE,FALSE,4,FALSE,"10"
"Jan 08 2015","22:01:58",32,"Live","No-socialFirst","Three",4,"Firefox",15,"Same",0,"Novel5",2,"Novel5",2,84,"up-left-4sec","0","exposure",3,TRUE,FALSE,4,FALSE,"10"
"Jan 08 2015","22:01:58",33,"Live","No-socialFirst","Three",4,"Firefox",12,"Switch",0,"Novel118",1,"Novel45",0,325,"straight-ahead","-1","test",3,TRUE,FALSE,4,FALSE,"10"
"Jan 08 2015","22:01:58",34,"Live","No-socialFirst","Three",4,"Firefox",13,"Same",1,"Novel107",3,"Novel107",3,1734,"straight-ahead","-1","test",3,TRUE,FALSE,4,TRUE,"10"
"Jan 08 2015","22:01:58",35,"Live","No-socialFirst","Three",4,"Firefox",14,"Switch",0,"Novel122",1,"Novel7",2,62577,"straight-ahead","-1","test",3,TRUE,FALSE,4,FALSE,"10"
"Jan 08 2015","22:01:58",36,"Live","No-socialFirst","Three",4,"Firefox",15,"Same",0,"Novel93",2,"Novel5",2,977,"straight-ahead","-1","test",3,TRUE,FALSE,4,FALSE,"10"
"Jan 08 2015","21:22:35",1,"Live","No-socialFirst","Three",4,"Chrome",0,"Switch",1,"squirrel",0,"",0,4762,"up-left-4sec","0","example",3,TRUE,FALSE,4,TRUE,"11"
"Jan 08 2015","21:22:35",2,"Live","No-socialFirst","Three",4,"Chrome",0,"Switch",1,"squirrel",0,"",0,1169,"up-left-4sec","0","example",3,TRUE,FALSE,4,TRUE,"11"
"Jan 08 2015","21:22:35",3,"Live","No-socialFirst","Three",4,"Chrome",0,"Switch",1,"tomato",1,"",0,988,"up-right-4sec","1","example",3,TRUE,FALSE,4,TRUE,"11"
"Jan 08 2015","21:22:35",4,"Live","No-socialFirst","Three",4,"Chrome",0,"Switch",1,"tomato",2,"",0,572,"down-left-4sec","2","example",3,TRUE,FALSE,4,TRUE,"11"
"Jan 08 2015","21:22:35",5,"Live","No-socialFirst","Three",4,"Chrome",0,"Switch",1,"Novel120",1,"Novel63",0,4218,"straight-ahead","-1","exposure",3,TRUE,FALSE,4,FALSE,"11"
"Jan 08 2015","21:22:35",6,"Live","No-socialFirst","Three",4,"Chrome",1,"Same",0,"Novel131",3,"Novel131",3,4276,"straight-ahead","-1","exposure",3,TRUE,FALSE,4,FALSE,"11"
"Jan 08 2015","21:22:35",7,"Live","No-socialFirst","Three",4,"Chrome",2,"Switch",0,"Novel18",0,"Novel102",2,5100,"straight-ahead","-1","exposure",3,TRUE,FALSE,4,FALSE,"11"
"Jan 08 2015","21:22:35",8,"Live","No-socialFirst","Three",4,"Chrome",3,"Same",0,"Novel24",2,"Novel24",2,4278,"straight-ahead","-1","exposure",3,TRUE,FALSE,4,FALSE,"11"
"Jan 08 2015","21:22:35",9,"Live","No-socialFirst","Three",4,"Chrome",0,"Switch",1,"Novel63",0,"Novel63",0,3165,"straight-ahead","-1","test",3,TRUE,TRUE,4,TRUE,"11"
"Jan 08 2015","21:22:35",10,"Live","No-socialFirst","Three",4,"Chrome",1,"Same",0,"Novel131",1,"Novel131",3,2455,"straight-ahead","-1","test",3,TRUE,FALSE,4,TRUE,"11"
"Jan 08 2015","21:22:35",11,"Live","No-socialFirst","Three",4,"Chrome",2,"Switch",0,"Novel102",3,"Novel102",2,2045,"straight-ahead","-1","test",3,TRUE,FALSE,4,TRUE,"11"
"Jan 08 2015","21:22:35",12,"Live","No-socialFirst","Three",4,"Chrome",3,"Same",0,"Novel24",0,"Novel24",2,4220,"straight-ahead","-1","test",3,TRUE,FALSE,4,TRUE,"11"
"Jan 08 2015","21:22:35",13,"Live","No-socialFirst","Three",4,"Chrome",4,"Switch",0,"Novel2",1,"Novel39",0,1263,"straight-ahead","-1","exposure",3,TRUE,FALSE,4,FALSE,"11"
"Jan 08 2015","21:22:35",14,"Live","No-socialFirst","Three",4,"Chrome",5,"Same",1,"Novel42",2,"Novel42",2,3226,"straight-ahead","-1","exposure",3,TRUE,FALSE,4,FALSE,"11"
"Jan 08 2015","21:22:35",15,"Live","No-socialFirst","Three",4,"Chrome",6,"Switch",1,"Novel88",2,"Novel129",1,4582,"straight-ahead","-1","exposure",3,TRUE,FALSE,4,FALSE,"11"
"Jan 08 2015","21:22:35",16,"Live","No-socialFirst","Three",4,"Chrome",7,"Same",1,"Novel34",0,"Novel34",0,1730,"straight-ahead","-1","exposure",3,TRUE,FALSE,4,FALSE,"11"
"Jan 08 2015","21:22:35",17,"Live","No-socialFirst","Three",4,"Chrome",4,"Switch",0,"Novel103",1,"Novel39",0,2055,"straight-ahead","-1","test",3,TRUE,FALSE,4,FALSE,"11"
"Jan 08 2015","21:22:35",18,"Live","No-socialFirst","Three",4,"Chrome",5,"Same",1,"Novel42",2,"Novel42",2,660,"straight-ahead","-1","test",3,TRUE,FALSE,4,TRUE,"11"
"Jan 08 2015","21:22:35",19,"Live","No-socialFirst","Three",4,"Chrome",6,"Switch",1,"Novel129",1,"Novel129",1,2835,"straight-ahead","-1","test",3,TRUE,FALSE,4,TRUE,"11"
"Jan 08 2015","21:22:35",20,"Live","No-socialFirst","Three",4,"Chrome",7,"Same",1,"Novel34",0,"Novel34",0,1886,"straight-ahead","-1","test",3,TRUE,FALSE,4,TRUE,"11"
"Jan 08 2015","21:22:35",21,"Live","No-socialFirst","Three",4,"Chrome",8,"Switch",1,"Novel11",0,"Novel59",1,4624,"up-right-4sec","1","exposure",3,TRUE,FALSE,4,FALSE,"11"
"Jan 08 2015","21:22:35",22,"Live","No-socialFirst","Three",4,"Chrome",9,"Same",0,"Novel6",3,"Novel6",3,1553,"up-left-4sec","0","exposure",3,TRUE,FALSE,4,FALSE,"11"
"Jan 08 2015","21:22:35",23,"Live","No-socialFirst","Three",4,"Chrome",10,"Switch",0,"Novel31",0,"Novel134",3,4690,"down-left-4sec","2","exposure",3,TRUE,FALSE,4,FALSE,"11"
"Jan 08 2015","21:22:35",24,"Live","No-socialFirst","Three",4,"Chrome",11,"Same",0,"Novel93",3,"Novel93",3,1520,"down-left-4sec","2","exposure",3,TRUE,FALSE,4,FALSE,"11"
"Jan 08 2015","21:22:35",25,"Live","No-socialFirst","Three",4,"Chrome",8,"Switch",1,"Novel59",1,"Novel59",1,858,"straight-ahead","-1","test",3,TRUE,FALSE,4,TRUE,"11"
"Jan 08 2015","21:22:35",26,"Live","No-socialFirst","Three",4,"Chrome",9,"Same",0,"Novel44",0,"Novel6",3,553,"straight-ahead","-1","test",3,TRUE,FALSE,4,FALSE,"11"
"Jan 08 2015","21:22:35",27,"Live","No-socialFirst","Three",4,"Chrome",10,"Switch",0,"Novel134",2,"Novel134",3,1139,"straight-ahead","-1","test",3,TRUE,FALSE,4,TRUE,"11"
"Jan 08 2015","21:22:35",28,"Live","No-socialFirst","Three",4,"Chrome",11,"Same",0,"Novel93",0,"Novel93",3,1174,"straight-ahead","-1","test",3,TRUE,FALSE,4,TRUE,"11"
"Jan 08 2015","21:22:35",29,"Live","No-socialFirst","Three",4,"Chrome",12,"Switch",0,"Novel107",3,"Novel137",1,808,"up-left-4sec","0","exposure",3,TRUE,FALSE,4,FALSE,"11"
"Jan 08 2015","21:22:35",30,"Live","No-socialFirst","Three",4,"Chrome",13,"Same",1,"Novel60",1,"Novel60",1,1720,"up-left-4sec","0","exposure",3,TRUE,FALSE,4,FALSE,"11"
"Jan 08 2015","21:22:35",31,"Live","No-socialFirst","Three",4,"Chrome",14,"Switch",1,"Novel96",0,"Novel10",2,1793,"down-left-4sec","2","exposure",3,TRUE,FALSE,4,FALSE,"11"
"Jan 08 2015","21:22:35",32,"Live","No-socialFirst","Three",4,"Chrome",15,"Same",1,"Novel90",1,"Novel90",1,2181,"up-left-4sec","0","exposure",3,TRUE,FALSE,4,FALSE,"11"
"Jan 08 2015","21:22:35",33,"Live","No-socialFirst","Three",4,"Chrome",12,"Switch",0,"Novel123",1,"Novel137",1,560,"straight-ahead","-1","test",3,TRUE,FALSE,4,FALSE,"11"
"Jan 08 2015","21:22:35",34,"Live","No-socialFirst","Three",4,"Chrome",13,"Same",1,"Novel122",3,"Novel60",1,572,"straight-ahead","-1","test",3,TRUE,FALSE,4,FALSE,"11"
"Jan 08 2015","21:22:35",35,"Live","No-socialFirst","Three",4,"Chrome",14,"Switch",1,"Novel17",3,"Novel10",2,602,"straight-ahead","-1","test",3,TRUE,FALSE,4,FALSE,"11"
"Jan 08 2015","21:22:35",36,"Live","No-socialFirst","Three",4,"Chrome",15,"Same",1,"Novel90",1,"Novel90",1,1018,"straight-ahead","-1","test",3,TRUE,FALSE,4,TRUE,"11"
"Jan 08 2015","19:07:33",1,"Live","SocialFirst","Three",4,"Chrome",0,"Same",0,"squirrel",0,"",0,2411,"up-left-4sec","0","example",3,TRUE,FALSE,4,TRUE,"12"
"Jan 08 2015","19:07:33",2,"Live","SocialFirst","Three",4,"Chrome",0,"Same",0,"squirrel",0,"",0,2080,"up-left-4sec","0","example",3,TRUE,FALSE,4,TRUE,"12"
"Jan 08 2015","19:07:33",3,"Live","SocialFirst","Three",4,"Chrome",0,"Same",0,"tomato",1,"",0,1174,"up-right-4sec","1","example",3,TRUE,FALSE,4,TRUE,"12"
"Jan 08 2015","19:07:33",4,"Live","SocialFirst","Three",4,"Chrome",0,"Same",0,"tomato",2,"",0,1674,"down-left-4sec","2","example",3,TRUE,FALSE,4,TRUE,"12"
"Jan 08 2015","19:07:33",5,"Live","SocialFirst","Three",4,"Chrome",0,"Same",0,"Novel17",2,"Novel17",2,3292,"down-left-4sec","2","exposure",3,TRUE,FALSE,4,TRUE,"12"
"Jan 08 2015","19:07:33",6,"Live","SocialFirst","Three",4,"Chrome",1,"Switch",0,"Novel70",1,"Novel104",2,1666,"up-right-4sec","1","exposure",3,TRUE,FALSE,4,TRUE,"12"
"Jan 08 2015","19:07:33",7,"Live","SocialFirst","Three",4,"Chrome",2,"Same",1,"Novel14",2,"Novel14",2,2305,"down-left-4sec","2","exposure",3,TRUE,FALSE,4,TRUE,"12"
"Jan 08 2015","19:07:33",8,"Live","SocialFirst","Three",4,"Chrome",3,"Switch",1,"Novel79",1,"Novel2",0,1773,"up-right-4sec","1","exposure",3,TRUE,FALSE,4,TRUE,"12"
"Jan 08 2015","19:07:33",9,"Live","SocialFirst","Three",4,"Chrome",0,"Same",0,"Novel17",3,"Novel17",2,1509,"straight-ahead","-1","test",3,TRUE,TRUE,4,TRUE,"12"
"Jan 08 2015","19:07:33",10,"Live","SocialFirst","Three",4,"Chrome",1,"Switch",0,"Novel104",3,"Novel104",2,1677,"straight-ahead","-1","test",3,TRUE,FALSE,4,TRUE,"12"
"Jan 08 2015","19:07:33",11,"Live","SocialFirst","Three",4,"Chrome",2,"Same",1,"Novel14",2,"Novel14",2,1796,"straight-ahead","-1","test",3,TRUE,FALSE,4,TRUE,"12"
"Jan 08 2015","19:07:33",12,"Live","SocialFirst","Three",4,"Chrome",3,"Switch",1,"Novel7",2,"Novel2",0,2785,"straight-ahead","-1","test",3,TRUE,FALSE,4,FALSE,"12"
"Jan 08 2015","19:07:33",13,"Live","SocialFirst","Three",4,"Chrome",4,"Same",1,"Novel83",1,"Novel83",1,1741,"up-right-4sec","1","exposure",3,TRUE,FALSE,4,TRUE,"12"
"Jan 08 2015","19:07:33",14,"Live","SocialFirst","Three",4,"Chrome",5,"Switch",1,"Novel126",0,"Novel23",1,1941,"up-left-4sec","0","exposure",3,TRUE,FALSE,4,TRUE,"12"
"Jan 08 2015","19:07:33",15,"Live","SocialFirst","Three",4,"Chrome",6,"Same",0,"Novel26",1,"Novel26",1,2343,"up-right-4sec","1","exposure",3,TRUE,FALSE,4,TRUE,"12"
"Jan 08 2015","19:07:33",16,"Live","SocialFirst","Three",4,"Chrome",7,"Switch",0,"Novel50",3,"Novel29",0,2824,"down-right-4sec","3","exposure",3,TRUE,FALSE,4,TRUE,"12"
"Jan 08 2015","19:07:33",17,"Live","SocialFirst","Three",4,"Chrome",4,"Same",1,"Novel27",0,"Novel83",1,677,"straight-ahead","-1","test",3,TRUE,FALSE,4,FALSE,"12"
"Jan 08 2015","19:07:33",18,"Live","SocialFirst","Three",4,"Chrome",5,"Switch",1,"Novel23",1,"Novel23",1,592,"straight-ahead","-1","test",3,TRUE,FALSE,4,TRUE,"12"
"Jan 08 2015","19:07:33",19,"Live","SocialFirst","Three",4,"Chrome",6,"Same",0,"Novel114",3,"Novel26",1,3485,"straight-ahead","-1","test",3,TRUE,FALSE,4,FALSE,"12"
"Jan 08 2015","19:07:33",20,"Live","SocialFirst","Three",4,"Chrome",7,"Switch",0,"Novel24",0,"Novel29",0,803,"straight-ahead","-1","test",3,TRUE,FALSE,4,FALSE,"12"
"Jan 08 2015","19:07:33",21,"Live","SocialFirst","Three",4,"Chrome",8,"Same",0,"Novel10",1,"Novel10",1,6728,"straight-ahead","-1","exposure",3,TRUE,FALSE,4,FALSE,"12"
"Jan 08 2015","19:07:33",22,"Live","SocialFirst","Three",4,"Chrome",9,"Switch",0,"Novel111",0,"Novel87",2,3013,"straight-ahead","-1","exposure",3,TRUE,FALSE,4,FALSE,"12"
"Jan 08 2015","19:07:33",23,"Live","SocialFirst","Three",4,"Chrome",10,"Same",1,"Novel63",2,"Novel63",2,1193,"straight-ahead","-1","exposure",3,TRUE,FALSE,4,FALSE,"12"
"Jan 08 2015","19:07:33",24,"Live","SocialFirst","Three",4,"Chrome",11,"Switch",1,"Novel45",3,"Novel81",1,1215,"straight-ahead","-1","exposure",3,TRUE,FALSE,4,FALSE,"12"
"Jan 08 2015","19:07:33",25,"Live","SocialFirst","Three",4,"Chrome",8,"Same",0,"Novel10",3,"Novel10",1,4330,"straight-ahead","-1","test",3,TRUE,FALSE,4,TRUE,"12"
"Jan 08 2015","19:07:33",26,"Live","SocialFirst","Three",4,"Chrome",9,"Switch",0,"Novel87",3,"Novel87",2,2439,"straight-ahead","-1","test",3,TRUE,FALSE,4,TRUE,"12"
"Jan 08 2015","19:07:33",27,"Live","SocialFirst","Three",4,"Chrome",10,"Same",1,"Novel63",2,"Novel63",2,2093,"straight-ahead","-1","test",3,TRUE,FALSE,4,TRUE,"12"
"Jan 08 2015","19:07:33",28,"Live","SocialFirst","Three",4,"Chrome",11,"Switch",1,"Novel81",1,"Novel81",1,838,"straight-ahead","-1","test",3,TRUE,FALSE,4,TRUE,"12"
"Jan 08 2015","19:07:33",29,"Live","SocialFirst","Three",4,"Chrome",12,"Same",1,"Novel42",0,"Novel42",0,4261,"straight-ahead","-1","exposure",3,TRUE,FALSE,4,FALSE,"12"
"Jan 08 2015","19:07:33",30,"Live","SocialFirst","Three",4,"Chrome",13,"Switch",1,"Novel86",0,"Novel62",1,4372,"straight-ahead","-1","exposure",3,TRUE,FALSE,4,FALSE,"12"
"Jan 08 2015","19:07:33",31,"Live","SocialFirst","Three",4,"Chrome",14,"Same",0,"Novel129",3,"Novel129",3,4135,"straight-ahead","-1","exposure",3,TRUE,FALSE,4,FALSE,"12"
"Jan 08 2015","19:07:33",32,"Live","SocialFirst","Three",4,"Chrome",15,"Switch",0,"Novel15",0,"Novel3",2,1561,"straight-ahead","-1","exposure",3,TRUE,FALSE,4,FALSE,"12"
"Jan 08 2015","19:07:33",33,"Live","SocialFirst","Three",4,"Chrome",12,"Same",1,"Novel42",0,"Novel42",0,2545,"straight-ahead","-1","test",3,TRUE,FALSE,4,TRUE,"12"
"Jan 08 2015","19:07:33",34,"Live","SocialFirst","Three",4,"Chrome",13,"Switch",1,"Novel38",0,"Novel62",1,7041,"straight-ahead","-1","test",3,TRUE,FALSE,4,FALSE,"12"
"Jan 08 2015","19:07:33",35,"Live","SocialFirst","Three",4,"Chrome",14,"Same",0,"Novel129",1,"Novel129",3,570,"straight-ahead","-1","test",3,TRUE,FALSE,4,TRUE,"12"
"Jan 08 2015","19:07:33",36,"Live","SocialFirst","Three",4,"Chrome",15,"Switch",0,"Novel127",2,"Novel3",2,1165,"straight-ahead","-1","test",3,TRUE,FALSE,4,FALSE,"12"
"Jan 09 2015","00:15:41",1,"Live","SocialFirst","Three",4,"Chrome",0,"Same",1,"squirrel",0,"",0,8900,"up-left-4sec","0","example",3,TRUE,FALSE,4,TRUE,"13"
"Jan 09 2015","00:15:41",2,"Live","SocialFirst","Three",4,"Chrome",0,"Same",1,"squirrel",0,"",0,2147,"up-left-4sec","0","example",3,TRUE,FALSE,4,TRUE,"13"
"Jan 09 2015","00:15:41",3,"Live","SocialFirst","Three",4,"Chrome",0,"Same",1,"tomato",1,"",0,2323,"up-right-4sec","1","example",3,TRUE,FALSE,4,TRUE,"13"
"Jan 09 2015","00:15:41",4,"Live","SocialFirst","Three",4,"Chrome",0,"Same",1,"tomato",2,"",0,593,"down-left-4sec","2","example",3,TRUE,FALSE,4,TRUE,"13"
"Jan 09 2015","00:15:41",5,"Live","SocialFirst","Three",4,"Chrome",0,"Same",1,"Novel110",3,"Novel110",3,790,"down-right-4sec","3","exposure",3,TRUE,FALSE,4,TRUE,"13"
"Jan 09 2015","00:15:41",6,"Live","SocialFirst","Three",4,"Chrome",1,"Switch",1,"Novel119",2,"Novel102",1,890,"down-left-4sec","2","exposure",3,TRUE,FALSE,4,TRUE,"13"
"Jan 09 2015","00:15:41",7,"Live","SocialFirst","Three",4,"Chrome",2,"Same",0,"Novel116",2,"Novel116",2,535,"down-left-4sec","2","exposure",3,TRUE,FALSE,4,TRUE,"13"
"Jan 09 2015","00:15:41",8,"Live","SocialFirst","Three",4,"Chrome",3,"Switch",1,"Novel61",1,"Novel117",2,1414,"up-right-4sec","1","exposure",3,TRUE,FALSE,4,TRUE,"13"
"Jan 09 2015","00:15:41",9,"Live","SocialFirst","Three",4,"Chrome",0,"Same",1,"Novel110",3,"Novel110",3,2918,"straight-ahead","-1","test",3,TRUE,TRUE,4,TRUE,"13"
"Jan 09 2015","00:15:41",10,"Live","SocialFirst","Three",4,"Chrome",1,"Switch",1,"Novel76",0,"Novel102",1,1581,"straight-ahead","-1","test",3,TRUE,FALSE,4,FALSE,"13"
"Jan 09 2015","00:15:41",11,"Live","SocialFirst","Three",4,"Chrome",2,"Same",0,"Novel116",0,"Novel116",2,414,"straight-ahead","-1","test",3,TRUE,FALSE,4,TRUE,"13"
"Jan 09 2015","00:15:41",12,"Live","SocialFirst","Three",4,"Chrome",3,"Switch",1,"Novel117",2,"Novel117",2,801,"straight-ahead","-1","test",3,TRUE,FALSE,4,TRUE,"13"
"Jan 09 2015","00:15:41",13,"Live","SocialFirst","Three",4,"Chrome",4,"Same",1,"Novel77",0,"Novel77",0,1788,"up-left-4sec","0","exposure",3,TRUE,FALSE,4,TRUE,"13"
"Jan 09 2015","00:15:41",14,"Live","SocialFirst","Three",4,"Chrome",5,"Switch",0,"Novel67",2,"Novel134",3,1427,"down-left-4sec","2","exposure",3,TRUE,FALSE,4,TRUE,"13"
"Jan 09 2015","00:15:41",15,"Live","SocialFirst","Three",4,"Chrome",6,"Same",0,"Novel24",0,"Novel24",0,867,"up-left-4sec","0","exposure",3,TRUE,FALSE,4,TRUE,"13"
"Jan 09 2015","00:15:41",16,"Live","SocialFirst","Three",4,"Chrome",7,"Switch",0,"Novel21",0,"Novel30",3,1181,"up-left-4sec","0","exposure",3,TRUE,FALSE,4,TRUE,"13"
"Jan 09 2015","00:15:41",17,"Live","SocialFirst","Three",4,"Chrome",4,"Same",1,"Novel77",0,"Novel77",0,987,"straight-ahead","-1","test",3,TRUE,FALSE,4,TRUE,"13"
"Jan 09 2015","00:15:41",18,"Live","SocialFirst","Three",4,"Chrome",5,"Switch",0,"Novel28",3,"Novel134",3,63606,"straight-ahead","-1","test",3,TRUE,FALSE,4,FALSE,"13"
"Jan 09 2015","00:15:41",19,"Live","SocialFirst","Three",4,"Chrome",6,"Same",0,"Novel24",1,"Novel24",0,2737,"straight-ahead","-1","test",3,TRUE,FALSE,4,TRUE,"13"
"Jan 09 2015","00:15:41",20,"Live","SocialFirst","Three",4,"Chrome",7,"Switch",0,"Novel30",0,"Novel30",3,24318,"straight-ahead","-1","test",3,TRUE,FALSE,4,TRUE,"13"
"Jan 09 2015","00:15:41",21,"Live","SocialFirst","Three",4,"Chrome",8,"Same",1,"Novel130",0,"Novel130",0,3112,"straight-ahead","-1","exposure",3,TRUE,FALSE,4,FALSE,"13"
"Jan 09 2015","00:15:41",22,"Live","SocialFirst","Three",4,"Chrome",9,"Switch",1,"Novel71",2,"Novel12",3,2477,"straight-ahead","-1","exposure",3,TRUE,FALSE,4,FALSE,"13"
"Jan 09 2015","00:15:41",23,"Live","SocialFirst","Three",4,"Chrome",10,"Same",0,"Novel103",1,"Novel103",1,3630,"straight-ahead","-1","exposure",3,TRUE,FALSE,4,FALSE,"13"
"Jan 09 2015","00:15:41",24,"Live","SocialFirst","Three",4,"Chrome",11,"Switch",1,"Novel72",3,"Novel85",2,2928,"straight-ahead","-1","exposure",3,TRUE,FALSE,4,FALSE,"13"
"Jan 09 2015","00:15:41",25,"Live","SocialFirst","Three",4,"Chrome",8,"Same",1,"Novel130",0,"Novel130",0,1644,"straight-ahead","-1","test",3,TRUE,FALSE,4,TRUE,"13"
"Jan 09 2015","00:15:41",26,"Live","SocialFirst","Three",4,"Chrome",9,"Switch",1,"Novel12",3,"Novel12",3,1753,"straight-ahead","-1","test",3,TRUE,FALSE,4,TRUE,"13"
"Jan 09 2015","00:15:41",27,"Live","SocialFirst","Three",4,"Chrome",10,"Same",0,"Novel103",2,"Novel103",1,461,"straight-ahead","-1","test",3,TRUE,FALSE,4,TRUE,"13"
"Jan 09 2015","00:15:41",28,"Live","SocialFirst","Three",4,"Chrome",11,"Switch",1,"Novel85",2,"Novel85",2,1423,"straight-ahead","-1","test",3,TRUE,FALSE,4,TRUE,"13"
"Jan 09 2015","00:15:41",29,"Live","SocialFirst","Three",4,"Chrome",12,"Same",1,"Novel57",2,"Novel57",2,9882,"straight-ahead","-1","exposure",3,TRUE,FALSE,4,FALSE,"13"
"Jan 09 2015","00:15:41",30,"Live","SocialFirst","Three",4,"Chrome",13,"Switch",0,"Novel89",1,"Novel88",3,3127,"straight-ahead","-1","exposure",3,TRUE,FALSE,4,FALSE,"13"
"Jan 09 2015","00:15:41",31,"Live","SocialFirst","Three",4,"Chrome",14,"Same",0,"Novel93",0,"Novel93",0,1123,"straight-ahead","-1","exposure",3,TRUE,FALSE,4,FALSE,"13"
"Jan 09 2015","00:15:41",32,"Live","SocialFirst","Three",4,"Chrome",15,"Switch",0,"Novel13",3,"Novel34",0,2672,"straight-ahead","-1","exposure",3,TRUE,FALSE,4,FALSE,"13"
"Jan 09 2015","00:15:41",33,"Live","SocialFirst","Three",4,"Chrome",12,"Same",1,"Novel57",2,"Novel57",2,1035,"straight-ahead","-1","test",3,TRUE,FALSE,4,TRUE,"13"
"Jan 09 2015","00:15:41",34,"Live","SocialFirst","Three",4,"Chrome",13,"Switch",0,"Novel88",2,"Novel88",3,1051,"straight-ahead","-1","test",3,TRUE,FALSE,4,TRUE,"13"
"Jan 09 2015","00:15:41",35,"Live","SocialFirst","Three",4,"Chrome",14,"Same",0,"Novel97",1,"Novel93",0,552,"straight-ahead","-1","test",3,TRUE,FALSE,4,FALSE,"13"
"Jan 09 2015","00:15:41",36,"Live","SocialFirst","Three",4,"Chrome",15,"Switch",0,"Novel34",2,"Novel34",0,467,"straight-ahead","-1","test",3,TRUE,FALSE,4,TRUE,"13"
"Jan 08 2015","21:27:42",1,"Live","No-socialFirst","Three",4,"Explorer",0,"Same",0,"squirrel",0,"",0,1083,"up-left-4sec","0","example",3,TRUE,FALSE,4,TRUE,"14"
"Jan 08 2015","21:27:42",2,"Live","No-socialFirst","Three",4,"Explorer",0,"Same",0,"squirrel",0,"",0,1103,"up-left-4sec","0","example",3,TRUE,FALSE,4,TRUE,"14"
"Jan 08 2015","21:27:42",3,"Live","No-socialFirst","Three",4,"Explorer",0,"Same",0,"tomato",1,"",0,1536,"up-right-4sec","1","example",3,TRUE,FALSE,4,TRUE,"14"
"Jan 08 2015","21:27:42",4,"Live","No-socialFirst","Three",4,"Explorer",0,"Same",0,"tomato",2,"",0,1460,"down-left-4sec","2","example",3,TRUE,FALSE,4,TRUE,"14"
"Jan 08 2015","21:27:42",5,"Live","No-socialFirst","Three",4,"Explorer",0,"Same",0,"Novel80",3,"Novel80",3,3456,"straight-ahead","-1","exposure",3,TRUE,FALSE,4,FALSE,"14"
"Jan 08 2015","21:27:42",6,"Live","No-socialFirst","Three",4,"Explorer",1,"Switch",0,"Novel44",0,"Novel129",3,4730,"straight-ahead","-1","exposure",3,TRUE,FALSE,4,FALSE,"14"
"Jan 08 2015","21:27:42",7,"Live","No-socialFirst","Three",4,"Explorer",2,"Same",1,"Novel77",2,"Novel77",2,1652,"straight-ahead","-1","exposure",3,TRUE,FALSE,4,FALSE,"14"
"Jan 08 2015","21:27:42",8,"Live","No-socialFirst","Three",4,"Explorer",3,"Switch",0,"Novel40",3,"Novel107",1,1130,"straight-ahead","-1","exposure",3,TRUE,FALSE,4,FALSE,"14"
"Jan 08 2015","21:27:42",9,"Live","No-socialFirst","Three",4,"Explorer",0,"Same",0,"Novel80",1,"Novel80",3,1269,"straight-ahead","-1","test",3,TRUE,TRUE,4,TRUE,"14"
"Jan 08 2015","21:27:42",10,"Live","No-socialFirst","Three",4,"Explorer",1,"Switch",0,"Novel129",1,"Novel129",3,2479,"straight-ahead","-1","test",3,TRUE,FALSE,4,TRUE,"14"
"Jan 08 2015","21:27:42",11,"Live","No-socialFirst","Three",4,"Explorer",2,"Same",1,"Novel77",2,"Novel77",2,674,"straight-ahead","-1","test",3,TRUE,FALSE,4,TRUE,"14"
"Jan 08 2015","21:27:42",12,"Live","No-socialFirst","Three",4,"Explorer",3,"Switch",0,"Novel100",1,"Novel107",1,4282,"straight-ahead","-1","test",3,TRUE,FALSE,4,FALSE,"14"
"Jan 08 2015","21:27:42",13,"Live","No-socialFirst","Three",4,"Explorer",4,"Same",0,"Novel24",1,"Novel24",1,2919,"straight-ahead","-1","exposure",3,TRUE,FALSE,4,FALSE,"14"
"Jan 08 2015","21:27:42",14,"Live","No-socialFirst","Three",4,"Explorer",5,"Switch",1,"Novel88",0,"Novel22",3,2115,"straight-ahead","-1","exposure",3,TRUE,FALSE,4,FALSE,"14"
"Jan 08 2015","21:27:42",15,"Live","No-socialFirst","Three",4,"Explorer",6,"Same",1,"Novel76",1,"Novel76",1,2299,"straight-ahead","-1","exposure",3,TRUE,FALSE,4,FALSE,"14"
"Jan 08 2015","21:27:42",16,"Live","No-socialFirst","Three",4,"Explorer",7,"Switch",1,"Novel122",1,"Novel54",3,3192,"straight-ahead","-1","exposure",3,TRUE,FALSE,4,FALSE,"14"
"Jan 08 2015","21:27:42",17,"Live","No-socialFirst","Three",4,"Explorer",4,"Same",0,"Novel24",3,"Novel24",1,667,"straight-ahead","-1","test",3,TRUE,FALSE,4,TRUE,"14"
"Jan 08 2015","21:27:42",18,"Live","No-socialFirst","Three",4,"Explorer",5,"Switch",1,"Novel22",3,"Novel22",3,1719,"straight-ahead","-1","test",3,TRUE,FALSE,4,TRUE,"14"
"Jan 08 2015","21:27:42",19,"Live","No-socialFirst","Three",4,"Explorer",6,"Same",1,"Novel76",1,"Novel76",1,774,"straight-ahead","-1","test",3,TRUE,FALSE,4,TRUE,"14"
"Jan 08 2015","21:27:42",20,"Live","No-socialFirst","Three",4,"Explorer",7,"Switch",1,"Novel118",0,"Novel54",3,1143,"straight-ahead","-1","test",3,TRUE,FALSE,4,FALSE,"14"
"Jan 08 2015","21:27:42",21,"Live","No-socialFirst","Three",4,"Explorer",8,"Same",0,"Novel32",3,"Novel32",3,4399,"up-right-4sec","1","exposure",3,TRUE,FALSE,4,FALSE,"14"
"Jan 08 2015","21:27:42",22,"Live","No-socialFirst","Three",4,"Explorer",9,"Switch",0,"Novel5",0,"Novel66",3,1997,"up-left-4sec","0","exposure",3,TRUE,FALSE,4,TRUE,"14"
"Jan 08 2015","21:27:42",23,"Live","No-socialFirst","Three",4,"Explorer",10,"Same",1,"Novel95",3,"Novel95",3,2844,"up-right-4sec","1","exposure",3,TRUE,FALSE,4,FALSE,"14"
"Jan 08 2015","21:27:42",24,"Live","No-socialFirst","Three",4,"Explorer",11,"Switch",0,"Novel127",2,"Novel111",0,1657,"up-left-4sec","0","exposure",3,TRUE,FALSE,4,FALSE,"14"
"Jan 08 2015","21:27:42",25,"Live","No-socialFirst","Three",4,"Explorer",8,"Same",0,"Novel32",0,"Novel32",3,781,"straight-ahead","-1","test",3,TRUE,FALSE,4,TRUE,"14"
"Jan 08 2015","21:27:42",26,"Live","No-socialFirst","Three",4,"Explorer",9,"Switch",0,"Novel49",3,"Novel66",3,2819,"straight-ahead","-1","test",3,TRUE,FALSE,4,FALSE,"14"
"Jan 08 2015","21:27:42",27,"Live","No-socialFirst","Three",4,"Explorer",10,"Same",1,"Novel95",3,"Novel95",3,428,"straight-ahead","-1","test",3,TRUE,FALSE,4,TRUE,"14"
"Jan 08 2015","21:27:42",28,"Live","No-socialFirst","Three",4,"Explorer",11,"Switch",0,"Novel72",2,"Novel111",0,1305,"straight-ahead","-1","test",3,TRUE,FALSE,4,FALSE,"14"
"Jan 08 2015","21:27:42",29,"Live","No-socialFirst","Three",4,"Explorer",12,"Same",0,"Novel131",2,"Novel131",2,3116,"up-right-4sec","1","exposure",3,TRUE,FALSE,4,FALSE,"14"
"Jan 08 2015","21:27:42",30,"Live","No-socialFirst","Three",4,"Explorer",13,"Switch",1,"Novel130",0,"Novel38",3,1482,"down-left-4sec","2","exposure",3,TRUE,FALSE,4,FALSE,"14"
"Jan 08 2015","21:27:42",31,"Live","No-socialFirst","Three",4,"Explorer",14,"Same",1,"Novel74",1,"Novel74",1,1854,"down-left-4sec","2","exposure",3,TRUE,FALSE,4,FALSE,"14"
"Jan 08 2015","21:27:42",32,"Live","No-socialFirst","Three",4,"Explorer",15,"Switch",1,"Novel75",3,"Novel137",2,2492,"up-left-4sec","0","exposure",3,TRUE,FALSE,4,FALSE,"14"
"Jan 08 2015","21:27:42",33,"Live","No-socialFirst","Three",4,"Explorer",12,"Same",0,"Novel131",0,"Novel131",2,4361,"straight-ahead","-1","test",3,TRUE,FALSE,4,TRUE,"14"
"Jan 08 2015","21:27:42",34,"Live","No-socialFirst","Three",4,"Explorer",13,"Switch",1,"Novel45",1,"Novel38",3,1523,"straight-ahead","-1","test",3,TRUE,FALSE,4,FALSE,"14"
"Jan 08 2015","21:27:42",35,"Live","No-socialFirst","Three",4,"Explorer",14,"Same",1,"Novel74",1,"Novel74",1,3590,"straight-ahead","-1","test",3,TRUE,FALSE,4,TRUE,"14"
"Jan 08 2015","21:27:42",36,"Live","No-socialFirst","Three",4,"Explorer",15,"Switch",1,"Novel137",2,"Novel137",2,1563,"straight-ahead","-1","test",3,TRUE,FALSE,4,TRUE,"14"
"Jan 09 2015","08:35:55",1,"Live","No-socialFirst","Three",4,"Chrome",0,"Switch",1,"squirrel",0,"",0,1068,"up-left-4sec","0","example",3,TRUE,FALSE,4,TRUE,"15"
"Jan 09 2015","08:35:55",2,"Live","No-socialFirst","Three",4,"Chrome",0,"Switch",1,"squirrel",0,"",0,699,"up-left-4sec","0","example",3,TRUE,FALSE,4,TRUE,"15"
"Jan 09 2015","08:35:55",3,"Live","No-socialFirst","Three",4,"Chrome",0,"Switch",1,"tomato",1,"",0,1561,"up-right-4sec","1","example",3,TRUE,FALSE,4,TRUE,"15"
"Jan 09 2015","08:35:55",4,"Live","No-socialFirst","Three",4,"Chrome",0,"Switch",1,"tomato",2,"",0,697,"down-left-4sec","2","example",3,TRUE,FALSE,4,TRUE,"15"
"Jan 09 2015","08:35:55",5,"Live","No-socialFirst","Three",4,"Chrome",0,"Switch",1,"Novel8",0,"Novel36",1,2220,"straight-ahead","-1","exposure",3,TRUE,FALSE,4,FALSE,"15"
"Jan 09 2015","08:35:55",6,"Live","No-socialFirst","Three",4,"Chrome",1,"Same",0,"Novel115",1,"Novel115",1,3336,"straight-ahead","-1","exposure",3,TRUE,FALSE,4,FALSE,"15"
"Jan 09 2015","08:35:55",7,"Live","No-socialFirst","Three",4,"Chrome",2,"Switch",0,"Novel14",3,"Novel23",0,1600,"straight-ahead","-1","exposure",3,TRUE,FALSE,4,FALSE,"15"
"Jan 09 2015","08:35:55",8,"Live","No-socialFirst","Three",4,"Chrome",3,"Same",1,"Novel15",2,"Novel15",2,1740,"straight-ahead","-1","exposure",3,TRUE,FALSE,4,FALSE,"15"
"Jan 09 2015","08:35:55",9,"Live","No-socialFirst","Three",4,"Chrome",0,"Switch",1,"Novel41",0,"Novel36",1,2304,"straight-ahead","-1","test",3,TRUE,TRUE,4,FALSE,"15"
"Jan 09 2015","08:35:55",10,"Live","No-socialFirst","Three",4,"Chrome",1,"Same",0,"Novel27",1,"Novel115",1,2282,"straight-ahead","-1","test",3,TRUE,FALSE,4,FALSE,"15"
"Jan 09 2015","08:35:55",11,"Live","No-socialFirst","Three",4,"Chrome",2,"Switch",0,"Novel23",2,"Novel23",0,1755,"straight-ahead","-1","test",3,TRUE,FALSE,4,TRUE,"15"
"Jan 09 2015","08:35:55",12,"Live","No-socialFirst","Three",4,"Chrome",3,"Same",1,"Novel15",2,"Novel15",2,398,"straight-ahead","-1","test",3,TRUE,FALSE,4,TRUE,"15"
"Jan 09 2015","08:35:55",13,"Live","No-socialFirst","Three",4,"Chrome",4,"Switch",0,"Novel53",0,"Novel76",1,1106,"straight-ahead","-1","exposure",3,TRUE,FALSE,4,FALSE,"15"
"Jan 09 2015","08:35:55",14,"Live","No-socialFirst","Three",4,"Chrome",5,"Same",0,"Novel59",3,"Novel59",3,995,"straight-ahead","-1","exposure",3,TRUE,FALSE,4,FALSE,"15"
"Jan 09 2015","08:35:55",15,"Live","No-socialFirst","Three",4,"Chrome",6,"Switch",1,"Novel70",3,"Novel69",2,686,"straight-ahead","-1","exposure",3,TRUE,FALSE,4,FALSE,"15"
"Jan 09 2015","08:35:55",16,"Live","No-socialFirst","Three",4,"Chrome",7,"Same",1,"Novel124",1,"Novel124",1,1049,"straight-ahead","-1","exposure",3,TRUE,FALSE,4,FALSE,"15"
"Jan 09 2015","08:35:55",17,"Live","No-socialFirst","Three",4,"Chrome",4,"Switch",0,"Novel68",0,"Novel76",1,2182,"straight-ahead","-1","test",3,TRUE,FALSE,4,FALSE,"15"
"Jan 09 2015","08:35:55",18,"Live","No-socialFirst","Three",4,"Chrome",5,"Same",0,"Novel59",1,"Novel59",3,955,"straight-ahead","-1","test",3,TRUE,FALSE,4,TRUE,"15"
"Jan 09 2015","08:35:55",19,"Live","No-socialFirst","Three",4,"Chrome",6,"Switch",1,"Novel133",0,"Novel69",2,1345,"straight-ahead","-1","test",3,TRUE,FALSE,4,FALSE,"15"
"Jan 09 2015","08:35:55",20,"Live","No-socialFirst","Three",4,"Chrome",7,"Same",1,"Novel124",1,"Novel124",1,838,"straight-ahead","-1","test",3,TRUE,FALSE,4,TRUE,"15"
"Jan 09 2015","08:35:55",21,"Live","No-socialFirst","Three",4,"Chrome",8,"Switch",1,"Novel125",2,"Novel130",0,1028,"down-left-4sec","2","exposure",3,TRUE,FALSE,4,TRUE,"15"
"Jan 09 2015","08:35:55",22,"Live","No-socialFirst","Three",4,"Chrome",9,"Same",0,"Novel99",0,"Novel99",0,1080,"up-left-4sec","0","exposure",3,TRUE,FALSE,4,TRUE,"15"
"Jan 09 2015","08:35:55",23,"Live","No-socialFirst","Three",4,"Chrome",10,"Switch",0,"Novel137",0,"Novel126",1,1078,"up-left-4sec","0","exposure",3,TRUE,FALSE,4,TRUE,"15"
"Jan 09 2015","08:35:55",24,"Live","No-socialFirst","Three",4,"Chrome",11,"Same",1,"Novel140",3,"Novel140",3,1598,"down-right-4sec","3","exposure",3,TRUE,FALSE,4,TRUE,"15"
"Jan 09 2015","08:35:55",25,"Live","No-socialFirst","Three",4,"Chrome",8,"Switch",1,"Novel130",0,"Novel130",0,2289,"straight-ahead","-1","test",3,TRUE,FALSE,4,TRUE,"15"
"Jan 09 2015","08:35:55",26,"Live","No-socialFirst","Three",4,"Chrome",9,"Same",0,"Novel99",2,"Novel99",0,1025,"straight-ahead","-1","test",3,TRUE,FALSE,4,TRUE,"15"
"Jan 09 2015","08:35:55",27,"Live","No-socialFirst","Three",4,"Chrome",10,"Switch",0,"Novel39",1,"Novel126",1,1417,"straight-ahead","-1","test",3,TRUE,FALSE,4,FALSE,"15"
"Jan 09 2015","08:35:55",28,"Live","No-socialFirst","Three",4,"Chrome",11,"Same",1,"Novel140",3,"Novel140",3,500,"straight-ahead","-1","test",3,TRUE,FALSE,4,TRUE,"15"
"Jan 09 2015","08:35:55",29,"Live","No-socialFirst","Three",4,"Chrome",12,"Switch",0,"Novel112",1,"Novel96",2,665,"up-right-4sec","1","exposure",3,TRUE,FALSE,4,TRUE,"15"
"Jan 09 2015","08:35:55",30,"Live","No-socialFirst","Three",4,"Chrome",13,"Same",0,"Novel113",0,"Novel113",0,404,"up-left-4sec","0","exposure",3,TRUE,FALSE,4,TRUE,"15"
"Jan 09 2015","08:35:55",31,"Live","No-socialFirst","Three",4,"Chrome",14,"Switch",1,"Novel12",0,"Novel119",2,453,"up-left-4sec","0","exposure",3,TRUE,FALSE,4,TRUE,"15"
"Jan 09 2015","08:35:55",32,"Live","No-socialFirst","Three",4,"Chrome",15,"Same",1,"Novel102",0,"Novel102",0,563,"up-left-4sec","0","exposure",3,TRUE,FALSE,4,TRUE,"15"
"Jan 09 2015","08:35:55",33,"Live","No-socialFirst","Three",4,"Chrome",12,"Switch",0,"Novel42",2,"Novel96",2,1693,"straight-ahead","-1","test",3,TRUE,FALSE,4,FALSE,"15"
"Jan 09 2015","08:35:55",34,"Live","No-socialFirst","Three",4,"Chrome",13,"Same",0,"Novel113",3,"Novel113",0,370,"straight-ahead","-1","test",3,TRUE,FALSE,4,TRUE,"15"
"Jan 09 2015","08:35:55",35,"Live","No-socialFirst","Three",4,"Chrome",14,"Switch",1,"Novel19",0,"Novel119",2,2600,"straight-ahead","-1","test",3,TRUE,FALSE,4,FALSE,"15"
"Jan 09 2015","08:35:55",36,"Live","No-socialFirst","Three",4,"Chrome",15,"Same",1,"Novel102",0,"Novel102",0,247,"straight-ahead","-1","test",3,TRUE,FALSE,4,TRUE,"15"
"Dec 05 2014","14:09:14",1,"Live","SocialFirst","Zero",4,"Chrome",0,"Switch",0,"squirrel",0,"",0,1988,"up-left-4sec","0","example",0,TRUE,FALSE,4,TRUE,"16"
"Dec 05 2014","14:09:14",2,"Live","SocialFirst","Zero",4,"Chrome",0,"Switch",0,"squirrel",0,"",0,1762,"up-left-4sec","0","example",0,TRUE,FALSE,4,TRUE,"16"
"Dec 05 2014","14:09:14",3,"Live","SocialFirst","Zero",4,"Chrome",0,"Switch",0,"tomato",1,"",0,1802,"up-right-4sec","1","example",0,TRUE,FALSE,4,TRUE,"16"
"Dec 05 2014","14:09:14",4,"Live","SocialFirst","Zero",4,"Chrome",0,"Switch",0,"tomato",2,"",0,2001,"down-left-4sec","2","example",0,TRUE,FALSE,4,TRUE,"16"
"Dec 05 2014","14:09:14",5,"Live","SocialFirst","Zero",4,"Chrome",0,"Switch",0,"Novel64",1,"Novel137",0,1756,"up-right-4sec","1","exposure",0,TRUE,FALSE,4,TRUE,"16"
"Dec 05 2014","14:09:14",6,"Live","SocialFirst","Zero",4,"Chrome",0,"Switch",0,"Novel11",0,"Novel137",0,3799,"straight-ahead","-1","test",0,TRUE,TRUE,4,FALSE,"16"
"Dec 05 2014","14:09:14",7,"Live","SocialFirst","Zero",4,"Chrome",1,"Same",1,"Novel15",3,"Novel15",3,2122,"down-right-4sec","3","exposure",0,TRUE,FALSE,4,TRUE,"16"
"Dec 05 2014","14:09:14",8,"Live","SocialFirst","Zero",4,"Chrome",1,"Same",1,"Novel15",3,"Novel15",3,1354,"straight-ahead","-1","test",0,TRUE,FALSE,4,TRUE,"16"
"Dec 05 2014","14:09:14",9,"Live","SocialFirst","Zero",4,"Chrome",2,"Switch",1,"Novel25",3,"Novel106",2,1717,"down-right-4sec","3","exposure",0,TRUE,FALSE,4,TRUE,"16"
"Dec 05 2014","14:09:14",10,"Live","SocialFirst","Zero",4,"Chrome",2,"Switch",1,"Novel106",2,"Novel106",2,2380,"straight-ahead","-1","test",0,TRUE,FALSE,4,TRUE,"16"
"Dec 05 2014","14:09:14",11,"Live","SocialFirst","Zero",4,"Chrome",3,"Same",0,"Novel20",2,"Novel20",2,3576,"down-left-4sec","2","exposure",0,TRUE,FALSE,4,TRUE,"16"
"Dec 05 2014","14:09:14",12,"Live","SocialFirst","Zero",4,"Chrome",3,"Same",0,"Novel20",0,"Novel20",2,1471,"straight-ahead","-1","test",0,TRUE,FALSE,4,TRUE,"16"
"Dec 05 2014","14:09:14",13,"Live","SocialFirst","Zero",4,"Chrome",4,"Switch",1,"Novel21",3,"Novel73",2,2351,"down-right-4sec","3","exposure",0,TRUE,FALSE,4,TRUE,"16"
"Dec 05 2014","14:09:14",14,"Live","SocialFirst","Zero",4,"Chrome",4,"Switch",1,"Novel26",3,"Novel73",2,2700,"straight-ahead","-1","test",0,TRUE,FALSE,4,FALSE,"16"
"Dec 05 2014","14:09:14",15,"Live","SocialFirst","Zero",4,"Chrome",5,"Same",0,"Novel34",0,"Novel34",0,2159,"up-left-4sec","0","exposure",0,TRUE,FALSE,4,TRUE,"16"
"Dec 05 2014","14:09:14",16,"Live","SocialFirst","Zero",4,"Chrome",5,"Same",0,"Novel34",2,"Novel34",0,1911,"straight-ahead","-1","test",0,TRUE,FALSE,4,TRUE,"16"
"Dec 05 2014","14:09:14",17,"Live","SocialFirst","Zero",4,"Chrome",6,"Switch",0,"Novel57",1,"Novel33",0,2402,"up-right-4sec","1","exposure",0,TRUE,FALSE,4,TRUE,"16"
"Dec 05 2014","14:09:14",18,"Live","SocialFirst","Zero",4,"Chrome",6,"Switch",0,"Novel46",1,"Novel33",0,2903,"straight-ahead","-1","test",0,TRUE,FALSE,4,FALSE,"16"
"Dec 05 2014","14:09:14",19,"Live","SocialFirst","Zero",4,"Chrome",7,"Same",1,"Novel116",1,"Novel116",1,1725,"up-right-4sec","1","exposure",0,TRUE,FALSE,4,TRUE,"16"
"Dec 05 2014","14:09:14",20,"Live","SocialFirst","Zero",4,"Chrome",7,"Same",1,"Novel116",1,"Novel116",1,1640,"straight-ahead","-1","test",0,TRUE,FALSE,4,TRUE,"16"
"Dec 05 2014","14:09:14",21,"Live","SocialFirst","Zero",4,"Chrome",8,"Switch",0,"Novel101",1,"Novel91",0,5298,"straight-ahead","-1","exposure",0,TRUE,FALSE,4,FALSE,"16"
"Dec 05 2014","14:09:14",22,"Live","SocialFirst","Zero",4,"Chrome",8,"Switch",0,"Novel91",3,"Novel91",0,3479,"straight-ahead","-1","test",0,TRUE,FALSE,4,TRUE,"16"
"Dec 05 2014","14:09:14",23,"Live","SocialFirst","Zero",4,"Chrome",9,"Same",1,"Novel87",2,"Novel87",2,2601,"straight-ahead","-1","exposure",0,TRUE,FALSE,4,FALSE,"16"
"Dec 05 2014","14:09:14",24,"Live","SocialFirst","Zero",4,"Chrome",9,"Same",1,"Novel87",2,"Novel87",2,1930,"straight-ahead","-1","test",0,TRUE,FALSE,4,TRUE,"16"
"Dec 05 2014","14:09:14",25,"Live","SocialFirst","Zero",4,"Chrome",10,"Switch",1,"Novel3",2,"Novel5",3,5767,"straight-ahead","-1","exposure",0,TRUE,FALSE,4,FALSE,"16"
"Dec 05 2014","14:09:14",26,"Live","SocialFirst","Zero",4,"Chrome",10,"Switch",1,"Novel78",0,"Novel5",3,2909,"straight-ahead","-1","test",0,TRUE,FALSE,4,FALSE,"16"
"Dec 05 2014","14:09:14",27,"Live","SocialFirst","Zero",4,"Chrome",11,"Same",0,"Novel18",1,"Novel18",1,3288,"straight-ahead","-1","exposure",0,TRUE,FALSE,4,FALSE,"16"
"Dec 05 2014","14:09:14",28,"Live","SocialFirst","Zero",4,"Chrome",11,"Same",0,"Novel18",0,"Novel18",1,2398,"straight-ahead","-1","test",0,TRUE,FALSE,4,TRUE,"16"
"Dec 05 2014","14:09:14",29,"Live","SocialFirst","Zero",4,"Chrome",12,"Switch",1,"Novel125",3,"Novel76",1,2638,"straight-ahead","-1","exposure",0,TRUE,FALSE,4,FALSE,"16"
"Dec 05 2014","14:09:14",30,"Live","SocialFirst","Zero",4,"Chrome",12,"Switch",1,"Novel108",2,"Novel76",1,1759,"straight-ahead","-1","test",0,TRUE,FALSE,4,FALSE,"16"
"Dec 05 2014","14:09:14",31,"Live","SocialFirst","Zero",4,"Chrome",13,"Same",0,"Novel99",2,"Novel99",2,2360,"straight-ahead","-1","exposure",0,TRUE,FALSE,4,FALSE,"16"
"Dec 05 2014","14:09:14",32,"Live","SocialFirst","Zero",4,"Chrome",13,"Same",0,"Novel99",1,"Novel99",2,1417,"straight-ahead","-1","test",0,TRUE,FALSE,4,TRUE,"16"
"Dec 05 2014","14:09:14",33,"Live","SocialFirst","Zero",4,"Chrome",14,"Switch",0,"Novel29",3,"Novel23",2,3230,"straight-ahead","-1","exposure",0,TRUE,FALSE,4,FALSE,"16"
"Dec 05 2014","14:09:14",34,"Live","SocialFirst","Zero",4,"Chrome",14,"Switch",0,"Novel31",0,"Novel23",2,1756,"straight-ahead","-1","test",0,TRUE,FALSE,4,FALSE,"16"
"Dec 05 2014","14:09:14",35,"Live","SocialFirst","Zero",4,"Chrome",15,"Same",1,"Novel111",1,"Novel111",1,2551,"straight-ahead","-1","exposure",0,TRUE,FALSE,4,FALSE,"16"
"Dec 05 2014","14:09:14",36,"Live","SocialFirst","Zero",4,"Chrome",15,"Same",1,"Novel111",1,"Novel111",1,2334,"straight-ahead","-1","test",0,TRUE,FALSE,4,TRUE,"16"
"Dec 06 2014","21:42:30",1,"Live","SocialFirst","Zero",4,"Chrome",0,"Same",1,"squirrel",0,"",0,8673,"up-left-4sec","0","example",0,TRUE,FALSE,4,TRUE,"17"
"Dec 06 2014","21:42:30",2,"Live","SocialFirst","Zero",4,"Chrome",0,"Same",1,"squirrel",0,"",0,4169,"up-left-4sec","0","example",0,TRUE,FALSE,4,TRUE,"17"
"Dec 06 2014","21:42:30",3,"Live","SocialFirst","Zero",4,"Chrome",0,"Same",1,"tomato",1,"",0,3522,"up-right-4sec","1","example",0,TRUE,FALSE,4,TRUE,"17"
"Dec 06 2014","21:42:30",4,"Live","SocialFirst","Zero",4,"Chrome",0,"Same",1,"tomato",2,"",0,4282,"down-left-4sec","2","example",0,TRUE,FALSE,4,TRUE,"17"
"Dec 06 2014","21:42:30",5,"Live","SocialFirst","Zero",4,"Chrome",0,"Same",1,"Novel33",2,"Novel33",2,10500,"up-left-4sec","0","exposure",0,TRUE,FALSE,4,FALSE,"17"
"Dec 06 2014","21:42:30",6,"Live","SocialFirst","Zero",4,"Chrome",0,"Same",1,"Novel68",0,"Novel33",2,6598,"straight-ahead","-1","test",0,TRUE,TRUE,4,FALSE,"17"
"Dec 06 2014","21:42:30",7,"Live","SocialFirst","Zero",4,"Chrome",1,"Switch",1,"Novel105",1,"Novel112",0,6452,"up-right-4sec","1","exposure",0,TRUE,FALSE,4,TRUE,"17"
"Dec 06 2014","21:42:30",8,"Live","SocialFirst","Zero",4,"Chrome",1,"Switch",1,"Novel15",1,"Novel112",0,13453,"straight-ahead","-1","test",0,TRUE,FALSE,4,FALSE,"17"
"Dec 06 2014","21:42:30",9,"Live","SocialFirst","Zero",4,"Chrome",2,"Same",0,"Novel137",2,"Novel137",2,5534,"down-left-4sec","2","exposure",0,TRUE,FALSE,4,TRUE,"17"
"Dec 06 2014","21:42:30",10,"Live","SocialFirst","Zero",4,"Chrome",2,"Same",0,"Novel137",0,"Novel137",2,5765,"straight-ahead","-1","test",0,TRUE,FALSE,4,TRUE,"17"
"Dec 06 2014","21:42:30",11,"Live","SocialFirst","Zero",4,"Chrome",3,"Switch",0,"Novel91",2,"Novel36",0,7249,"down-left-4sec","2","exposure",0,TRUE,FALSE,4,TRUE,"17"
"Dec 06 2014","21:42:30",12,"Live","SocialFirst","Zero",4,"Chrome",3,"Switch",0,"Novel36",3,"Novel36",0,7362,"straight-ahead","-1","test",0,TRUE,FALSE,4,TRUE,"17"
"Dec 06 2014","21:42:30",13,"Live","SocialFirst","Zero",4,"Chrome",4,"Same",1,"Novel121",2,"Novel121",2,5378,"down-left-4sec","2","exposure",0,TRUE,FALSE,4,TRUE,"17"
"Dec 06 2014","21:42:30",14,"Live","SocialFirst","Zero",4,"Chrome",4,"Same",1,"Novel121",2,"Novel121",2,3976,"straight-ahead","-1","test",0,TRUE,FALSE,4,TRUE,"17"
"Dec 06 2014","21:42:30",15,"Live","SocialFirst","Zero",4,"Chrome",5,"Switch",1,"Novel40",1,"Novel116",0,6149,"up-right-4sec","1","exposure",0,TRUE,FALSE,4,TRUE,"17"
"Dec 06 2014","21:42:30",16,"Live","SocialFirst","Zero",4,"Chrome",5,"Switch",1,"Novel110",2,"Novel116",0,6456,"straight-ahead","-1","test",0,TRUE,FALSE,4,FALSE,"17"
"Dec 06 2014","21:42:30",17,"Live","SocialFirst","Zero",4,"Chrome",6,"Same",0,"Novel63",1,"Novel63",1,5516,"up-right-4sec","1","exposure",0,TRUE,FALSE,4,TRUE,"17"
"Dec 06 2014","21:42:30",18,"Live","SocialFirst","Zero",4,"Chrome",6,"Same",0,"Novel63",2,"Novel63",1,3112,"straight-ahead","-1","test",0,TRUE,FALSE,4,TRUE,"17"
"Dec 06 2014","21:42:30",19,"Live","SocialFirst","Zero",4,"Chrome",7,"Switch",0,"Novel2",2,"Novel43",0,10677,"down-left-4sec","2","exposure",0,TRUE,FALSE,4,TRUE,"17"
"Dec 06 2014","21:42:30",20,"Live","SocialFirst","Zero",4,"Chrome",7,"Switch",0,"Novel118",0,"Novel43",0,4581,"straight-ahead","-1","test",0,TRUE,FALSE,4,FALSE,"17"
"Dec 06 2014","21:42:30",21,"Live","SocialFirst","Zero",4,"Chrome",8,"Same",1,"Novel79",0,"Novel79",0,6949,"straight-ahead","-1","exposure",0,TRUE,FALSE,4,FALSE,"17"
"Dec 06 2014","21:42:30",22,"Live","SocialFirst","Zero",4,"Chrome",8,"Same",1,"Novel79",0,"Novel79",0,2289,"straight-ahead","-1","test",0,TRUE,FALSE,4,TRUE,"17"
"Dec 06 2014","21:42:30",23,"Live","SocialFirst","Zero",4,"Chrome",9,"Switch",1,"Novel134",0,"Novel54",1,10648,"straight-ahead","-1","exposure",0,TRUE,FALSE,4,FALSE,"17"
"Dec 06 2014","21:42:30",24,"Live","SocialFirst","Zero",4,"Chrome",9,"Switch",1,"Novel87",2,"Novel54",1,4422,"straight-ahead","-1","test",0,TRUE,FALSE,4,FALSE,"17"
"Dec 06 2014","21:42:30",25,"Live","SocialFirst","Zero",4,"Chrome",10,"Same",0,"Novel65",3,"Novel65",3,5398,"straight-ahead","-1","exposure",0,TRUE,FALSE,4,FALSE,"17"
"Dec 06 2014","21:42:30",26,"Live","SocialFirst","Zero",4,"Chrome",10,"Same",0,"Novel65",2,"Novel65",3,2511,"straight-ahead","-1","test",0,TRUE,FALSE,4,TRUE,"17"
