"","subid","submit.date","submit.time","trial.num","condition","interval","numPic","itemNum","trialType","samePos","chosen","chosenIdx","kept","keptIdx","rt","face","faceIdx","exposureTrial","testTrial","exampleTrial","day.and.time","intervalNum","include","first.trial","numPicN","correct"
"1","A0987913304TQJJ683IBA","Mar 29 2014","18:40:17",1,"No-Social","Zero",4,0,"Switch",1,"squirrel",0,"",0,949,"eyescenter",-1,0,0,1,(Mar 29 2014 18:40:17),0,TRUE,FALSE,4,FALSE
"2","A0987913304TQJJ683IBA","Mar 29 2014","18:40:17",2,"No-Social","Zero",4,0,"Switch",1,"squirrel",0,"",0,915,"eyescenter",-1,0,0,1,(Mar 29 2014 18:40:17),0,TRUE,FALSE,4,FALSE
"3","A0987913304TQJJ683IBA","Mar 29 2014","18:40:17",3,"No-Social","Zero",4,0,"Switch",1,"tomato",1,"",0,1042,"eyescenter",-1,0,0,1,(Mar 29 2014 18:40:17),0,TRUE,FALSE,4,FALSE
"4","A0987913304TQJJ683IBA","Mar 29 2014","18:40:17",4,"No-Social","Zero",4,0,"Switch",1,"tomato",2,"",0,980,"eyescenter",-1,0,0,1,(Mar 29 2014 18:40:17),0,TRUE,FALSE,4,FALSE
"5","A0987913304TQJJ683IBA","Mar 29 2014","18:40:17",5,"No-Social","Zero",4,0,"Switch",1,"Novel114",2,"Novel38",1,2485,"eyescenter",-1,1,0,0,(Mar 29 2014 18:40:17),0,TRUE,FALSE,4,FALSE
"6","A0987913304TQJJ683IBA","Mar 29 2014","18:40:17",6,"No-Social","Zero",4,0,"Switch",1,"Novel73",2,"Novel38",1,3368,"eyescenter",-1,0,1,0,(Mar 29 2014 18:40:17),0,TRUE,TRUE,4,FALSE
"7","A0987913304TQJJ683IBA","Mar 29 2014","18:40:17",7,"No-Social","Zero",4,1,"Same",1,"Novel49",3,"Novel49",3,2506,"eyescenter",-1,1,0,0,(Mar 29 2014 18:40:17),0,TRUE,FALSE,4,TRUE
"8","A0987913304TQJJ683IBA","Mar 29 2014","18:40:17",8,"No-Social","Zero",4,1,"Same",1,"Novel49",3,"Novel49",3,1113,"eyescenter",-1,0,1,0,(Mar 29 2014 18:40:17),0,TRUE,FALSE,4,TRUE
"9","A0987913304TQJJ683IBA","Mar 29 2014","18:40:17",9,"No-Social","Zero",4,2,"Switch",1,"Novel29",2,"Novel107",3,2449,"eyescenter",-1,1,0,0,(Mar 29 2014 18:40:17),0,TRUE,FALSE,4,FALSE
"10","A0987913304TQJJ683IBA","Mar 29 2014","18:40:17",10,"No-Social","Zero",4,2,"Switch",1,"Novel107",3,"Novel107",3,1843,"eyescenter",-1,0,1,0,(Mar 29 2014 18:40:17),0,TRUE,FALSE,4,TRUE
"11","A0987913304TQJJ683IBA","Mar 29 2014","18:40:17",11,"No-Social","Zero",4,3,"Same",0,"Novel104",0,"Novel104",0,3323,"eyescenter",-1,1,0,0,(Mar 29 2014 18:40:17),0,TRUE,FALSE,4,TRUE
"12","A0987913304TQJJ683IBA","Mar 29 2014","18:40:17",12,"No-Social","Zero",4,3,"Same",0,"Novel104",1,"Novel104",0,1035,"eyescenter",-1,0,1,0,(Mar 29 2014 18:40:17),0,TRUE,FALSE,4,TRUE
"13","A0987913304TQJJ683IBA","Mar 29 2014","18:40:17",13,"No-Social","Zero",4,4,"Switch",0,"Novel44",1,"Novel87",3,3298,"eyescenter",-1,1,0,0,(Mar 29 2014 18:40:17),0,TRUE,FALSE,4,FALSE
"14","A0987913304TQJJ683IBA","Mar 29 2014","18:40:17",14,"No-Social","Zero",4,4,"Switch",0,"Novel69",0,"Novel87",3,2376,"eyescenter",-1,0,1,0,(Mar 29 2014 18:40:17),0,TRUE,FALSE,4,FALSE
"15","A0987913304TQJJ683IBA","Mar 29 2014","18:40:17",15,"No-Social","Zero",4,5,"Same",1,"Novel118",3,"Novel118",3,2755,"eyescenter",-1,1,0,0,(Mar 29 2014 18:40:17),0,TRUE,FALSE,4,TRUE
"16","A0987913304TQJJ683IBA","Mar 29 2014","18:40:17",16,"No-Social","Zero",4,5,"Same",1,"Novel118",3,"Novel118",3,1236,"eyescenter",-1,0,1,0,(Mar 29 2014 18:40:17),0,TRUE,FALSE,4,TRUE
"17","A0987913304TQJJ683IBA","Mar 29 2014","18:40:17",17,"No-Social","Zero",4,6,"Switch",0,"Novel88",0,"Novel5",3,3042,"eyescenter",-1,1,0,0,(Mar 29 2014 18:40:17),0,TRUE,FALSE,4,FALSE
"18","A0987913304TQJJ683IBA","Mar 29 2014","18:40:17",18,"No-Social","Zero",4,6,"Switch",0,"Novel58",2,"Novel5",3,2672,"eyescenter",-1,0,1,0,(Mar 29 2014 18:40:17),0,TRUE,FALSE,4,FALSE
"19","A0987913304TQJJ683IBA","Mar 29 2014","18:40:17",19,"No-Social","Zero",4,7,"Same",0,"Novel42",1,"Novel42",1,2636,"eyescenter",-1,1,0,0,(Mar 29 2014 18:40:17),0,TRUE,FALSE,4,TRUE
"20","A0987913304TQJJ683IBA","Mar 29 2014","18:40:17",20,"No-Social","Zero",4,7,"Same",0,"Novel42",0,"Novel42",1,1090,"eyescenter",-1,0,1,0,(Mar 29 2014 18:40:17),0,TRUE,FALSE,4,TRUE
"21","A10A1AU0JBL6Z3","Mar 28 2014","10:03:38",1,"Social","Zero",4,0,"Switch",1,"squirrel",0,"",0,3973,"eyescenter",-1,0,0,1,(Mar 28 2014 10:03:38),0,TRUE,FALSE,4,FALSE
"22","A10A1AU0JBL6Z3","Mar 28 2014","10:03:38",2,"Social","Zero",4,0,"Switch",1,"squirrel",0,"",0,1473,"eyescenter",-1,0,0,1,(Mar 28 2014 10:03:38),0,TRUE,FALSE,4,FALSE
"23","A10A1AU0JBL6Z3","Mar 28 2014","10:03:38",3,"Social","Zero",4,0,"Switch",1,"tomato",1,"",0,1668,"eyescenter",-1,0,0,1,(Mar 28 2014 10:03:38),0,TRUE,FALSE,4,FALSE
"24","A10A1AU0JBL6Z3","Mar 28 2014","10:03:38",4,"Social","Zero",4,0,"Switch",1,"tomato",2,"",0,1351,"eyescenter",-1,0,0,1,(Mar 28 2014 10:03:38),0,TRUE,FALSE,4,FALSE
"25","A10A1AU0JBL6Z3","Mar 28 2014","10:03:38",5,"Social","Zero",4,0,"Switch",1,"Novel119",0,"Novel44",1,2916,"eyes_left",0,1,0,0,(Mar 28 2014 10:03:38),0,TRUE,FALSE,4,FALSE
"26","A10A1AU0JBL6Z3","Mar 28 2014","10:03:38",6,"Social","Zero",4,0,"Switch",1,"Novel3",2,"Novel44",1,4148,"eyescenter",-1,0,1,0,(Mar 28 2014 10:03:38),0,TRUE,TRUE,4,FALSE
"27","A10A1AU0JBL6Z3","Mar 28 2014","10:03:38",7,"Social","Zero",4,1,"Same",1,"Novel80",2,"Novel80",2,3925,"eyes_down_right",2,1,0,0,(Mar 28 2014 10:03:38),0,TRUE,FALSE,4,TRUE
"28","A10A1AU0JBL6Z3","Mar 28 2014","10:03:38",8,"Social","Zero",4,1,"Same",1,"Novel80",2,"Novel80",2,1434,"eyescenter",-1,0,1,0,(Mar 28 2014 10:03:38),0,TRUE,FALSE,4,TRUE
"29","A10A1AU0JBL6Z3","Mar 28 2014","10:03:38",9,"Social","Zero",4,2,"Switch",0,"Novel27",1,"Novel109",2,1990,"eyes_down_left",1,1,0,0,(Mar 28 2014 10:03:38),0,TRUE,FALSE,4,FALSE
"30","A10A1AU0JBL6Z3","Mar 28 2014","10:03:38",10,"Social","Zero",4,2,"Switch",0,"Novel85",2,"Novel109",2,3831,"eyescenter",-1,0,1,0,(Mar 28 2014 10:03:38),0,TRUE,FALSE,4,FALSE
"31","A10A1AU0JBL6Z3","Mar 28 2014","10:03:38",11,"Social","Zero",4,3,"Same",0,"Novel81",0,"Novel81",0,2477,"eyes_left",0,1,0,0,(Mar 28 2014 10:03:38),0,TRUE,FALSE,4,TRUE
"32","A10A1AU0JBL6Z3","Mar 28 2014","10:03:38",12,"Social","Zero",4,3,"Same",0,"Novel81",2,"Novel81",0,1619,"eyescenter",-1,0,1,0,(Mar 28 2014 10:03:38),0,TRUE,FALSE,4,TRUE
"33","A10A1AU0JBL6Z3","Mar 28 2014","10:03:38",13,"Social","Zero",4,4,"Switch",1,"Novel50",0,"Novel130",2,1726,"eyes_left",0,1,0,0,(Mar 28 2014 10:03:38),0,TRUE,FALSE,4,FALSE
"34","A10A1AU0JBL6Z3","Mar 28 2014","10:03:38",14,"Social","Zero",4,4,"Switch",1,"Novel116",0,"Novel130",2,1614,"eyescenter",-1,0,1,0,(Mar 28 2014 10:03:38),0,TRUE,FALSE,4,FALSE
"35","A10A1AU0JBL6Z3","Mar 28 2014","10:03:38",15,"Social","Zero",4,5,"Same",1,"Novel90",2,"Novel90",2,1465,"eyes_down_right",2,1,0,0,(Mar 28 2014 10:03:38),0,TRUE,FALSE,4,TRUE
"36","A10A1AU0JBL6Z3","Mar 28 2014","10:03:38",16,"Social","Zero",4,5,"Same",1,"Novel90",2,"Novel90",2,990,"eyescenter",-1,0,1,0,(Mar 28 2014 10:03:38),0,TRUE,FALSE,4,TRUE
"37","A10A1AU0JBL6Z3","Mar 28 2014","10:03:38",17,"Social","Zero",4,6,"Switch",0,"Novel110",2,"Novel36",3,3244,"eyes_left",0,1,0,0,(Mar 28 2014 10:03:38),0,TRUE,FALSE,4,FALSE
"38","A10A1AU0JBL6Z3","Mar 28 2014","10:03:38",18,"Social","Zero",4,6,"Switch",0,"Novel36",1,"Novel36",3,5676,"eyescenter",-1,0,1,0,(Mar 28 2014 10:03:38),0,TRUE,FALSE,4,TRUE
"39","A10A1AU0JBL6Z3","Mar 28 2014","10:03:38",19,"Social","Zero",4,7,"Same",0,"Novel18",0,"Novel18",0,4341,"eyes_left",0,1,0,0,(Mar 28 2014 10:03:38),0,TRUE,FALSE,4,TRUE
"40","A10A1AU0JBL6Z3","Mar 28 2014","10:03:38",20,"Social","Zero",4,7,"Same",0,"Novel13",0,"Novel18",0,1179,"eyescenter",-1,0,1,0,(Mar 28 2014 10:03:38),0,TRUE,FALSE,4,FALSE
"41","A10BMPJA7PA4W4","Mar 29 2014","13:09:01",1,"No-Social","One",4,0,"Same",1,"squirrel",0,"",0,2584,"eyescenter",-1,0,0,1,(Mar 29 2014 13:09:01),1,TRUE,FALSE,4,FALSE
"42","A10BMPJA7PA4W4","Mar 29 2014","13:09:01",2,"No-Social","One",4,0,"Same",1,"squirrel",0,"",0,1268,"eyescenter",-1,0,0,1,(Mar 29 2014 13:09:01),1,TRUE,FALSE,4,FALSE
"43","A10BMPJA7PA4W4","Mar 29 2014","13:09:01",3,"No-Social","One",4,0,"Same",1,"tomato",1,"",0,1596,"eyescenter",-1,0,0,1,(Mar 29 2014 13:09:01),1,TRUE,FALSE,4,FALSE
"44","A10BMPJA7PA4W4","Mar 29 2014","13:09:01",4,"No-Social","One",4,0,"Same",1,"tomato",2,"",0,1305,"eyescenter",-1,0,0,1,(Mar 29 2014 13:09:01),1,TRUE,FALSE,4,FALSE
"45","A10BMPJA7PA4W4","Mar 29 2014","13:09:01",5,"No-Social","One",4,0,"Same",1,"Novel46",1,"Novel46",1,9644,"eyescenter",-1,1,0,0,(Mar 29 2014 13:09:01),1,TRUE,FALSE,4,TRUE
"46","A10BMPJA7PA4W4","Mar 29 2014","13:09:01",6,"No-Social","One",4,1,"Switch",0,"Novel69",2,"Novel40",0,4348,"eyescenter",-1,1,0,0,(Mar 29 2014 13:09:01),1,TRUE,FALSE,4,FALSE
"47","A10BMPJA7PA4W4","Mar 29 2014","13:09:01",7,"No-Social","One",4,0,"Same",1,"Novel46",1,"Novel46",1,3074,"eyescenter",-1,0,1,0,(Mar 29 2014 13:09:01),1,TRUE,TRUE,4,TRUE
"48","A10BMPJA7PA4W4","Mar 29 2014","13:09:01",8,"No-Social","One",4,1,"Switch",0,"Novel40",1,"Novel40",0,1403,"eyescenter",-1,0,1,0,(Mar 29 2014 13:09:01),1,TRUE,FALSE,4,TRUE
"49","A10BMPJA7PA4W4","Mar 29 2014","13:09:01",9,"No-Social","One",4,2,"Same",0,"Novel115",2,"Novel115",2,2505,"eyescenter",-1,1,0,0,(Mar 29 2014 13:09:01),1,TRUE,FALSE,4,TRUE
"50","A10BMPJA7PA4W4","Mar 29 2014","13:09:01",10,"No-Social","One",4,3,"Switch",1,"Novel24",1,"Novel44",0,2548,"eyescenter",-1,1,0,0,(Mar 29 2014 13:09:01),1,TRUE,FALSE,4,FALSE
"51","A10BMPJA7PA4W4","Mar 29 2014","13:09:01",11,"No-Social","One",4,2,"Same",0,"Novel115",0,"Novel115",2,1185,"eyescenter",-1,0,1,0,(Mar 29 2014 13:09:01),1,TRUE,FALSE,4,TRUE
"52","A10BMPJA7PA4W4","Mar 29 2014","13:09:01",12,"No-Social","One",4,3,"Switch",1,"Novel44",0,"Novel44",0,1948,"eyescenter",-1,0,1,0,(Mar 29 2014 13:09:01),1,TRUE,FALSE,4,TRUE
"53","A10BMPJA7PA4W4","Mar 29 2014","13:09:01",13,"No-Social","One",4,4,"Same",1,"Novel18",1,"Novel18",1,3370,"eyescenter",-1,1,0,0,(Mar 29 2014 13:09:01),1,TRUE,FALSE,4,TRUE
"54","A10BMPJA7PA4W4","Mar 29 2014","13:09:01",14,"No-Social","One",4,5,"Switch",1,"Novel25",3,"Novel87",1,1366,"eyescenter",-1,1,0,0,(Mar 29 2014 13:09:01),1,TRUE,FALSE,4,FALSE
"55","A10BMPJA7PA4W4","Mar 29 2014","13:09:01",15,"No-Social","One",4,4,"Same",1,"Novel18",1,"Novel18",1,867,"eyescenter",-1,0,1,0,(Mar 29 2014 13:09:01),1,TRUE,FALSE,4,TRUE
"56","A10BMPJA7PA4W4","Mar 29 2014","13:09:01",16,"No-Social","One",4,5,"Switch",1,"Novel105",3,"Novel87",1,835,"eyescenter",-1,0,1,0,(Mar 29 2014 13:09:01),1,TRUE,FALSE,4,FALSE
"57","A10BMPJA7PA4W4","Mar 29 2014","13:09:01",17,"No-Social","One",4,6,"Same",0,"Novel19",0,"Novel19",0,1672,"eyescenter",-1,1,0,0,(Mar 29 2014 13:09:01),1,TRUE,FALSE,4,TRUE
"58","A10BMPJA7PA4W4","Mar 29 2014","13:09:01",18,"No-Social","One",4,7,"Switch",0,"Novel125",0,"Novel132",1,929,"eyescenter",-1,1,0,0,(Mar 29 2014 13:09:01),1,TRUE,FALSE,4,FALSE
"59","A10BMPJA7PA4W4","Mar 29 2014","13:09:01",19,"No-Social","One",4,6,"Same",0,"Novel19",1,"Novel19",0,589,"eyescenter",-1,0,1,0,(Mar 29 2014 13:09:01),1,TRUE,FALSE,4,TRUE
"60","A10BMPJA7PA4W4","Mar 29 2014","13:09:01",20,"No-Social","One",4,7,"Switch",0,"Novel132",2,"Novel132",1,569,"eyescenter",-1,0,1,0,(Mar 29 2014 13:09:01),1,TRUE,FALSE,4,TRUE
"61","A10VSODCQEYZDJ","Mar 28 2014","13:55:48",1,"No-Social","Seven",4,0,"Switch",0,"squirrel",0,"",0,13881,"eyescenter",-1,0,0,1,(Mar 28 2014 13:55:48),7,TRUE,FALSE,4,FALSE
"62","A10VSODCQEYZDJ","Mar 28 2014","13:55:48",2,"No-Social","Seven",4,0,"Switch",0,"squirrel",0,"",0,8090,"eyescenter",-1,0,0,1,(Mar 28 2014 13:55:48),7,TRUE,FALSE,4,FALSE
"63","A10VSODCQEYZDJ","Mar 28 2014","13:55:48",3,"No-Social","Seven",4,0,"Switch",0,"tomato",1,"",0,4140,"eyescenter",-1,0,0,1,(Mar 28 2014 13:55:48),7,TRUE,FALSE,4,FALSE
"64","A10VSODCQEYZDJ","Mar 28 2014","13:55:48",4,"No-Social","Seven",4,0,"Switch",0,"tomato",2,"",0,2974,"eyescenter",-1,0,0,1,(Mar 28 2014 13:55:48),7,TRUE,FALSE,4,FALSE
"65","A10VSODCQEYZDJ","Mar 28 2014","13:55:48",5,"No-Social","Seven",4,0,"Switch",0,"Novel92",2,"Novel127",0,11737,"eyescenter",-1,1,0,0,(Mar 28 2014 13:55:48),7,TRUE,FALSE,4,FALSE
"66","A10VSODCQEYZDJ","Mar 28 2014","13:55:48",6,"No-Social","Seven",4,1,"Same",0,"Novel60",1,"Novel60",1,8541,"eyescenter",-1,1,0,0,(Mar 28 2014 13:55:48),7,TRUE,FALSE,4,TRUE
"67","A10VSODCQEYZDJ","Mar 28 2014","13:55:48",7,"No-Social","Seven",4,2,"Switch",1,"Novel33",1,"Novel100",2,5813,"eyescenter",-1,1,0,0,(Mar 28 2014 13:55:48),7,TRUE,FALSE,4,FALSE
"68","A10VSODCQEYZDJ","Mar 28 2014","13:55:48",8,"No-Social","Seven",4,3,"Same",0,"Novel6",3,"Novel6",3,7599,"eyescenter",-1,1,0,0,(Mar 28 2014 13:55:48),7,TRUE,FALSE,4,TRUE
"69","A10VSODCQEYZDJ","Mar 28 2014","13:55:48",9,"No-Social","Seven",4,4,"Switch",0,"Novel29",1,"Novel97",3,7892,"eyescenter",-1,1,0,0,(Mar 28 2014 13:55:48),7,TRUE,FALSE,4,FALSE
"70","A10VSODCQEYZDJ","Mar 28 2014","13:55:48",10,"No-Social","Seven",4,5,"Same",1,"Novel91",1,"Novel91",1,6766,"eyescenter",-1,1,0,0,(Mar 28 2014 13:55:48),7,TRUE,FALSE,4,TRUE
"71","A10VSODCQEYZDJ","Mar 28 2014","13:55:48",11,"No-Social","Seven",4,6,"Switch",1,"Novel24",2,"Novel19",3,5029,"eyescenter",-1,1,0,0,(Mar 28 2014 13:55:48),7,TRUE,FALSE,4,FALSE
"72","A10VSODCQEYZDJ","Mar 28 2014","13:55:48",12,"No-Social","Seven",4,7,"Same",1,"Novel116",1,"Novel116",1,4132,"eyescenter",-1,1,0,0,(Mar 28 2014 13:55:48),7,TRUE,FALSE,4,TRUE
"73","A10VSODCQEYZDJ","Mar 28 2014","13:55:48",13,"No-Social","Seven",4,0,"Switch",0,"Novel127",2,"Novel127",0,5132,"eyescenter",-1,0,1,0,(Mar 28 2014 13:55:48),7,TRUE,TRUE,4,TRUE
"74","A10VSODCQEYZDJ","Mar 28 2014","13:55:48",14,"No-Social","Seven",4,1,"Same",0,"Novel60",3,"Novel60",1,5534,"eyescenter",-1,0,1,0,(Mar 28 2014 13:55:48),7,TRUE,FALSE,4,TRUE
"75","A10VSODCQEYZDJ","Mar 28 2014","13:55:48",15,"No-Social","Seven",4,2,"Switch",1,"Novel100",2,"Novel100",2,5413,"eyescenter",-1,0,1,0,(Mar 28 2014 13:55:48),7,TRUE,FALSE,4,TRUE
"76","A10VSODCQEYZDJ","Mar 28 2014","13:55:48",16,"No-Social","Seven",4,3,"Same",0,"Novel80",0,"Novel6",3,5593,"eyescenter",-1,0,1,0,(Mar 28 2014 13:55:48),7,TRUE,FALSE,4,FALSE
"77","A10VSODCQEYZDJ","Mar 28 2014","13:55:48",17,"No-Social","Seven",4,4,"Switch",0,"Novel97",0,"Novel97",3,1375,"eyescenter",-1,0,1,0,(Mar 28 2014 13:55:48),7,TRUE,FALSE,4,TRUE
"78","A10VSODCQEYZDJ","Mar 28 2014","13:55:48",18,"No-Social","Seven",4,5,"Same",1,"Novel91",1,"Novel91",1,3549,"eyescenter",-1,0,1,0,(Mar 28 2014 13:55:48),7,TRUE,FALSE,4,TRUE
"79","A10VSODCQEYZDJ","Mar 28 2014","13:55:48",19,"No-Social","Seven",4,6,"Switch",1,"Novel19",3,"Novel19",3,6836,"eyescenter",-1,0,1,0,(Mar 28 2014 13:55:48),7,TRUE,FALSE,4,TRUE
"80","A10VSODCQEYZDJ","Mar 28 2014","13:55:48",20,"No-Social","Seven",4,7,"Same",1,"Novel116",1,"Novel116",1,2706,"eyescenter",-1,0,1,0,(Mar 28 2014 13:55:48),7,TRUE,FALSE,4,TRUE
"101","A11AC8ZZG6UC7U","Mar 28 2014","21:51:56",1,"No-Social","Zero",4,0,"Switch",0,"squirrel",0,"",0,12833,"eyescenter",-1,0,0,1,(Mar 28 2014 21:51:56),0,TRUE,FALSE,4,FALSE
"102","A11AC8ZZG6UC7U","Mar 28 2014","21:51:56",2,"No-Social","Zero",4,0,"Switch",0,"squirrel",0,"",0,1667,"eyescenter",-1,0,0,1,(Mar 28 2014 21:51:56),0,TRUE,FALSE,4,FALSE
"103","A11AC8ZZG6UC7U","Mar 28 2014","21:51:56",3,"No-Social","Zero",4,0,"Switch",0,"tomato",1,"",0,3124,"eyescenter",-1,0,0,1,(Mar 28 2014 21:51:56),0,TRUE,FALSE,4,FALSE
"104","A11AC8ZZG6UC7U","Mar 28 2014","21:51:56",4,"No-Social","Zero",4,0,"Switch",0,"tomato",2,"",0,2057,"eyescenter",-1,0,0,1,(Mar 28 2014 21:51:56),0,TRUE,FALSE,4,FALSE
"105","A11AC8ZZG6UC7U","Mar 28 2014","21:51:56",5,"No-Social","Zero",4,0,"Switch",0,"Novel108",2,"Novel38",0,5268,"eyescenter",-1,1,0,0,(Mar 28 2014 21:51:56),0,TRUE,FALSE,4,FALSE
"106","A11AC8ZZG6UC7U","Mar 28 2014","21:51:56",6,"No-Social","Zero",4,0,"Switch",0,"Novel61",2,"Novel38",0,1651,"eyescenter",-1,0,1,0,(Mar 28 2014 21:51:56),0,TRUE,TRUE,4,FALSE
"107","A11AC8ZZG6UC7U","Mar 28 2014","21:51:56",7,"No-Social","Zero",4,1,"Same",0,"Novel29",1,"Novel29",1,2659,"eyescenter",-1,1,0,0,(Mar 28 2014 21:51:56),0,TRUE,FALSE,4,TRUE
"108","A11AC8ZZG6UC7U","Mar 28 2014","21:51:56",8,"No-Social","Zero",4,1,"Same",0,"Novel29",2,"Novel29",1,2523,"eyescenter",-1,0,1,0,(Mar 28 2014 21:51:56),0,TRUE,FALSE,4,TRUE
"109","A11AC8ZZG6UC7U","Mar 28 2014","21:51:56",9,"No-Social","Zero",4,2,"Switch",1,"Novel66",0,"Novel105",1,3055,"eyescenter",-1,1,0,0,(Mar 28 2014 21:51:56),0,TRUE,FALSE,4,FALSE
"110","A11AC8ZZG6UC7U","Mar 28 2014","21:51:56",10,"No-Social","Zero",4,2,"Switch",1,"Novel88",2,"Novel105",1,2265,"eyescenter",-1,0,1,0,(Mar 28 2014 21:51:56),0,TRUE,FALSE,4,FALSE
"111","A11AC8ZZG6UC7U","Mar 28 2014","21:51:56",11,"No-Social","Zero",4,3,"Same",1,"Novel92",2,"Novel92",2,285,"eyescenter",-1,1,0,0,(Mar 28 2014 21:51:56),0,TRUE,FALSE,4,TRUE
"112","A11AC8ZZG6UC7U","Mar 28 2014","21:51:56",12,"No-Social","Zero",4,3,"Same",1,"Novel25",3,"Novel92",2,928,"eyescenter",-1,0,1,0,(Mar 28 2014 21:51:56),0,TRUE,FALSE,4,FALSE
"113","A11AC8ZZG6UC7U","Mar 28 2014","21:51:56",13,"No-Social","Zero",4,4,"Switch",0,"Novel134",2,"Novel125",3,970,"eyescenter",-1,1,0,0,(Mar 28 2014 21:51:56),0,TRUE,FALSE,4,FALSE
"114","A11AC8ZZG6UC7U","Mar 28 2014","21:51:56",14,"No-Social","Zero",4,4,"Switch",0,"Novel12",2,"Novel125",3,984,"eyescenter",-1,0,1,0,(Mar 28 2014 21:51:56),0,TRUE,FALSE,4,FALSE
"115","A11AC8ZZG6UC7U","Mar 28 2014","21:51:56",15,"No-Social","Zero",4,5,"Same",1,"Novel2",1,"Novel2",1,508,"eyescenter",-1,1,0,0,(Mar 28 2014 21:51:56),0,TRUE,FALSE,4,TRUE
"116","A11AC8ZZG6UC7U","Mar 28 2014","21:51:56",16,"No-Social","Zero",4,5,"Same",1,"Novel60",0,"Novel2",1,861,"eyescenter",-1,0,1,0,(Mar 28 2014 21:51:56),0,TRUE,FALSE,4,FALSE
"117","A11AC8ZZG6UC7U","Mar 28 2014","21:51:56",17,"No-Social","Zero",4,6,"Switch",1,"Novel97",1,"Novel20",0,618,"eyescenter",-1,1,0,0,(Mar 28 2014 21:51:56),0,TRUE,FALSE,4,FALSE
"118","A11AC8ZZG6UC7U","Mar 28 2014","21:51:56",18,"No-Social","Zero",4,6,"Switch",1,"Novel6",2,"Novel20",0,466,"eyescenter",-1,0,1,0,(Mar 28 2014 21:51:56),0,TRUE,FALSE,4,FALSE
"119","A11AC8ZZG6UC7U","Mar 28 2014","21:51:56",19,"No-Social","Zero",4,7,"Same",0,"Novel81",3,"Novel81",3,58,"eyescenter",-1,1,0,0,(Mar 28 2014 21:51:56),0,TRUE,FALSE,4,TRUE
"120","A11AC8ZZG6UC7U","Mar 28 2014","21:51:56",20,"No-Social","Zero",4,7,"Same",0,"Novel86",2,"Novel81",3,231,"eyescenter",-1,0,1,0,(Mar 28 2014 21:51:56),0,TRUE,FALSE,4,FALSE
"121","A11ANA7JWRJUZG","Mar 29 2014","14:23:10",1,"Social","Three",4,0,"Switch",0,"squirrel",0,"",0,3600,"eyescenter",-1,0,0,1,(Mar 29 2014 14:23:10),3,TRUE,FALSE,4,FALSE
"122","A11ANA7JWRJUZG","Mar 29 2014","14:23:10",2,"Social","Three",4,0,"Switch",0,"squirrel",0,"",0,1861,"eyescenter",-1,0,0,1,(Mar 29 2014 14:23:10),3,TRUE,FALSE,4,FALSE
"123","A11ANA7JWRJUZG","Mar 29 2014","14:23:10",3,"Social","Three",4,0,"Switch",0,"tomato",1,"",0,2076,"eyescenter",-1,0,0,1,(Mar 29 2014 14:23:10),3,TRUE,FALSE,4,FALSE
"124","A11ANA7JWRJUZG","Mar 29 2014","14:23:10",4,"Social","Three",4,0,"Switch",0,"tomato",2,"",0,1743,"eyescenter",-1,0,0,1,(Mar 29 2014 14:23:10),3,TRUE,FALSE,4,FALSE
"125","A11ANA7JWRJUZG","Mar 29 2014","14:23:10",5,"Social","Three",4,0,"Switch",0,"Novel129",1,"Novel65",0,4468,"eyes_down_left",1,1,0,0,(Mar 29 2014 14:23:10),3,TRUE,FALSE,4,FALSE
"126","A11ANA7JWRJUZG","Mar 29 2014","14:23:10",6,"Social","Three",4,1,"Same",0,"Novel20",2,"Novel20",2,1766,"eyes_down_right",2,1,0,0,(Mar 29 2014 14:23:10),3,TRUE,FALSE,4,TRUE
"127","A11ANA7JWRJUZG","Mar 29 2014","14:23:10",7,"Social","Three",4,2,"Switch",1,"Novel130",2,"Novel134",0,1651,"eyes_down_right",2,1,0,0,(Mar 29 2014 14:23:10),3,TRUE,FALSE,4,FALSE
"128","A11ANA7JWRJUZG","Mar 29 2014","14:23:10",8,"Social","Three",4,3,"Same",1,"Novel55",3,"Novel55",3,1899,"eyes_right",3,1,0,0,(Mar 29 2014 14:23:10),3,TRUE,FALSE,4,TRUE
"129","A11ANA7JWRJUZG","Mar 29 2014","14:23:10",9,"Social","Three",4,0,"Switch",0,"Novel65",1,"Novel65",0,2274,"eyescenter",-1,0,1,0,(Mar 29 2014 14:23:10),3,TRUE,TRUE,4,TRUE
"130","A11ANA7JWRJUZG","Mar 29 2014","14:23:10",10,"Social","Three",4,1,"Same",0,"Novel20",0,"Novel20",2,1611,"eyescenter",-1,0,1,0,(Mar 29 2014 14:23:10),3,TRUE,FALSE,4,TRUE
"131","A11ANA7JWRJUZG","Mar 29 2014","14:23:10",11,"Social","Three",4,2,"Switch",1,"Novel51",1,"Novel134",0,3571,"eyescenter",-1,0,1,0,(Mar 29 2014 14:23:10),3,TRUE,FALSE,4,FALSE
"132","A11ANA7JWRJUZG","Mar 29 2014","14:23:10",12,"Social","Three",4,3,"Same",1,"Novel55",3,"Novel55",3,1563,"eyescenter",-1,0,1,0,(Mar 29 2014 14:23:10),3,TRUE,FALSE,4,TRUE
"133","A11ANA7JWRJUZG","Mar 29 2014","14:23:10",13,"Social","Three",4,4,"Switch",0,"Novel64",3,"Novel76",0,1385,"eyes_right",3,1,0,0,(Mar 29 2014 14:23:10),3,TRUE,FALSE,4,FALSE
"134","A11ANA7JWRJUZG","Mar 29 2014","14:23:10",14,"Social","Three",4,5,"Same",1,"Novel9",3,"Novel9",3,1311,"eyes_right",3,1,0,0,(Mar 29 2014 14:23:10),3,TRUE,FALSE,4,TRUE
"135","A11ANA7JWRJUZG","Mar 29 2014","14:23:10",15,"Social","Three",4,6,"Switch",1,"Novel131",0,"Novel113",2,1465,"eyes_left",0,1,0,0,(Mar 29 2014 14:23:10),3,TRUE,FALSE,4,FALSE
"136","A11ANA7JWRJUZG","Mar 29 2014","14:23:10",16,"Social","Three",4,7,"Same",0,"Novel106",1,"Novel106",1,827,"eyes_down_left",1,1,0,0,(Mar 29 2014 14:23:10),3,TRUE,FALSE,4,TRUE
"137","A11ANA7JWRJUZG","Mar 29 2014","14:23:10",17,"Social","Three",4,4,"Switch",0,"Novel1",2,"Novel76",0,3885,"eyescenter",-1,0,1,0,(Mar 29 2014 14:23:10),3,TRUE,FALSE,4,FALSE
"138","A11ANA7JWRJUZG","Mar 29 2014","14:23:10",18,"Social","Three",4,5,"Same",1,"Novel9",3,"Novel9",3,2095,"eyescenter",-1,0,1,0,(Mar 29 2014 14:23:10),3,TRUE,FALSE,4,TRUE
"139","A11ANA7JWRJUZG","Mar 29 2014","14:23:10",19,"Social","Three",4,6,"Switch",1,"Novel113",2,"Novel113",2,2427,"eyescenter",-1,0,1,0,(Mar 29 2014 14:23:10),3,TRUE,FALSE,4,TRUE
"140","A11ANA7JWRJUZG","Mar 29 2014","14:23:10",20,"Social","Three",4,7,"Same",0,"Novel106",2,"Novel106",1,1249,"eyescenter",-1,0,1,0,(Mar 29 2014 14:23:10),3,TRUE,FALSE,4,TRUE
"141","A124NJNCAG5E6E","Mar 28 2014","07:38:07",1,"Social","Three",4,0,"Switch",0,"squirrel",0,"",0,4707,"eyescenter",-1,0,0,1,(Mar 28 2014 07:38:07),3,TRUE,FALSE,4,FALSE
"142","A124NJNCAG5E6E","Mar 28 2014","07:38:07",2,"Social","Three",4,0,"Switch",0,"squirrel",0,"",0,2120,"eyescenter",-1,0,0,1,(Mar 28 2014 07:38:07),3,TRUE,FALSE,4,FALSE
"143","A124NJNCAG5E6E","Mar 28 2014","07:38:07",3,"Social","Three",4,0,"Switch",0,"tomato",1,"",0,1857,"eyescenter",-1,0,0,1,(Mar 28 2014 07:38:07),3,TRUE,FALSE,4,FALSE
"144","A124NJNCAG5E6E","Mar 28 2014","07:38:07",4,"Social","Three",4,0,"Switch",0,"tomato",2,"",0,1313,"eyescenter",-1,0,0,1,(Mar 28 2014 07:38:07),3,TRUE,FALSE,4,FALSE
"145","A124NJNCAG5E6E","Mar 28 2014","07:38:07",5,"Social","Three",4,0,"Switch",0,"Novel131",0,"Novel115",3,1782,"eyes_left",0,1,0,0,(Mar 28 2014 07:38:07),3,TRUE,FALSE,4,FALSE
"146","A124NJNCAG5E6E","Mar 28 2014","07:38:07",6,"Social","Three",4,1,"Same",1,"Novel46",0,"Novel46",0,1385,"eyes_left",0,1,0,0,(Mar 28 2014 07:38:07),3,TRUE,FALSE,4,TRUE
"147","A124NJNCAG5E6E","Mar 28 2014","07:38:07",7,"Social","Three",4,2,"Switch",1,"Novel6",2,"Novel23",3,1055,"eyes_down_right",2,1,0,0,(Mar 28 2014 07:38:07),3,TRUE,FALSE,4,FALSE
"148","A124NJNCAG5E6E","Mar 28 2014","07:38:07",8,"Social","Three",4,3,"Same",0,"Novel140",0,"Novel140",0,1479,"eyes_left",0,1,0,0,(Mar 28 2014 07:38:07),3,TRUE,FALSE,4,TRUE
"149","A124NJNCAG5E6E","Mar 28 2014","07:38:07",9,"Social","Three",4,0,"Switch",0,"Novel115",0,"Novel115",3,14268,"eyescenter",-1,0,1,0,(Mar 28 2014 07:38:07),3,TRUE,TRUE,4,TRUE
"150","A124NJNCAG5E6E","Mar 28 2014","07:38:07",10,"Social","Three",4,1,"Same",1,"Novel46",0,"Novel46",0,1105,"eyescenter",-1,0,1,0,(Mar 28 2014 07:38:07),3,TRUE,FALSE,4,TRUE
"151","A124NJNCAG5E6E","Mar 28 2014","07:38:07",11,"Social","Three",4,2,"Switch",1,"Novel23",3,"Novel23",3,5299,"eyescenter",-1,0,1,0,(Mar 28 2014 07:38:07),3,TRUE,FALSE,4,TRUE
"152","A124NJNCAG5E6E","Mar 28 2014","07:38:07",12,"Social","Three",4,3,"Same",0,"Novel95",3,"Novel140",0,3099,"eyescenter",-1,0,1,0,(Mar 28 2014 07:38:07),3,TRUE,FALSE,4,FALSE
"153","A124NJNCAG5E6E","Mar 28 2014","07:38:07",13,"Social","Three",4,4,"Switch",0,"Novel132",2,"Novel84",0,2372,"eyes_down_right",2,1,0,0,(Mar 28 2014 07:38:07),3,TRUE,FALSE,4,FALSE
"154","A124NJNCAG5E6E","Mar 28 2014","07:38:07",14,"Social","Three",4,5,"Same",0,"Novel57",3,"Novel57",3,2925,"eyes_right",3,1,0,0,(Mar 28 2014 07:38:07),3,TRUE,FALSE,4,TRUE
"155","A124NJNCAG5E6E","Mar 28 2014","07:38:07",15,"Social","Three",4,6,"Switch",1,"Novel15",3,"Novel10",2,1343,"eyes_right",3,1,0,0,(Mar 28 2014 07:38:07),3,TRUE,FALSE,4,FALSE
"156","A124NJNCAG5E6E","Mar 28 2014","07:38:07",16,"Social","Three",4,7,"Same",1,"Novel113",3,"Novel113",3,1793,"eyes_right",3,1,0,0,(Mar 28 2014 07:38:07),3,TRUE,FALSE,4,TRUE
"157","A124NJNCAG5E6E","Mar 28 2014","07:38:07",17,"Social","Three",4,4,"Switch",0,"Novel84",1,"Novel84",0,4784,"eyescenter",-1,0,1,0,(Mar 28 2014 07:38:07),3,TRUE,FALSE,4,TRUE
"158","A124NJNCAG5E6E","Mar 28 2014","07:38:07",18,"Social","Three",4,5,"Same",0,"Novel57",1,"Novel57",3,1351,"eyescenter",-1,0,1,0,(Mar 28 2014 07:38:07),3,TRUE,FALSE,4,TRUE
"159","A124NJNCAG5E6E","Mar 28 2014","07:38:07",19,"Social","Three",4,6,"Switch",1,"Novel41",1,"Novel10",2,8179,"eyescenter",-1,0,1,0,(Mar 28 2014 07:38:07),3,TRUE,FALSE,4,FALSE
"160","A124NJNCAG5E6E","Mar 28 2014","07:38:07",20,"Social","Three",4,7,"Same",1,"Novel113",3,"Novel113",3,1745,"eyescenter",-1,0,1,0,(Mar 28 2014 07:38:07),3,TRUE,FALSE,4,TRUE
"161","A12UEX0NP4K1S0","Mar 28 2014","21:21:31",1,"Social","Zero",4,0,"Switch",0,"squirrel",0,"",0,2706,"eyescenter",-1,0,0,1,(Mar 28 2014 21:21:31),0,TRUE,FALSE,4,FALSE
"162","A12UEX0NP4K1S0","Mar 28 2014","21:21:31",2,"Social","Zero",4,0,"Switch",0,"squirrel",0,"",0,1473,"eyescenter",-1,0,0,1,(Mar 28 2014 21:21:31),0,TRUE,FALSE,4,FALSE
"163","A12UEX0NP4K1S0","Mar 28 2014","21:21:31",3,"Social","Zero",4,0,"Switch",0,"tomato",1,"",0,1280,"eyescenter",-1,0,0,1,(Mar 28 2014 21:21:31),0,TRUE,FALSE,4,FALSE
"164","A12UEX0NP4K1S0","Mar 28 2014","21:21:31",4,"Social","Zero",4,0,"Switch",0,"tomato",2,"",0,1286,"eyescenter",-1,0,0,1,(Mar 28 2014 21:21:31),0,TRUE,FALSE,4,FALSE
"165","A12UEX0NP4K1S0","Mar 28 2014","21:21:31",5,"Social","Zero",4,0,"Switch",0,"Novel7",2,"Novel112",3,5412,"eyes_down_right",2,1,0,0,(Mar 28 2014 21:21:31),0,TRUE,FALSE,4,FALSE
"166","A12UEX0NP4K1S0","Mar 28 2014","21:21:31",6,"Social","Zero",4,0,"Switch",0,"Novel112",2,"Novel112",3,1956,"eyescenter",-1,0,1,0,(Mar 28 2014 21:21:31),0,TRUE,TRUE,4,TRUE
"167","A12UEX0NP4K1S0","Mar 28 2014","21:21:31",7,"Social","Zero",4,1,"Same",1,"Novel92",1,"Novel92",1,3282,"eyes_right",3,1,0,0,(Mar 28 2014 21:21:31),0,TRUE,FALSE,4,TRUE
"168","A12UEX0NP4K1S0","Mar 28 2014","21:21:31",8,"Social","Zero",4,1,"Same",1,"Novel92",1,"Novel92",1,2656,"eyescenter",-1,0,1,0,(Mar 28 2014 21:21:31),0,TRUE,FALSE,4,TRUE
"169","A12UEX0NP4K1S0","Mar 28 2014","21:21:31",9,"Social","Zero",4,2,"Switch",0,"Novel30",1,"Novel62",0,1397,"eyes_down_left",1,1,0,0,(Mar 28 2014 21:21:31),0,TRUE,FALSE,4,FALSE
"170","A12UEX0NP4K1S0","Mar 28 2014","21:21:31",10,"Social","Zero",4,2,"Switch",0,"Novel102",1,"Novel62",0,2149,"eyescenter",-1,0,1,0,(Mar 28 2014 21:21:31),0,TRUE,FALSE,4,FALSE
"171","A12UEX0NP4K1S0","Mar 28 2014","21:21:31",11,"Social","Zero",4,3,"Same",0,"Novel111",2,"Novel111",2,1360,"eyes_down_right",2,1,0,0,(Mar 28 2014 21:21:31),0,TRUE,FALSE,4,TRUE
"172","A12UEX0NP4K1S0","Mar 28 2014","21:21:31",12,"Social","Zero",4,3,"Same",0,"Novel111",0,"Novel111",2,1042,"eyescenter",-1,0,1,0,(Mar 28 2014 21:21:31),0,TRUE,FALSE,4,TRUE
"173","A12UEX0NP4K1S0","Mar 28 2014","21:21:31",13,"Social","Zero",4,4,"Switch",1,"Novel126",0,"Novel110",3,1283,"eyes_left",0,1,0,0,(Mar 28 2014 21:21:31),0,TRUE,FALSE,4,FALSE
"174","A12UEX0NP4K1S0","Mar 28 2014","21:21:31",14,"Social","Zero",4,4,"Switch",1,"Novel139",2,"Novel110",3,1389,"eyescenter",-1,0,1,0,(Mar 28 2014 21:21:31),0,TRUE,FALSE,4,FALSE
"175","A12UEX0NP4K1S0","Mar 28 2014","21:21:31",15,"Social","Zero",4,5,"Same",1,"Novel54",0,"Novel54",0,3050,"eyes_left",0,1,0,0,(Mar 28 2014 21:21:31),0,TRUE,FALSE,4,TRUE
"176","A12UEX0NP4K1S0","Mar 28 2014","21:21:31",16,"Social","Zero",4,5,"Same",1,"Novel54",0,"Novel54",0,494,"eyescenter",-1,0,1,0,(Mar 28 2014 21:21:31),0,TRUE,FALSE,4,TRUE
"177","A12UEX0NP4K1S0","Mar 28 2014","21:21:31",17,"Social","Zero",4,6,"Switch",1,"Novel123",1,"Novel79",2,1023,"eyes_down_left",1,1,0,0,(Mar 28 2014 21:21:31),0,TRUE,FALSE,4,FALSE
"178","A12UEX0NP4K1S0","Mar 28 2014","21:21:31",18,"Social","Zero",4,6,"Switch",1,"Novel79",2,"Novel79",2,704,"eyescenter",-1,0,1,0,(Mar 28 2014 21:21:31),0,TRUE,FALSE,4,TRUE
"179","A12UEX0NP4K1S0","Mar 28 2014","21:21:31",19,"Social","Zero",4,7,"Same",0,"Novel39",1,"Novel39",1,835,"eyes_down_left",1,1,0,0,(Mar 28 2014 21:21:31),0,TRUE,FALSE,4,TRUE
"180","A12UEX0NP4K1S0","Mar 28 2014","21:21:31",20,"Social","Zero",4,7,"Same",0,"Novel39",3,"Novel39",1,451,"eyescenter",-1,0,1,0,(Mar 28 2014 21:21:31),0,TRUE,FALSE,4,TRUE
"181","A138VDJMRYB6M2","Mar 28 2014","19:41:05",1,"Social","Three",4,0,"Same",1,"squirrel",0,"",0,3343,"eyescenter",-1,0,0,1,(Mar 28 2014 19:41:05),3,TRUE,FALSE,4,FALSE
"182","A138VDJMRYB6M2","Mar 28 2014","19:41:05",2,"Social","Three",4,0,"Same",1,"squirrel",0,"",0,2502,"eyescenter",-1,0,0,1,(Mar 28 2014 19:41:05),3,TRUE,FALSE,4,FALSE
"183","A138VDJMRYB6M2","Mar 28 2014","19:41:05",3,"Social","Three",4,0,"Same",1,"tomato",1,"",0,1954,"eyescenter",-1,0,0,1,(Mar 28 2014 19:41:05),3,TRUE,FALSE,4,FALSE
"184","A138VDJMRYB6M2","Mar 28 2014","19:41:05",4,"Social","Three",4,0,"Same",1,"tomato",2,"",0,2133,"eyescenter",-1,0,0,1,(Mar 28 2014 19:41:05),3,TRUE,FALSE,4,FALSE
"185","A138VDJMRYB6M2","Mar 28 2014","19:41:05",5,"Social","Three",4,0,"Same",1,"Novel35",2,"Novel35",2,4670,"eyes_down_left",1,1,0,0,(Mar 28 2014 19:41:05),3,TRUE,FALSE,4,TRUE
"186","A138VDJMRYB6M2","Mar 28 2014","19:41:05",6,"Social","Three",4,1,"Switch",0,"Novel95",3,"Novel102",2,6261,"eyes_down_left",1,1,0,0,(Mar 28 2014 19:41:05),3,TRUE,FALSE,4,FALSE
"187","A138VDJMRYB6M2","Mar 28 2014","19:41:05",7,"Social","Three",4,2,"Same",0,"Novel94",3,"Novel94",3,1654,"eyes_down_right",2,1,0,0,(Mar 28 2014 19:41:05),3,TRUE,FALSE,4,TRUE
"188","A138VDJMRYB6M2","Mar 28 2014","19:41:05",8,"Social","Three",4,3,"Switch",0,"Novel20",3,"Novel11",2,6051,"eyes_left",0,1,0,0,(Mar 28 2014 19:41:05),3,TRUE,FALSE,4,FALSE
"189","A138VDJMRYB6M2","Mar 28 2014","19:41:05",9,"Social","Three",4,0,"Same",1,"Novel35",2,"Novel35",2,2614,"eyescenter",-1,0,1,0,(Mar 28 2014 19:41:05),3,TRUE,TRUE,4,TRUE
"190","A138VDJMRYB6M2","Mar 28 2014","19:41:05",10,"Social","Three",4,1,"Switch",0,"Novel89",1,"Novel102",2,6276,"eyescenter",-1,0,1,0,(Mar 28 2014 19:41:05),3,TRUE,FALSE,4,FALSE
"191","A138VDJMRYB6M2","Mar 28 2014","19:41:05",11,"Social","Three",4,2,"Same",0,"Novel94",1,"Novel94",3,1084,"eyescenter",-1,0,1,0,(Mar 28 2014 19:41:05),3,TRUE,FALSE,4,TRUE
"192","A138VDJMRYB6M2","Mar 28 2014","19:41:05",12,"Social","Three",4,3,"Switch",0,"Novel11",0,"Novel11",2,5090,"eyescenter",-1,0,1,0,(Mar 28 2014 19:41:05),3,TRUE,FALSE,4,TRUE
"193","A138VDJMRYB6M2","Mar 28 2014","19:41:05",13,"Social","Three",4,4,"Same",0,"Novel65",2,"Novel65",2,6123,"eyes_left",0,1,0,0,(Mar 28 2014 19:41:05),3,TRUE,FALSE,4,TRUE
"194","A138VDJMRYB6M2","Mar 28 2014","19:41:05",14,"Social","Three",4,5,"Switch",1,"Novel131",2,"Novel14",1,2617,"eyes_down_right",2,1,0,0,(Mar 28 2014 19:41:05),3,TRUE,FALSE,4,FALSE
"195","A138VDJMRYB6M2","Mar 28 2014","19:41:05",15,"Social","Three",4,6,"Same",1,"Novel75",3,"Novel75",3,2961,"eyes_right",3,1,0,0,(Mar 28 2014 19:41:05),3,TRUE,FALSE,4,TRUE
"196","A138VDJMRYB6M2","Mar 28 2014","19:41:05",16,"Social","Three",4,7,"Switch",1,"Novel44",3,"Novel64",1,3137,"eyes_right",3,1,0,0,(Mar 28 2014 19:41:05),3,TRUE,FALSE,4,FALSE
"197","A138VDJMRYB6M2","Mar 28 2014","19:41:05",17,"Social","Three",4,4,"Same",0,"Novel65",1,"Novel65",2,2463,"eyescenter",-1,0,1,0,(Mar 28 2014 19:41:05),3,TRUE,FALSE,4,TRUE
"198","A138VDJMRYB6M2","Mar 28 2014","19:41:05",18,"Social","Three",4,5,"Switch",1,"Novel17",0,"Novel14",1,4452,"eyescenter",-1,0,1,0,(Mar 28 2014 19:41:05),3,TRUE,FALSE,4,FALSE
"199","A138VDJMRYB6M2","Mar 28 2014","19:41:05",19,"Social","Three",4,6,"Same",1,"Novel75",3,"Novel75",3,2557,"eyescenter",-1,0,1,0,(Mar 28 2014 19:41:05),3,TRUE,FALSE,4,TRUE
"200","A138VDJMRYB6M2","Mar 28 2014","19:41:05",20,"Social","Three",4,7,"Switch",1,"Novel115",0,"Novel64",1,6281,"eyescenter",-1,0,1,0,(Mar 28 2014 19:41:05),3,TRUE,FALSE,4,FALSE
"201","A13GK9NRFTRNA3","Mar 27 2014","22:12:43",1,"Social","Three",4,0,"Switch",0,"squirrel",0,"",0,2260,"eyescenter",-1,0,0,1,(Mar 27 2014 22:12:43),3,TRUE,FALSE,4,FALSE
"202","A13GK9NRFTRNA3","Mar 27 2014","22:12:43",2,"Social","Three",4,0,"Switch",0,"squirrel",0,"",0,1334,"eyescenter",-1,0,0,1,(Mar 27 2014 22:12:43),3,TRUE,FALSE,4,FALSE
"203","A13GK9NRFTRNA3","Mar 27 2014","22:12:43",3,"Social","Three",4,0,"Switch",0,"tomato",1,"",0,1966,"eyescenter",-1,0,0,1,(Mar 27 2014 22:12:43),3,TRUE,FALSE,4,FALSE
"204","A13GK9NRFTRNA3","Mar 27 2014","22:12:43",4,"Social","Three",4,0,"Switch",0,"tomato",2,"",0,1023,"eyescenter",-1,0,0,1,(Mar 27 2014 22:12:43),3,TRUE,FALSE,4,FALSE
"205","A13GK9NRFTRNA3","Mar 27 2014","22:12:43",5,"Social","Three",4,0,"Switch",0,"Novel129",1,"Novel5",3,6693,"eyes_down_left",1,1,0,0,(Mar 27 2014 22:12:43),3,TRUE,FALSE,4,FALSE
"206","A13GK9NRFTRNA3","Mar 27 2014","22:12:43",6,"Social","Three",4,1,"Same",0,"Novel19",2,"Novel19",2,1243,"eyes_down_right",2,1,0,0,(Mar 27 2014 22:12:43),3,TRUE,FALSE,4,TRUE
"207","A13GK9NRFTRNA3","Mar 27 2014","22:12:43",7,"Social","Three",4,2,"Switch",1,"Novel92",3,"Novel14",2,3397,"eyes_right",3,1,0,0,(Mar 27 2014 22:12:43),3,TRUE,FALSE,4,FALSE
"208","A13GK9NRFTRNA3","Mar 27 2014","22:12:43",8,"Social","Three",4,3,"Same",1,"Novel3",2,"Novel3",2,1547,"eyes_down_right",2,1,0,0,(Mar 27 2014 22:12:43),3,TRUE,FALSE,4,TRUE
"209","A13GK9NRFTRNA3","Mar 27 2014","22:12:43",9,"Social","Three",4,0,"Switch",0,"Novel104",0,"Novel5",3,3129,"eyescenter",-1,0,1,0,(Mar 27 2014 22:12:43),3,TRUE,TRUE,4,FALSE
"210","A13GK9NRFTRNA3","Mar 27 2014","22:12:43",10,"Social","Three",4,1,"Same",0,"Novel28",1,"Novel19",2,2371,"eyescenter",-1,0,1,0,(Mar 27 2014 22:12:43),3,TRUE,FALSE,4,FALSE
"211","A13GK9NRFTRNA3","Mar 27 2014","22:12:43",11,"Social","Three",4,2,"Switch",1,"Novel14",2,"Novel14",2,4227,"eyescenter",-1,0,1,0,(Mar 27 2014 22:12:43),3,TRUE,FALSE,4,TRUE
"212","A13GK9NRFTRNA3","Mar 27 2014","22:12:43",12,"Social","Three",4,3,"Same",1,"Novel91",1,"Novel3",2,1974,"eyescenter",-1,0,1,0,(Mar 27 2014 22:12:43),3,TRUE,FALSE,4,FALSE
"213","A13GK9NRFTRNA3","Mar 27 2014","22:12:43",13,"Social","Three",4,4,"Switch",1,"Novel29",0,"Novel70",1,948,"eyes_left",0,1,0,0,(Mar 27 2014 22:12:43),3,TRUE,FALSE,4,FALSE
"214","A13GK9NRFTRNA3","Mar 27 2014","22:12:43",14,"Social","Three",4,5,"Same",1,"Novel58",2,"Novel58",2,1081,"eyes_down_right",2,1,0,0,(Mar 27 2014 22:12:43),3,TRUE,FALSE,4,TRUE
"215","A13GK9NRFTRNA3","Mar 27 2014","22:12:43",15,"Social","Three",4,6,"Switch",0,"Novel10",0,"Novel120",2,745,"eyes_left",0,1,0,0,(Mar 27 2014 22:12:43),3,TRUE,FALSE,4,FALSE
"216","A13GK9NRFTRNA3","Mar 27 2014","22:12:43",16,"Social","Three",4,7,"Same",0,"Novel111",0,"Novel111",0,5196,"eyes_left",0,1,0,0,(Mar 27 2014 22:12:43),3,TRUE,FALSE,4,TRUE
"217","A13GK9NRFTRNA3","Mar 27 2014","22:12:43",17,"Social","Three",4,4,"Switch",1,"Novel70",1,"Novel70",1,5431,"eyescenter",-1,0,1,0,(Mar 27 2014 22:12:43),3,TRUE,FALSE,4,TRUE
"218","A13GK9NRFTRNA3","Mar 27 2014","22:12:43",18,"Social","Three",4,5,"Same",1,"Novel58",2,"Novel58",2,1914,"eyescenter",-1,0,1,0,(Mar 27 2014 22:12:43),3,TRUE,FALSE,4,TRUE
"219","A13GK9NRFTRNA3","Mar 27 2014","22:12:43",19,"Social","Three",4,6,"Switch",0,"Novel126",0,"Novel120",2,2792,"eyescenter",-1,0,1,0,(Mar 27 2014 22:12:43),3,TRUE,FALSE,4,FALSE
"220","A13GK9NRFTRNA3","Mar 27 2014","22:12:43",20,"Social","Three",4,7,"Same",0,"Novel108",1,"Novel111",0,1505,"eyescenter",-1,0,1,0,(Mar 27 2014 22:12:43),3,TRUE,FALSE,4,FALSE
"221","A14GSKVEQOSIFD","Mar 28 2014","20:12:00",1,"No-Social","Three",4,0,"Switch",1,"squirrel",0,"",0,3558,"eyescenter",-1,0,0,1,(Mar 28 2014 20:12:00),3,TRUE,FALSE,4,FALSE
"222","A14GSKVEQOSIFD","Mar 28 2014","20:12:00",2,"No-Social","Three",4,0,"Switch",1,"squirrel",0,"",0,2564,"eyescenter",-1,0,0,1,(Mar 28 2014 20:12:00),3,TRUE,FALSE,4,FALSE
"223","A14GSKVEQOSIFD","Mar 28 2014","20:12:00",3,"No-Social","Three",4,0,"Switch",1,"tomato",1,"",0,1643,"eyescenter",-1,0,0,1,(Mar 28 2014 20:12:00),3,TRUE,FALSE,4,FALSE
"224","A14GSKVEQOSIFD","Mar 28 2014","20:12:00",4,"No-Social","Three",4,0,"Switch",1,"tomato",2,"",0,1581,"eyescenter",-1,0,0,1,(Mar 28 2014 20:12:00),3,TRUE,FALSE,4,FALSE
"225","A14GSKVEQOSIFD","Mar 28 2014","20:12:00",5,"No-Social","Three",4,0,"Switch",1,"Novel58",2,"Novel94",1,5449,"eyescenter",-1,1,0,0,(Mar 28 2014 20:12:00),3,TRUE,FALSE,4,FALSE
"226","A14GSKVEQOSIFD","Mar 28 2014","20:12:00",6,"No-Social","Three",4,1,"Same",0,"Novel98",3,"Novel98",3,5298,"eyescenter",-1,1,0,0,(Mar 28 2014 20:12:00),3,TRUE,FALSE,4,TRUE
"227","A14GSKVEQOSIFD","Mar 28 2014","20:12:00",7,"No-Social","Three",4,2,"Switch",1,"Novel66",0,"Novel37",2,5628,"eyescenter",-1,1,0,0,(Mar 28 2014 20:12:00),3,TRUE,FALSE,4,FALSE
"228","A14GSKVEQOSIFD","Mar 28 2014","20:12:00",8,"No-Social","Three",4,3,"Same",1,"Novel115",0,"Novel115",0,5141,"eyescenter",-1,1,0,0,(Mar 28 2014 20:12:00),3,TRUE,FALSE,4,TRUE
"229","A14GSKVEQOSIFD","Mar 28 2014","20:12:00",9,"No-Social","Three",4,0,"Switch",1,"Novel94",1,"Novel94",1,6952,"eyescenter",-1,0,1,0,(Mar 28 2014 20:12:00),3,TRUE,TRUE,4,TRUE
"230","A14GSKVEQOSIFD","Mar 28 2014","20:12:00",10,"No-Social","Three",4,1,"Same",0,"Novel98",1,"Novel98",3,3706,"eyescenter",-1,0,1,0,(Mar 28 2014 20:12:00),3,TRUE,FALSE,4,TRUE
"231","A14GSKVEQOSIFD","Mar 28 2014","20:12:00",11,"No-Social","Three",4,2,"Switch",1,"Novel37",2,"Novel37",2,4981,"eyescenter",-1,0,1,0,(Mar 28 2014 20:12:00),3,TRUE,FALSE,4,TRUE
"232","A14GSKVEQOSIFD","Mar 28 2014","20:12:00",12,"No-Social","Three",4,3,"Same",1,"Novel115",0,"Novel115",0,7627,"eyescenter",-1,0,1,0,(Mar 28 2014 20:12:00),3,TRUE,FALSE,4,TRUE
"233","A14GSKVEQOSIFD","Mar 28 2014","20:12:00",13,"No-Social","Three",4,4,"Switch",0,"Novel79",1,"Novel4",0,9540,"eyescenter",-1,1,0,0,(Mar 28 2014 20:12:00),3,TRUE,FALSE,4,FALSE
"234","A14GSKVEQOSIFD","Mar 28 2014","20:12:00",14,"No-Social","Three",4,5,"Same",0,"Novel12",3,"Novel12",3,5094,"eyescenter",-1,1,0,0,(Mar 28 2014 20:12:00),3,TRUE,FALSE,4,TRUE
"235","A14GSKVEQOSIFD","Mar 28 2014","20:12:00",15,"No-Social","Three",4,6,"Switch",0,"Novel113",1,"Novel121",2,1486,"eyescenter",-1,1,0,0,(Mar 28 2014 20:12:00),3,TRUE,FALSE,4,FALSE
"236","A14GSKVEQOSIFD","Mar 28 2014","20:12:00",16,"No-Social","Three",4,7,"Same",1,"Novel71",2,"Novel71",2,1928,"eyescenter",-1,1,0,0,(Mar 28 2014 20:12:00),3,TRUE,FALSE,4,TRUE
"237","A14GSKVEQOSIFD","Mar 28 2014","20:12:00",17,"No-Social","Three",4,4,"Switch",0,"Novel4",1,"Novel4",0,3507,"eyescenter",-1,0,1,0,(Mar 28 2014 20:12:00),3,TRUE,FALSE,4,TRUE
"238","A14GSKVEQOSIFD","Mar 28 2014","20:12:00",18,"No-Social","Three",4,5,"Same",0,"Novel12",1,"Novel12",3,2191,"eyescenter",-1,0,1,0,(Mar 28 2014 20:12:00),3,TRUE,FALSE,4,TRUE
"239","A14GSKVEQOSIFD","Mar 28 2014","20:12:00",19,"No-Social","Three",4,6,"Switch",0,"Novel125",1,"Novel121",2,2540,"eyescenter",-1,0,1,0,(Mar 28 2014 20:12:00),3,TRUE,FALSE,4,FALSE
"240","A14GSKVEQOSIFD","Mar 28 2014","20:12:00",20,"No-Social","Three",4,7,"Same",1,"Novel71",2,"Novel71",2,3681,"eyescenter",-1,0,1,0,(Mar 28 2014 20:12:00),3,TRUE,FALSE,4,TRUE
"241","A14TUQWRYXZP5E","Mar 27 2014","18:53:15",1,"Social","One",4,0,"Switch",0,"squirrel",0,"",0,2757,"eyescenter",-1,0,0,1,(Mar 27 2014 18:53:15),1,TRUE,FALSE,4,FALSE
"242","A14TUQWRYXZP5E","Mar 27 2014","18:53:15",2,"Social","One",4,0,"Switch",0,"squirrel",0,"",0,1329,"eyescenter",-1,0,0,1,(Mar 27 2014 18:53:15),1,TRUE,FALSE,4,FALSE
"243","A14TUQWRYXZP5E","Mar 27 2014","18:53:15",3,"Social","One",4,0,"Switch",0,"tomato",1,"",0,3400,"eyescenter",-1,0,0,1,(Mar 27 2014 18:53:15),1,TRUE,FALSE,4,FALSE
"244","A14TUQWRYXZP5E","Mar 27 2014","18:53:15",4,"Social","One",4,0,"Switch",0,"tomato",2,"",0,1299,"eyescenter",-1,0,0,1,(Mar 27 2014 18:53:15),1,TRUE,FALSE,4,FALSE
"245","A14TUQWRYXZP5E","Mar 27 2014","18:53:15",5,"Social","One",4,0,"Switch",0,"Novel120",1,"Novel121",3,6947,"eyes_down_right",2,1,0,0,(Mar 27 2014 18:53:15),1,TRUE,FALSE,4,FALSE
"246","A14TUQWRYXZP5E","Mar 27 2014","18:53:15",6,"Social","One",4,1,"Same",0,"Novel109",3,"Novel109",3,4512,"eyes_down_right",2,1,0,0,(Mar 27 2014 18:53:15),1,TRUE,FALSE,4,TRUE
"247","A14TUQWRYXZP5E","Mar 27 2014","18:53:15",7,"Social","One",4,0,"Switch",0,"Novel85",3,"Novel121",3,4488,"eyescenter",-1,0,1,0,(Mar 27 2014 18:53:15),1,TRUE,TRUE,4,FALSE
"248","A14TUQWRYXZP5E","Mar 27 2014","18:53:15",8,"Social","One",4,1,"Same",0,"Novel74",3,"Novel109",3,3801,"eyescenter",-1,0,1,0,(Mar 27 2014 18:53:15),1,TRUE,FALSE,4,FALSE
"249","A14TUQWRYXZP5E","Mar 27 2014","18:53:15",9,"Social","One",4,2,"Switch",0,"Novel49",0,"Novel72",1,4202,"eyes_left",0,1,0,0,(Mar 27 2014 18:53:15),1,TRUE,FALSE,4,FALSE
"250","A14TUQWRYXZP5E","Mar 27 2014","18:53:15",10,"Social","One",4,3,"Same",1,"Novel45",2,"Novel45",2,4211,"eyes_left",0,1,0,0,(Mar 27 2014 18:53:15),1,TRUE,FALSE,4,TRUE
"251","A14TUQWRYXZP5E","Mar 27 2014","18:53:15",11,"Social","One",4,2,"Switch",0,"Novel20",2,"Novel72",1,4339,"eyescenter",-1,0,1,0,(Mar 27 2014 18:53:15),1,TRUE,FALSE,4,FALSE
"252","A14TUQWRYXZP5E","Mar 27 2014","18:53:15",12,"Social","One",4,3,"Same",1,"Novel45",2,"Novel45",2,1928,"eyescenter",-1,0,1,0,(Mar 27 2014 18:53:15),1,TRUE,FALSE,4,TRUE
"253","A14TUQWRYXZP5E","Mar 27 2014","18:53:15",13,"Social","One",4,4,"Switch",1,"Novel63",2,"Novel128",0,2585,"eyes_right",3,1,0,0,(Mar 27 2014 18:53:15),1,TRUE,FALSE,4,FALSE
"254","A14TUQWRYXZP5E","Mar 27 2014","18:53:15",14,"Social","One",4,5,"Same",1,"Novel83",1,"Novel83",1,1910,"eyes_down_right",2,1,0,0,(Mar 27 2014 18:53:15),1,TRUE,FALSE,4,TRUE
"255","A14TUQWRYXZP5E","Mar 27 2014","18:53:15",15,"Social","One",4,4,"Switch",1,"Novel117",1,"Novel128",0,1842,"eyescenter",-1,0,1,0,(Mar 27 2014 18:53:15),1,TRUE,FALSE,4,FALSE
"256","A14TUQWRYXZP5E","Mar 27 2014","18:53:15",16,"Social","One",4,5,"Same",1,"Novel83",1,"Novel83",1,2274,"eyescenter",-1,0,1,0,(Mar 27 2014 18:53:15),1,TRUE,FALSE,4,TRUE
"257","A14TUQWRYXZP5E","Mar 27 2014","18:53:15",17,"Social","One",4,6,"Switch",1,"Novel52",0,"Novel5",2,2529,"eyes_left",0,1,0,0,(Mar 27 2014 18:53:15),1,TRUE,FALSE,4,FALSE
"258","A14TUQWRYXZP5E","Mar 27 2014","18:53:15",18,"Social","One",4,7,"Same",0,"Novel78",2,"Novel78",2,2328,"eyes_right",3,1,0,0,(Mar 27 2014 18:53:15),1,TRUE,FALSE,4,TRUE
"259","A14TUQWRYXZP5E","Mar 27 2014","18:53:15",19,"Social","One",4,6,"Switch",1,"Novel6",1,"Novel5",2,2194,"eyescenter",-1,0,1,0,(Mar 27 2014 18:53:15),1,TRUE,FALSE,4,FALSE
"260","A14TUQWRYXZP5E","Mar 27 2014","18:53:15",20,"Social","One",4,7,"Same",0,"Novel78",1,"Novel78",2,4396,"eyescenter",-1,0,1,0,(Mar 27 2014 18:53:15),1,TRUE,FALSE,4,TRUE
"261","A14WLAP6TCEKO0","Mar 27 2014","20:13:25",1,"Social","Seven",4,0,"Same",1,"squirrel",0,"",0,3594,"eyescenter",-1,0,0,1,(Mar 27 2014 20:13:25),7,TRUE,FALSE,4,FALSE
"262","A14WLAP6TCEKO0","Mar 27 2014","20:13:25",2,"Social","Seven",4,0,"Same",1,"squirrel",0,"",0,3475,"eyescenter",-1,0,0,1,(Mar 27 2014 20:13:25),7,TRUE,FALSE,4,FALSE
"263","A14WLAP6TCEKO0","Mar 27 2014","20:13:25",3,"Social","Seven",4,0,"Same",1,"tomato",1,"",0,2060,"eyescenter",-1,0,0,1,(Mar 27 2014 20:13:25),7,TRUE,FALSE,4,FALSE
"264","A14WLAP6TCEKO0","Mar 27 2014","20:13:25",4,"Social","Seven",4,0,"Same",1,"tomato",2,"",0,1639,"eyescenter",-1,0,0,1,(Mar 27 2014 20:13:25),7,TRUE,FALSE,4,FALSE
"265","A14WLAP6TCEKO0","Mar 27 2014","20:13:25",5,"Social","Seven",4,0,"Same",1,"Novel36",1,"Novel36",1,3360,"eyes_down_left",1,1,0,0,(Mar 27 2014 20:13:25),7,TRUE,FALSE,4,TRUE
"266","A14WLAP6TCEKO0","Mar 27 2014","20:13:25",6,"Social","Seven",4,1,"Switch",1,"Novel122",0,"Novel27",3,4453,"eyes_left",0,1,0,0,(Mar 27 2014 20:13:25),7,TRUE,FALSE,4,FALSE
"267","A14WLAP6TCEKO0","Mar 27 2014","20:13:25",7,"Social","Seven",4,2,"Same",1,"Novel83",1,"Novel83",1,2293,"eyes_down_left",1,1,0,0,(Mar 27 2014 20:13:25),7,TRUE,FALSE,4,TRUE
"268","A14WLAP6TCEKO0","Mar 27 2014","20:13:25",8,"Social","Seven",4,3,"Switch",0,"Novel52",2,"Novel44",1,1608,"eyes_down_left",1,1,0,0,(Mar 27 2014 20:13:25),7,TRUE,FALSE,4,FALSE
"269","A14WLAP6TCEKO0","Mar 27 2014","20:13:25",9,"Social","Seven",4,4,"Same",0,"Novel69",0,"Novel69",0,1349,"eyes_left",0,1,0,0,(Mar 27 2014 20:13:25),7,TRUE,FALSE,4,TRUE
"270","A14WLAP6TCEKO0","Mar 27 2014","20:13:25",10,"Social","Seven",4,5,"Switch",1,"Novel25",3,"Novel74",1,1613,"eyes_left",0,1,0,0,(Mar 27 2014 20:13:25),7,TRUE,FALSE,4,FALSE
"271","A14WLAP6TCEKO0","Mar 27 2014","20:13:25",11,"Social","Seven",4,6,"Same",0,"Novel113",2,"Novel113",2,2461,"eyes_down_right",2,1,0,0,(Mar 27 2014 20:13:25),7,TRUE,FALSE,4,TRUE
"272","A14WLAP6TCEKO0","Mar 27 2014","20:13:25",12,"Social","Seven",4,7,"Switch",0,"Novel39",2,"Novel18",1,1380,"eyes_right",3,1,0,0,(Mar 27 2014 20:13:25),7,TRUE,FALSE,4,FALSE
"273","A14WLAP6TCEKO0","Mar 27 2014","20:13:25",13,"Social","Seven",4,0,"Same",1,"Novel36",1,"Novel36",1,4418,"eyescenter",-1,0,1,0,(Mar 27 2014 20:13:25),7,TRUE,TRUE,4,TRUE
"274","A14WLAP6TCEKO0","Mar 27 2014","20:13:25",14,"Social","Seven",4,1,"Switch",1,"Novel27",3,"Novel27",3,2423,"eyescenter",-1,0,1,0,(Mar 27 2014 20:13:25),7,TRUE,FALSE,4,TRUE
"275","A14WLAP6TCEKO0","Mar 27 2014","20:13:25",15,"Social","Seven",4,2,"Same",1,"Novel83",1,"Novel83",1,1994,"eyescenter",-1,0,1,0,(Mar 27 2014 20:13:25),7,TRUE,FALSE,4,TRUE
"276","A14WLAP6TCEKO0","Mar 27 2014","20:13:25",16,"Social","Seven",4,3,"Switch",0,"Novel37",3,"Novel44",1,1747,"eyescenter",-1,0,1,0,(Mar 27 2014 20:13:25),7,TRUE,FALSE,4,FALSE
"277","A14WLAP6TCEKO0","Mar 27 2014","20:13:25",17,"Social","Seven",4,4,"Same",0,"Novel69",2,"Novel69",0,1731,"eyescenter",-1,0,1,0,(Mar 27 2014 20:13:25),7,TRUE,FALSE,4,TRUE
"278","A14WLAP6TCEKO0","Mar 27 2014","20:13:25",18,"Social","Seven",4,5,"Switch",1,"Novel62",0,"Novel74",1,1930,"eyescenter",-1,0,1,0,(Mar 27 2014 20:13:25),7,TRUE,FALSE,4,FALSE
"279","A14WLAP6TCEKO0","Mar 27 2014","20:13:25",19,"Social","Seven",4,6,"Same",0,"Novel76",1,"Novel113",2,1539,"eyescenter",-1,0,1,0,(Mar 27 2014 20:13:25),7,TRUE,FALSE,4,FALSE
"280","A14WLAP6TCEKO0","Mar 27 2014","20:13:25",20,"Social","Seven",4,7,"Switch",0,"Novel78",2,"Novel18",1,1418,"eyescenter",-1,0,1,0,(Mar 27 2014 20:13:25),7,TRUE,FALSE,4,FALSE
"301","A15Q75YF0AQSAH","Mar 28 2014","18:19:29",1,"No-Social","Zero",4,0,"Same",1,"squirrel",0,"",0,18329,"eyescenter",-1,0,0,1,(Mar 28 2014 18:19:29),0,TRUE,FALSE,4,FALSE
"302","A15Q75YF0AQSAH","Mar 28 2014","18:19:29",2,"No-Social","Zero",4,0,"Same",1,"squirrel",0,"",0,3957,"eyescenter",-1,0,0,1,(Mar 28 2014 18:19:29),0,TRUE,FALSE,4,FALSE
"303","A15Q75YF0AQSAH","Mar 28 2014","18:19:29",3,"No-Social","Zero",4,0,"Same",1,"tomato",1,"",0,1232,"eyescenter",-1,0,0,1,(Mar 28 2014 18:19:29),0,TRUE,FALSE,4,FALSE
"304","A15Q75YF0AQSAH","Mar 28 2014","18:19:29",4,"No-Social","Zero",4,0,"Same",1,"tomato",2,"",0,2120,"eyescenter",-1,0,0,1,(Mar 28 2014 18:19:29),0,TRUE,FALSE,4,FALSE
"305","A15Q75YF0AQSAH","Mar 28 2014","18:19:29",5,"No-Social","Zero",4,0,"Same",1,"Novel69",3,"Novel69",3,12734,"eyescenter",-1,1,0,0,(Mar 28 2014 18:19:29),0,TRUE,FALSE,4,TRUE
"306","A15Q75YF0AQSAH","Mar 28 2014","18:19:29",6,"No-Social","Zero",4,0,"Same",1,"Novel69",3,"Novel69",3,5816,"eyescenter",-1,0,1,0,(Mar 28 2014 18:19:29),0,TRUE,TRUE,4,TRUE
"307","A15Q75YF0AQSAH","Mar 28 2014","18:19:29",7,"No-Social","Zero",4,1,"Switch",0,"Novel121",2,"Novel61",3,4201,"eyescenter",-1,1,0,0,(Mar 28 2014 18:19:29),0,TRUE,FALSE,4,FALSE
"308","A15Q75YF0AQSAH","Mar 28 2014","18:19:29",8,"No-Social","Zero",4,1,"Switch",0,"Novel133",0,"Novel61",3,4659,"eyescenter",-1,0,1,0,(Mar 28 2014 18:19:29),0,TRUE,FALSE,4,FALSE
"309","A15Q75YF0AQSAH","Mar 28 2014","18:19:29",9,"No-Social","Zero",4,2,"Same",1,"Novel122",3,"Novel122",3,3497,"eyescenter",-1,1,0,0,(Mar 28 2014 18:19:29),0,TRUE,FALSE,4,TRUE
"310","A15Q75YF0AQSAH","Mar 28 2014","18:19:29",10,"No-Social","Zero",4,2,"Same",1,"Novel122",3,"Novel122",3,985,"eyescenter",-1,0,1,0,(Mar 28 2014 18:19:29),0,TRUE,FALSE,4,TRUE
"311","A15Q75YF0AQSAH","Mar 28 2014","18:19:29",11,"No-Social","Zero",4,3,"Switch",1,"Novel119",0,"Novel33",2,6498,"eyescenter",-1,1,0,0,(Mar 28 2014 18:19:29),0,TRUE,FALSE,4,FALSE
"312","A15Q75YF0AQSAH","Mar 28 2014","18:19:29",12,"No-Social","Zero",4,3,"Switch",1,"Novel33",2,"Novel33",2,2611,"eyescenter",-1,0,1,0,(Mar 28 2014 18:19:29),0,TRUE,FALSE,4,TRUE
"313","A15Q75YF0AQSAH","Mar 28 2014","18:19:29",13,"No-Social","Zero",4,4,"Same",0,"Novel97",3,"Novel97",3,2106,"eyescenter",-1,1,0,0,(Mar 28 2014 18:19:29),0,TRUE,FALSE,4,TRUE
"314","A15Q75YF0AQSAH","Mar 28 2014","18:19:29",14,"No-Social","Zero",4,4,"Same",0,"Novel97",1,"Novel97",3,673,"eyescenter",-1,0,1,0,(Mar 28 2014 18:19:29),0,TRUE,FALSE,4,TRUE
"315","A15Q75YF0AQSAH","Mar 28 2014","18:19:29",15,"No-Social","Zero",4,5,"Switch",1,"Novel51",3,"Novel105",1,1994,"eyescenter",-1,1,0,0,(Mar 28 2014 18:19:29),0,TRUE,FALSE,4,FALSE
"316","A15Q75YF0AQSAH","Mar 28 2014","18:19:29",16,"No-Social","Zero",4,5,"Switch",1,"Novel32",2,"Novel105",1,2210,"eyescenter",-1,0,1,0,(Mar 28 2014 18:19:29),0,TRUE,FALSE,4,FALSE
"317","A15Q75YF0AQSAH","Mar 28 2014","18:19:29",17,"No-Social","Zero",4,6,"Same",0,"Novel94",3,"Novel94",3,1723,"eyescenter",-1,1,0,0,(Mar 28 2014 18:19:29),0,TRUE,FALSE,4,TRUE
"318","A15Q75YF0AQSAH","Mar 28 2014","18:19:29",18,"No-Social","Zero",4,6,"Same",0,"Novel94",2,"Novel94",3,334,"eyescenter",-1,0,1,0,(Mar 28 2014 18:19:29),0,TRUE,FALSE,4,TRUE
"319","A15Q75YF0AQSAH","Mar 28 2014","18:19:29",19,"No-Social","Zero",4,7,"Switch",0,"Novel3",3,"Novel48",0,1649,"eyescenter",-1,1,0,0,(Mar 28 2014 18:19:29),0,TRUE,FALSE,4,FALSE
"320","A15Q75YF0AQSAH","Mar 28 2014","18:19:29",20,"No-Social","Zero",4,7,"Switch",0,"Novel48",2,"Novel48",0,785,"eyescenter",-1,0,1,0,(Mar 28 2014 18:19:29),0,TRUE,FALSE,4,TRUE
"321","A15TKPS92CNG8X","Mar 28 2014","08:29:05",1,"No-Social","Zero",4,0,"Switch",0,"squirrel",0,"",0,2745,"eyescenter",-1,0,0,1,(Mar 28 2014 08:29:05),0,TRUE,FALSE,4,FALSE
"322","A15TKPS92CNG8X","Mar 28 2014","08:29:05",2,"No-Social","Zero",4,0,"Switch",0,"squirrel",0,"",0,2291,"eyescenter",-1,0,0,1,(Mar 28 2014 08:29:05),0,TRUE,FALSE,4,FALSE
"323","A15TKPS92CNG8X","Mar 28 2014","08:29:05",3,"No-Social","Zero",4,0,"Switch",0,"tomato",1,"",0,2719,"eyescenter",-1,0,0,1,(Mar 28 2014 08:29:05),0,TRUE,FALSE,4,FALSE
"324","A15TKPS92CNG8X","Mar 28 2014","08:29:05",4,"No-Social","Zero",4,0,"Switch",0,"tomato",2,"",0,1575,"eyescenter",-1,0,0,1,(Mar 28 2014 08:29:05),0,TRUE,FALSE,4,FALSE
"325","A15TKPS92CNG8X","Mar 28 2014","08:29:05",5,"No-Social","Zero",4,0,"Switch",0,"Novel34",2,"Novel140",1,17253,"eyescenter",-1,1,0,0,(Mar 28 2014 08:29:05),0,TRUE,FALSE,4,FALSE
"326","A15TKPS92CNG8X","Mar 28 2014","08:29:05",6,"No-Social","Zero",4,0,"Switch",0,"Novel140",2,"Novel140",1,6400,"eyescenter",-1,0,1,0,(Mar 28 2014 08:29:05),0,TRUE,TRUE,4,TRUE
"327","A15TKPS92CNG8X","Mar 28 2014","08:29:05",7,"No-Social","Zero",4,1,"Same",1,"Novel102",0,"Novel102",0,3680,"eyescenter",-1,1,0,0,(Mar 28 2014 08:29:05),0,TRUE,FALSE,4,TRUE
"328","A15TKPS92CNG8X","Mar 28 2014","08:29:05",8,"No-Social","Zero",4,1,"Same",1,"Novel102",0,"Novel102",0,1967,"eyescenter",-1,0,1,0,(Mar 28 2014 08:29:05),0,TRUE,FALSE,4,TRUE
"329","A15TKPS92CNG8X","Mar 28 2014","08:29:05",9,"No-Social","Zero",4,2,"Switch",0,"Novel86",3,"Novel79",0,4491,"eyescenter",-1,1,0,0,(Mar 28 2014 08:29:05),0,TRUE,FALSE,4,FALSE
"330","A15TKPS92CNG8X","Mar 28 2014","08:29:05",10,"No-Social","Zero",4,2,"Switch",0,"Novel79",2,"Novel79",0,4348,"eyescenter",-1,0,1,0,(Mar 28 2014 08:29:05),0,TRUE,FALSE,4,TRUE
"331","A15TKPS92CNG8X","Mar 28 2014","08:29:05",11,"No-Social","Zero",4,3,"Same",1,"Novel108",2,"Novel108",2,4966,"eyescenter",-1,1,0,0,(Mar 28 2014 08:29:05),0,TRUE,FALSE,4,TRUE
"332","A15TKPS92CNG8X","Mar 28 2014","08:29:05",12,"No-Social","Zero",4,3,"Same",1,"Novel108",2,"Novel108",2,2096,"eyescenter",-1,0,1,0,(Mar 28 2014 08:29:05),0,TRUE,FALSE,4,TRUE
"333","A15TKPS92CNG8X","Mar 28 2014","08:29:05",13,"No-Social","Zero",4,4,"Switch",1,"Novel85",0,"Novel17",2,3295,"eyescenter",-1,1,0,0,(Mar 28 2014 08:29:05),0,TRUE,FALSE,4,FALSE
"334","A15TKPS92CNG8X","Mar 28 2014","08:29:05",14,"No-Social","Zero",4,4,"Switch",1,"Novel17",2,"Novel17",2,2896,"eyescenter",-1,0,1,0,(Mar 28 2014 08:29:05),0,TRUE,FALSE,4,TRUE
"335","A15TKPS92CNG8X","Mar 28 2014","08:29:05",15,"No-Social","Zero",4,5,"Same",0,"Novel18",1,"Novel18",1,3250,"eyescenter",-1,1,0,0,(Mar 28 2014 08:29:05),0,TRUE,FALSE,4,TRUE
"336","A15TKPS92CNG8X","Mar 28 2014","08:29:05",16,"No-Social","Zero",4,5,"Same",0,"Novel18",3,"Novel18",1,4804,"eyescenter",-1,0,1,0,(Mar 28 2014 08:29:05),0,TRUE,FALSE,4,TRUE
"337","A15TKPS92CNG8X","Mar 28 2014","08:29:05",17,"No-Social","Zero",4,6,"Switch",1,"Novel8",1,"Novel66",0,3311,"eyescenter",-1,1,0,0,(Mar 28 2014 08:29:05),0,TRUE,FALSE,4,FALSE
"338","A15TKPS92CNG8X","Mar 28 2014","08:29:05",18,"No-Social","Zero",4,6,"Switch",1,"Novel64",1,"Novel66",0,4352,"eyescenter",-1,0,1,0,(Mar 28 2014 08:29:05),0,TRUE,FALSE,4,FALSE
"339","A15TKPS92CNG8X","Mar 28 2014","08:29:05",19,"No-Social","Zero",4,7,"Same",0,"Novel97",2,"Novel97",2,3339,"eyescenter",-1,1,0,0,(Mar 28 2014 08:29:05),0,TRUE,FALSE,4,TRUE
"340","A15TKPS92CNG8X","Mar 28 2014","08:29:05",20,"No-Social","Zero",4,7,"Same",0,"Novel97",0,"Novel97",2,1776,"eyescenter",-1,0,1,0,(Mar 28 2014 08:29:05),0,TRUE,FALSE,4,TRUE
"341","A167SYXGXFU7C8","Mar 28 2014","04:22:22",1,"No-Social","Three",4,0,"Same",0,"squirrel",0,"",0,5901,"eyescenter",-1,0,0,1,(Mar 28 2014 04:22:22),3,TRUE,FALSE,4,FALSE
"342","A167SYXGXFU7C8","Mar 28 2014","04:22:22",2,"No-Social","Three",4,0,"Same",0,"squirrel",0,"",0,1916,"eyescenter",-1,0,0,1,(Mar 28 2014 04:22:22),3,TRUE,FALSE,4,FALSE
"343","A167SYXGXFU7C8","Mar 28 2014","04:22:22",3,"No-Social","Three",4,0,"Same",0,"tomato",1,"",0,2419,"eyescenter",-1,0,0,1,(Mar 28 2014 04:22:22),3,TRUE,FALSE,4,FALSE
"344","A167SYXGXFU7C8","Mar 28 2014","04:22:22",4,"No-Social","Three",4,0,"Same",0,"tomato",2,"",0,1328,"eyescenter",-1,0,0,1,(Mar 28 2014 04:22:22),3,TRUE,FALSE,4,FALSE
"345","A167SYXGXFU7C8","Mar 28 2014","04:22:22",5,"No-Social","Three",4,0,"Same",0,"Novel99",3,"Novel99",3,4572,"eyescenter",-1,1,0,0,(Mar 28 2014 04:22:22),3,TRUE,FALSE,4,TRUE
"346","A167SYXGXFU7C8","Mar 28 2014","04:22:22",6,"No-Social","Three",4,1,"Switch",0,"Novel116",3,"Novel14",2,2683,"eyescenter",-1,1,0,0,(Mar 28 2014 04:22:22),3,TRUE,FALSE,4,FALSE
"347","A167SYXGXFU7C8","Mar 28 2014","04:22:22",7,"No-Social","Three",4,2,"Same",0,"Novel110",0,"Novel110",0,2287,"eyescenter",-1,1,0,0,(Mar 28 2014 04:22:22),3,TRUE,FALSE,4,TRUE
"348","A167SYXGXFU7C8","Mar 28 2014","04:22:22",8,"No-Social","Three",4,3,"Switch",1,"Novel120",3,"Novel129",1,3375,"eyescenter",-1,1,0,0,(Mar 28 2014 04:22:22),3,TRUE,FALSE,4,FALSE
"349","A167SYXGXFU7C8","Mar 28 2014","04:22:22",9,"No-Social","Three",4,0,"Same",0,"Novel5",0,"Novel99",3,2667,"eyescenter",-1,0,1,0,(Mar 28 2014 04:22:22),3,TRUE,TRUE,4,FALSE
"350","A167SYXGXFU7C8","Mar 28 2014","04:22:22",10,"No-Social","Three",4,1,"Switch",0,"Novel14",1,"Novel14",2,3149,"eyescenter",-1,0,1,0,(Mar 28 2014 04:22:22),3,TRUE,FALSE,4,TRUE
"351","A167SYXGXFU7C8","Mar 28 2014","04:22:22",11,"No-Social","Three",4,2,"Same",0,"Novel105",2,"Novel110",0,4149,"eyescenter",-1,0,1,0,(Mar 28 2014 04:22:22),3,TRUE,FALSE,4,FALSE
"352","A167SYXGXFU7C8","Mar 28 2014","04:22:22",12,"No-Social","Three",4,3,"Switch",1,"Novel134",0,"Novel129",1,4725,"eyescenter",-1,0,1,0,(Mar 28 2014 04:22:22),3,TRUE,FALSE,4,FALSE
"353","A167SYXGXFU7C8","Mar 28 2014","04:22:22",13,"No-Social","Three",4,4,"Same",1,"Novel125",1,"Novel125",1,3579,"eyescenter",-1,1,0,0,(Mar 28 2014 04:22:22),3,TRUE,FALSE,4,TRUE
"354","A167SYXGXFU7C8","Mar 28 2014","04:22:22",14,"No-Social","Three",4,5,"Switch",1,"Novel58",3,"Novel127",1,3006,"eyescenter",-1,1,0,0,(Mar 28 2014 04:22:22),3,TRUE,FALSE,4,FALSE
"355","A167SYXGXFU7C8","Mar 28 2014","04:22:22",15,"No-Social","Three",4,6,"Same",1,"Novel88",1,"Novel88",1,3203,"eyescenter",-1,1,0,0,(Mar 28 2014 04:22:22),3,TRUE,FALSE,4,TRUE
"356","A167SYXGXFU7C8","Mar 28 2014","04:22:22",16,"No-Social","Three",4,7,"Switch",0,"Novel1",1,"Novel55",2,2907,"eyescenter",-1,1,0,0,(Mar 28 2014 04:22:22),3,TRUE,FALSE,4,FALSE
"357","A167SYXGXFU7C8","Mar 28 2014","04:22:22",17,"No-Social","Three",4,4,"Same",1,"Novel125",1,"Novel125",1,1802,"eyescenter",-1,0,1,0,(Mar 28 2014 04:22:22),3,TRUE,FALSE,4,TRUE
"358","A167SYXGXFU7C8","Mar 28 2014","04:22:22",18,"No-Social","Three",4,5,"Switch",1,"Novel127",1,"Novel127",1,2564,"eyescenter",-1,0,1,0,(Mar 28 2014 04:22:22),3,TRUE,FALSE,4,TRUE
"359","A167SYXGXFU7C8","Mar 28 2014","04:22:22",19,"No-Social","Three",4,6,"Same",1,"Novel67",3,"Novel88",1,2815,"eyescenter",-1,0,1,0,(Mar 28 2014 04:22:22),3,TRUE,FALSE,4,FALSE
"360","A167SYXGXFU7C8","Mar 28 2014","04:22:22",20,"No-Social","Three",4,7,"Switch",0,"Novel10",2,"Novel55",2,5149,"eyescenter",-1,0,1,0,(Mar 28 2014 04:22:22),3,TRUE,FALSE,4,FALSE
"361","A16VU51G09DZZZ","Mar 27 2014","18:18:26",1,"Social","Zero",4,0,"Same",1,"squirrel",0,"",0,2912,"eyescenter",-1,0,0,1,(Mar 27 2014 18:18:26),0,TRUE,FALSE,4,FALSE
"362","A16VU51G09DZZZ","Mar 27 2014","18:18:26",2,"Social","Zero",4,0,"Same",1,"squirrel",0,"",0,1704,"eyescenter",-1,0,0,1,(Mar 27 2014 18:18:26),0,TRUE,FALSE,4,FALSE
"363","A16VU51G09DZZZ","Mar 27 2014","18:18:26",3,"Social","Zero",4,0,"Same",1,"tomato",1,"",0,2025,"eyescenter",-1,0,0,1,(Mar 27 2014 18:18:26),0,TRUE,FALSE,4,FALSE
"364","A16VU51G09DZZZ","Mar 27 2014","18:18:26",4,"Social","Zero",4,0,"Same",1,"tomato",2,"",0,1669,"eyescenter",-1,0,0,1,(Mar 27 2014 18:18:26),0,TRUE,FALSE,4,FALSE
"365","A16VU51G09DZZZ","Mar 27 2014","18:18:26",5,"Social","Zero",4,0,"Same",1,"Novel4",3,"Novel4",3,2844,"eyes_right",3,1,0,0,(Mar 27 2014 18:18:26),0,TRUE,FALSE,4,TRUE
"366","A16VU51G09DZZZ","Mar 27 2014","18:18:26",6,"Social","Zero",4,0,"Same",1,"Novel4",3,"Novel4",3,2196,"eyescenter",-1,0,1,0,(Mar 27 2014 18:18:26),0,TRUE,TRUE,4,TRUE
"367","A16VU51G09DZZZ","Mar 27 2014","18:18:26",7,"Social","Zero",4,1,"Switch",1,"Novel131",0,"Novel3",1,1248,"eyes_left",0,1,0,0,(Mar 27 2014 18:18:26),0,TRUE,FALSE,4,FALSE
"368","A16VU51G09DZZZ","Mar 27 2014","18:18:26",8,"Social","Zero",4,1,"Switch",1,"Novel34",0,"Novel3",1,4251,"eyescenter",-1,0,1,0,(Mar 27 2014 18:18:26),0,TRUE,FALSE,4,FALSE
"369","A16VU51G09DZZZ","Mar 27 2014","18:18:26",9,"Social","Zero",4,2,"Same",0,"Novel35",1,"Novel35",1,1167,"eyes_down_left",1,1,0,0,(Mar 27 2014 18:18:26),0,TRUE,FALSE,4,TRUE
"370","A16VU51G09DZZZ","Mar 27 2014","18:18:26",10,"Social","Zero",4,2,"Same",0,"Novel35",3,"Novel35",1,744,"eyescenter",-1,0,1,0,(Mar 27 2014 18:18:26),0,TRUE,FALSE,4,TRUE
"371","A16VU51G09DZZZ","Mar 27 2014","18:18:26",11,"Social","Zero",4,3,"Switch",0,"Novel86",3,"Novel56",2,889,"eyes_right",3,1,0,0,(Mar 27 2014 18:18:26),0,TRUE,FALSE,4,FALSE
"372","A16VU51G09DZZZ","Mar 27 2014","18:18:26",12,"Social","Zero",4,3,"Switch",0,"Novel77",3,"Novel56",2,5645,"eyescenter",-1,0,1,0,(Mar 27 2014 18:18:26),0,TRUE,FALSE,4,FALSE
"373","A16VU51G09DZZZ","Mar 27 2014","18:18:26",13,"Social","Zero",4,4,"Same",0,"Novel28",2,"Novel28",2,1273,"eyes_down_right",2,1,0,0,(Mar 27 2014 18:18:26),0,TRUE,FALSE,4,TRUE
"374","A16VU51G09DZZZ","Mar 27 2014","18:18:26",14,"Social","Zero",4,4,"Same",0,"Novel28",0,"Novel28",2,828,"eyescenter",-1,0,1,0,(Mar 27 2014 18:18:26),0,TRUE,FALSE,4,TRUE
"375","A16VU51G09DZZZ","Mar 27 2014","18:18:26",15,"Social","Zero",4,5,"Switch",1,"Novel26",3,"Novel53",0,2531,"eyes_right",3,1,0,0,(Mar 27 2014 18:18:26),0,TRUE,FALSE,4,FALSE
"376","A16VU51G09DZZZ","Mar 27 2014","18:18:26",16,"Social","Zero",4,5,"Switch",1,"Novel122",3,"Novel53",0,4172,"eyescenter",-1,0,1,0,(Mar 27 2014 18:18:26),0,TRUE,FALSE,4,FALSE
"377","A16VU51G09DZZZ","Mar 27 2014","18:18:26",17,"Social","Zero",4,6,"Same",1,"Novel70",3,"Novel70",3,2027,"eyes_right",3,1,0,0,(Mar 27 2014 18:18:26),0,TRUE,FALSE,4,TRUE
"378","A16VU51G09DZZZ","Mar 27 2014","18:18:26",18,"Social","Zero",4,6,"Same",1,"Novel70",3,"Novel70",3,713,"eyescenter",-1,0,1,0,(Mar 27 2014 18:18:26),0,TRUE,FALSE,4,TRUE
"379","A16VU51G09DZZZ","Mar 27 2014","18:18:26",19,"Social","Zero",4,7,"Switch",0,"Novel16",3,"Novel136",0,1093,"eyes_right",3,1,0,0,(Mar 27 2014 18:18:26),0,TRUE,FALSE,4,FALSE
"380","A16VU51G09DZZZ","Mar 27 2014","18:18:26",20,"Social","Zero",4,7,"Switch",0,"Novel49",1,"Novel136",0,3116,"eyescenter",-1,0,1,0,(Mar 27 2014 18:18:26),0,TRUE,FALSE,4,FALSE
"381","A175ZTL2OZO9YU","Mar 28 2014","14:16:05",1,"Social","Seven",4,0,"Switch",0,"squirrel",0,"",0,3620,"eyescenter",-1,0,0,1,(Mar 28 2014 14:16:05),7,TRUE,FALSE,4,FALSE
"382","A175ZTL2OZO9YU","Mar 28 2014","14:16:05",2,"Social","Seven",4,0,"Switch",0,"squirrel",0,"",0,1711,"eyescenter",-1,0,0,1,(Mar 28 2014 14:16:05),7,TRUE,FALSE,4,FALSE
"383","A175ZTL2OZO9YU","Mar 28 2014","14:16:05",3,"Social","Seven",4,0,"Switch",0,"tomato",1,"",0,1753,"eyescenter",-1,0,0,1,(Mar 28 2014 14:16:05),7,TRUE,FALSE,4,FALSE
"384","A175ZTL2OZO9YU","Mar 28 2014","14:16:05",4,"Social","Seven",4,0,"Switch",0,"tomato",2,"",0,944,"eyescenter",-1,0,0,1,(Mar 28 2014 14:16:05),7,TRUE,FALSE,4,FALSE
"385","A175ZTL2OZO9YU","Mar 28 2014","14:16:05",5,"Social","Seven",4,0,"Switch",0,"Novel133",2,"Novel14",0,2756,"eyes_left",0,1,0,0,(Mar 28 2014 14:16:05),7,TRUE,FALSE,4,FALSE
"386","A175ZTL2OZO9YU","Mar 28 2014","14:16:05",6,"Social","Seven",4,1,"Same",1,"Novel90",2,"Novel90",2,3355,"eyes_right",3,1,0,0,(Mar 28 2014 14:16:05),7,TRUE,FALSE,4,TRUE
"387","A175ZTL2OZO9YU","Mar 28 2014","14:16:05",7,"Social","Seven",4,2,"Switch",1,"Novel73",3,"Novel74",1,3140,"eyes_right",3,1,0,0,(Mar 28 2014 14:16:05),7,TRUE,FALSE,4,FALSE
"388","A175ZTL2OZO9YU","Mar 28 2014","14:16:05",8,"Social","Seven",4,3,"Same",0,"Novel100",2,"Novel100",2,1976,"eyes_down_right",2,1,0,0,(Mar 28 2014 14:16:05),7,TRUE,FALSE,4,TRUE
"389","A175ZTL2OZO9YU","Mar 28 2014","14:16:05",9,"Social","Seven",4,4,"Switch",0,"Novel136",3,"Novel52",2,2990,"eyes_right",3,1,0,0,(Mar 28 2014 14:16:05),7,TRUE,FALSE,4,FALSE
"390","A175ZTL2OZO9YU","Mar 28 2014","14:16:05",10,"Social","Seven",4,5,"Same",0,"Novel64",2,"Novel64",2,3489,"eyes_down_right",2,1,0,0,(Mar 28 2014 14:16:05),7,TRUE,FALSE,4,TRUE
"391","A175ZTL2OZO9YU","Mar 28 2014","14:16:05",11,"Social","Seven",4,6,"Switch",1,"Novel131",3,"Novel33",0,2505,"eyes_right",3,1,0,0,(Mar 28 2014 14:16:05),7,TRUE,FALSE,4,FALSE
"392","A175ZTL2OZO9YU","Mar 28 2014","14:16:05",12,"Social","Seven",4,7,"Same",1,"Novel5",0,"Novel5",0,1992,"eyes_down_left",1,1,0,0,(Mar 28 2014 14:16:05),7,TRUE,FALSE,4,TRUE
"393","A175ZTL2OZO9YU","Mar 28 2014","14:16:05",13,"Social","Seven",4,0,"Switch",0,"Novel81",1,"Novel14",0,1771,"eyescenter",-1,0,1,0,(Mar 28 2014 14:16:05),7,TRUE,TRUE,4,FALSE
"394","A175ZTL2OZO9YU","Mar 28 2014","14:16:05",14,"Social","Seven",4,1,"Same",1,"Novel90",2,"Novel90",2,3269,"eyescenter",-1,0,1,0,(Mar 28 2014 14:16:05),7,TRUE,FALSE,4,TRUE
"395","A175ZTL2OZO9YU","Mar 28 2014","14:16:05",15,"Social","Seven",4,2,"Switch",1,"Novel22",3,"Novel74",1,3126,"eyescenter",-1,0,1,0,(Mar 28 2014 14:16:05),7,TRUE,FALSE,4,FALSE
"396","A175ZTL2OZO9YU","Mar 28 2014","14:16:05",16,"Social","Seven",4,3,"Same",0,"Novel100",1,"Novel100",2,1814,"eyescenter",-1,0,1,0,(Mar 28 2014 14:16:05),7,TRUE,FALSE,4,TRUE
"397","A175ZTL2OZO9YU","Mar 28 2014","14:16:05",17,"Social","Seven",4,4,"Switch",0,"Novel125",2,"Novel52",2,1561,"eyescenter",-1,0,1,0,(Mar 28 2014 14:16:05),7,TRUE,FALSE,4,FALSE
"398","A175ZTL2OZO9YU","Mar 28 2014","14:16:05",18,"Social","Seven",4,5,"Same",0,"Novel64",1,"Novel64",2,1267,"eyescenter",-1,0,1,0,(Mar 28 2014 14:16:05),7,TRUE,FALSE,4,TRUE
"399","A175ZTL2OZO9YU","Mar 28 2014","14:16:05",19,"Social","Seven",4,6,"Switch",1,"Novel87",3,"Novel33",0,1580,"eyescenter",-1,0,1,0,(Mar 28 2014 14:16:05),7,TRUE,FALSE,4,FALSE
"400","A175ZTL2OZO9YU","Mar 28 2014","14:16:05",20,"Social","Seven",4,7,"Same",1,"Novel18",3,"Novel5",0,2144,"eyescenter",-1,0,1,0,(Mar 28 2014 14:16:05),7,TRUE,FALSE,4,FALSE
"401","A17ETOGOC5JF4I","Mar 29 2014","12:19:44",1,"No-Social","Three",4,0,"Switch",1,"squirrel",0,"",0,1943,"eyescenter",-1,0,0,1,(Mar 29 2014 12:19:44),3,TRUE,FALSE,4,FALSE
"402","A17ETOGOC5JF4I","Mar 29 2014","12:19:44",2,"No-Social","Three",4,0,"Switch",1,"squirrel",0,"",0,1929,"eyescenter",-1,0,0,1,(Mar 29 2014 12:19:44),3,TRUE,FALSE,4,FALSE
"403","A17ETOGOC5JF4I","Mar 29 2014","12:19:44",3,"No-Social","Three",4,0,"Switch",1,"tomato",1,"",0,1375,"eyescenter",-1,0,0,1,(Mar 29 2014 12:19:44),3,TRUE,FALSE,4,FALSE
"404","A17ETOGOC5JF4I","Mar 29 2014","12:19:44",4,"No-Social","Three",4,0,"Switch",1,"tomato",2,"",0,1937,"eyescenter",-1,0,0,1,(Mar 29 2014 12:19:44),3,TRUE,FALSE,4,FALSE
"405","A17ETOGOC5JF4I","Mar 29 2014","12:19:44",5,"No-Social","Three",4,0,"Switch",1,"Novel18",0,"Novel98",2,3269,"eyescenter",-1,1,0,0,(Mar 29 2014 12:19:44),3,TRUE,FALSE,4,FALSE
"406","A17ETOGOC5JF4I","Mar 29 2014","12:19:44",6,"No-Social","Three",4,1,"Same",0,"Novel26",2,"Novel26",2,2067,"eyescenter",-1,1,0,0,(Mar 29 2014 12:19:44),3,TRUE,FALSE,4,TRUE
"407","A17ETOGOC5JF4I","Mar 29 2014","12:19:44",7,"No-Social","Three",4,2,"Switch",1,"Novel120",1,"Novel102",3,1102,"eyescenter",-1,1,0,0,(Mar 29 2014 12:19:44),3,TRUE,FALSE,4,FALSE
"408","A17ETOGOC5JF4I","Mar 29 2014","12:19:44",8,"No-Social","Three",4,3,"Same",0,"Novel81",0,"Novel81",0,1272,"eyescenter",-1,1,0,0,(Mar 29 2014 12:19:44),3,TRUE,FALSE,4,TRUE
"409","A17ETOGOC5JF4I","Mar 29 2014","12:19:44",9,"No-Social","Three",4,0,"Switch",1,"Novel98",2,"Novel98",2,3586,"eyescenter",-1,0,1,0,(Mar 29 2014 12:19:44),3,TRUE,TRUE,4,TRUE
"410","A17ETOGOC5JF4I","Mar 29 2014","12:19:44",10,"No-Social","Three",4,1,"Same",0,"Novel125",3,"Novel26",2,3891,"eyescenter",-1,0,1,0,(Mar 29 2014 12:19:44),3,TRUE,FALSE,4,FALSE
"411","A17ETOGOC5JF4I","Mar 29 2014","12:19:44",11,"No-Social","Three",4,2,"Switch",1,"Novel14",2,"Novel102",3,1873,"eyescenter",-1,0,1,0,(Mar 29 2014 12:19:44),3,TRUE,FALSE,4,FALSE
"412","A17ETOGOC5JF4I","Mar 29 2014","12:19:44",12,"No-Social","Three",4,3,"Same",0,"Novel129",1,"Novel81",0,1723,"eyescenter",-1,0,1,0,(Mar 29 2014 12:19:44),3,TRUE,FALSE,4,FALSE
"413","A17ETOGOC5JF4I","Mar 29 2014","12:19:44",13,"No-Social","Three",4,4,"Switch",0,"Novel87",3,"Novel107",1,1436,"eyescenter",-1,1,0,0,(Mar 29 2014 12:19:44),3,TRUE,FALSE,4,FALSE
"414","A17ETOGOC5JF4I","Mar 29 2014","12:19:44",14,"No-Social","Three",4,5,"Same",1,"Novel35",2,"Novel35",2,1042,"eyescenter",-1,1,0,0,(Mar 29 2014 12:19:44),3,TRUE,FALSE,4,TRUE
"415","A17ETOGOC5JF4I","Mar 29 2014","12:19:44",15,"No-Social","Three",4,6,"Switch",0,"Novel121",0,"Novel136",3,1346,"eyescenter",-1,1,0,0,(Mar 29 2014 12:19:44),3,TRUE,FALSE,4,FALSE
"416","A17ETOGOC5JF4I","Mar 29 2014","12:19:44",16,"No-Social","Three",4,7,"Same",1,"Novel32",2,"Novel32",2,1893,"eyescenter",-1,1,0,0,(Mar 29 2014 12:19:44),3,TRUE,FALSE,4,TRUE
"417","A17ETOGOC5JF4I","Mar 29 2014","12:19:44",17,"No-Social","Three",4,4,"Switch",0,"Novel44",3,"Novel107",1,1384,"eyescenter",-1,0,1,0,(Mar 29 2014 12:19:44),3,TRUE,FALSE,4,FALSE
"418","A17ETOGOC5JF4I","Mar 29 2014","12:19:44",18,"No-Social","Three",4,5,"Same",1,"Novel19",0,"Novel35",2,1244,"eyescenter",-1,0,1,0,(Mar 29 2014 12:19:44),3,TRUE,FALSE,4,FALSE
"419","A17ETOGOC5JF4I","Mar 29 2014","12:19:44",19,"No-Social","Three",4,6,"Switch",0,"Novel15",3,"Novel136",3,1181,"eyescenter",-1,0,1,0,(Mar 29 2014 12:19:44),3,TRUE,FALSE,4,FALSE
"420","A17ETOGOC5JF4I","Mar 29 2014","12:19:44",20,"No-Social","Three",4,7,"Same",1,"Novel32",2,"Novel32",2,1873,"eyescenter",-1,0,1,0,(Mar 29 2014 12:19:44),3,TRUE,FALSE,4,TRUE
"421","A187RK5K1JR4WP","Mar 29 2014","20:54:52",1,"Social","One",4,0,"Same",1,"squirrel",0,"",0,2627,"eyescenter",-1,0,0,1,(Mar 29 2014 20:54:52),1,TRUE,FALSE,4,FALSE
"422","A187RK5K1JR4WP","Mar 29 2014","20:54:52",2,"Social","One",4,0,"Same",1,"squirrel",0,"",0,1078,"eyescenter",-1,0,0,1,(Mar 29 2014 20:54:52),1,TRUE,FALSE,4,FALSE
"423","A187RK5K1JR4WP","Mar 29 2014","20:54:52",3,"Social","One",4,0,"Same",1,"tomato",1,"",0,901,"eyescenter",-1,0,0,1,(Mar 29 2014 20:54:52),1,TRUE,FALSE,4,FALSE
"424","A187RK5K1JR4WP","Mar 29 2014","20:54:52",4,"Social","One",4,0,"Same",1,"tomato",2,"",0,1148,"eyescenter",-1,0,0,1,(Mar 29 2014 20:54:52),1,TRUE,FALSE,4,FALSE
"425","A187RK5K1JR4WP","Mar 29 2014","20:54:52",5,"Social","One",4,0,"Same",1,"Novel54",2,"Novel54",2,1666,"eyes_down_right",2,1,0,0,(Mar 29 2014 20:54:52),1,TRUE,FALSE,4,TRUE
"426","A187RK5K1JR4WP","Mar 29 2014","20:54:52",6,"Social","One",4,1,"Switch",1,"Novel69",2,"Novel108",3,1219,"eyes_down_right",2,1,0,0,(Mar 29 2014 20:54:52),1,TRUE,FALSE,4,FALSE
"427","A187RK5K1JR4WP","Mar 29 2014","20:54:52",7,"Social","One",4,0,"Same",1,"Novel54",2,"Novel54",2,1423,"eyescenter",-1,0,1,0,(Mar 29 2014 20:54:52),1,TRUE,TRUE,4,TRUE
"428","A187RK5K1JR4WP","Mar 29 2014","20:54:52",8,"Social","One",4,1,"Switch",1,"Novel77",0,"Novel108",3,3154,"eyescenter",-1,0,1,0,(Mar 29 2014 20:54:52),1,TRUE,FALSE,4,FALSE
"429","A187RK5K1JR4WP","Mar 29 2014","20:54:52",9,"Social","One",4,2,"Same",0,"Novel81",2,"Novel81",2,1200,"eyes_down_right",2,1,0,0,(Mar 29 2014 20:54:52),1,TRUE,FALSE,4,TRUE
"430","A187RK5K1JR4WP","Mar 29 2014","20:54:52",10,"Social","One",4,3,"Switch",0,"Novel67",2,"Novel13",0,1154,"eyes_down_right",2,1,0,0,(Mar 29 2014 20:54:52),1,TRUE,FALSE,4,FALSE
"431","A187RK5K1JR4WP","Mar 29 2014","20:54:52",11,"Social","One",4,2,"Same",0,"Novel81",1,"Novel81",2,902,"eyescenter",-1,0,1,0,(Mar 29 2014 20:54:52),1,TRUE,FALSE,4,TRUE
"432","A187RK5K1JR4WP","Mar 29 2014","20:54:52",12,"Social","One",4,3,"Switch",0,"Novel39",2,"Novel13",0,2761,"eyescenter",-1,0,1,0,(Mar 29 2014 20:54:52),1,TRUE,FALSE,4,FALSE
"433","A187RK5K1JR4WP","Mar 29 2014","20:54:52",13,"Social","One",4,4,"Same",0,"Novel60",3,"Novel60",3,1017,"eyes_right",3,1,0,0,(Mar 29 2014 20:54:52),1,TRUE,FALSE,4,TRUE
"434","A187RK5K1JR4WP","Mar 29 2014","20:54:52",14,"Social","One",4,5,"Switch",0,"Novel35",2,"Novel119",3,1013,"eyes_down_right",2,1,0,0,(Mar 29 2014 20:54:52),1,TRUE,FALSE,4,FALSE
"435","A187RK5K1JR4WP","Mar 29 2014","20:54:52",15,"Social","One",4,4,"Same",0,"Novel60",1,"Novel60",3,773,"eyescenter",-1,0,1,0,(Mar 29 2014 20:54:52),1,TRUE,FALSE,4,TRUE
"436","A187RK5K1JR4WP","Mar 29 2014","20:54:52",16,"Social","One",4,5,"Switch",0,"Novel119",1,"Novel119",3,2588,"eyescenter",-1,0,1,0,(Mar 29 2014 20:54:52),1,TRUE,FALSE,4,TRUE
"437","A187RK5K1JR4WP","Mar 29 2014","20:54:52",17,"Social","One",4,6,"Same",1,"Novel104",0,"Novel104",0,947,"eyes_left",0,1,0,0,(Mar 29 2014 20:54:52),1,TRUE,FALSE,4,TRUE
"438","A187RK5K1JR4WP","Mar 29 2014","20:54:52",18,"Social","One",4,7,"Switch",1,"Novel85",0,"Novel96",1,956,"eyes_left",0,1,0,0,(Mar 29 2014 20:54:52),1,TRUE,FALSE,4,FALSE
"439","A187RK5K1JR4WP","Mar 29 2014","20:54:52",19,"Social","One",4,6,"Same",1,"Novel104",0,"Novel104",0,703,"eyescenter",-1,0,1,0,(Mar 29 2014 20:54:52),1,TRUE,FALSE,4,TRUE
"440","A187RK5K1JR4WP","Mar 29 2014","20:54:52",20,"Social","One",4,7,"Switch",1,"Novel8",3,"Novel96",1,1757,"eyescenter",-1,0,1,0,(Mar 29 2014 20:54:52),1,TRUE,FALSE,4,FALSE
"461","A1921WAT7ZSZKA","Mar 28 2014","12:32:20",1,"Social","Zero",4,0,"Switch",1,"squirrel",0,"",0,1716,"eyescenter",-1,0,0,1,(Mar 28 2014 12:32:20),0,TRUE,FALSE,4,FALSE
"462","A1921WAT7ZSZKA","Mar 28 2014","12:32:20",2,"Social","Zero",4,0,"Switch",1,"squirrel",0,"",0,1360,"eyescenter",-1,0,0,1,(Mar 28 2014 12:32:20),0,TRUE,FALSE,4,FALSE
"463","A1921WAT7ZSZKA","Mar 28 2014","12:32:20",3,"Social","Zero",4,0,"Switch",1,"tomato",1,"",0,1347,"eyescenter",-1,0,0,1,(Mar 28 2014 12:32:20),0,TRUE,FALSE,4,FALSE
"464","A1921WAT7ZSZKA","Mar 28 2014","12:32:20",4,"Social","Zero",4,0,"Switch",1,"tomato",2,"",0,1315,"eyescenter",-1,0,0,1,(Mar 28 2014 12:32:20),0,TRUE,FALSE,4,FALSE
"465","A1921WAT7ZSZKA","Mar 28 2014","12:32:20",5,"Social","Zero",4,0,"Switch",1,"Novel48",1,"Novel80",2,2953,"eyes_down_left",1,1,0,0,(Mar 28 2014 12:32:20),0,TRUE,FALSE,4,FALSE
"466","A1921WAT7ZSZKA","Mar 28 2014","12:32:20",6,"Social","Zero",4,0,"Switch",1,"Novel35",0,"Novel80",2,5694,"eyescenter",-1,0,1,0,(Mar 28 2014 12:32:20),0,TRUE,TRUE,4,FALSE
"467","A1921WAT7ZSZKA","Mar 28 2014","12:32:20",7,"Social","Zero",4,1,"Same",1,"Novel57",1,"Novel57",1,3143,"eyes_down_left",1,1,0,0,(Mar 28 2014 12:32:20),0,TRUE,FALSE,4,TRUE
"468","A1921WAT7ZSZKA","Mar 28 2014","12:32:20",8,"Social","Zero",4,1,"Same",1,"Novel57",1,"Novel57",1,1462,"eyescenter",-1,0,1,0,(Mar 28 2014 12:32:20),0,TRUE,FALSE,4,TRUE
"469","A1921WAT7ZSZKA","Mar 28 2014","12:32:20",9,"Social","Zero",4,2,"Switch",1,"Novel51",3,"Novel21",2,2386,"eyes_right",3,1,0,0,(Mar 28 2014 12:32:20),0,TRUE,FALSE,4,FALSE
"470","A1921WAT7ZSZKA","Mar 28 2014","12:32:20",10,"Social","Zero",4,2,"Switch",1,"Novel21",2,"Novel21",2,8978,"eyescenter",-1,0,1,0,(Mar 28 2014 12:32:20),0,TRUE,FALSE,4,TRUE
"471","A1921WAT7ZSZKA","Mar 28 2014","12:32:20",11,"Social","Zero",4,3,"Same",0,"Novel125",0,"Novel125",0,2049,"eyes_left",0,1,0,0,(Mar 28 2014 12:32:20),0,TRUE,FALSE,4,TRUE
"472","A1921WAT7ZSZKA","Mar 28 2014","12:32:20",12,"Social","Zero",4,3,"Same",0,"Novel125",2,"Novel125",0,1015,"eyescenter",-1,0,1,0,(Mar 28 2014 12:32:20),0,TRUE,FALSE,4,TRUE
"473","A1921WAT7ZSZKA","Mar 28 2014","12:32:20",13,"Social","Zero",4,4,"Switch",0,"Novel2",2,"Novel102",1,2594,"eyes_down_right",2,1,0,0,(Mar 28 2014 12:32:20),0,TRUE,FALSE,4,FALSE
"474","A1921WAT7ZSZKA","Mar 28 2014","12:32:20",14,"Social","Zero",4,4,"Switch",0,"Novel8",3,"Novel102",1,3320,"eyescenter",-1,0,1,0,(Mar 28 2014 12:32:20),0,TRUE,FALSE,4,FALSE
"475","A1921WAT7ZSZKA","Mar 28 2014","12:32:20",15,"Social","Zero",4,5,"Same",1,"Novel93",0,"Novel93",0,2266,"eyes_left",0,1,0,0,(Mar 28 2014 12:32:20),0,TRUE,FALSE,4,TRUE
"476","A1921WAT7ZSZKA","Mar 28 2014","12:32:20",16,"Social","Zero",4,5,"Same",1,"Novel93",0,"Novel93",0,906,"eyescenter",-1,0,1,0,(Mar 28 2014 12:32:20),0,TRUE,FALSE,4,TRUE
"477","A1921WAT7ZSZKA","Mar 28 2014","12:32:20",17,"Social","Zero",4,6,"Switch",0,"Novel92",2,"Novel3",1,1345,"eyes_down_right",2,1,0,0,(Mar 28 2014 12:32:20),0,TRUE,FALSE,4,FALSE
"478","A1921WAT7ZSZKA","Mar 28 2014","12:32:20",18,"Social","Zero",4,6,"Switch",0,"Novel61",2,"Novel3",1,7542,"eyescenter",-1,0,1,0,(Mar 28 2014 12:32:20),0,TRUE,FALSE,4,FALSE
"479","A1921WAT7ZSZKA","Mar 28 2014","12:32:20",19,"Social","Zero",4,7,"Same",0,"Novel140",1,"Novel140",1,1268,"eyes_down_left",1,1,0,0,(Mar 28 2014 12:32:20),0,TRUE,FALSE,4,TRUE
"480","A1921WAT7ZSZKA","Mar 28 2014","12:32:20",20,"Social","Zero",4,7,"Same",0,"Novel140",0,"Novel140",1,764,"eyescenter",-1,0,1,0,(Mar 28 2014 12:32:20),0,TRUE,FALSE,4,TRUE
"481","A19DDFLVQ72QCU","Mar 29 2014","09:43:55",1,"Social","Zero",4,0,"Switch",0,"squirrel",0,"",0,5893,"eyescenter",-1,0,0,1,(Mar 29 2014 09:43:55),0,TRUE,FALSE,4,FALSE
"482","A19DDFLVQ72QCU","Mar 29 2014","09:43:55",2,"Social","Zero",4,0,"Switch",0,"squirrel",0,"",0,9946,"eyescenter",-1,0,0,1,(Mar 29 2014 09:43:55),0,TRUE,FALSE,4,FALSE
"483","A19DDFLVQ72QCU","Mar 29 2014","09:43:55",3,"Social","Zero",4,0,"Switch",0,"tomato",1,"",0,2300,"eyescenter",-1,0,0,1,(Mar 29 2014 09:43:55),0,TRUE,FALSE,4,FALSE
"484","A19DDFLVQ72QCU","Mar 29 2014","09:43:55",4,"Social","Zero",4,0,"Switch",0,"tomato",2,"",0,1747,"eyescenter",-1,0,0,1,(Mar 29 2014 09:43:55),0,TRUE,FALSE,4,FALSE
"485","A19DDFLVQ72QCU","Mar 29 2014","09:43:55",5,"Social","Zero",4,0,"Switch",0,"Novel73",2,"Novel110",3,10722,"eyes_down_right",2,1,0,0,(Mar 29 2014 09:43:55),0,TRUE,FALSE,4,FALSE
"486","A19DDFLVQ72QCU","Mar 29 2014","09:43:55",6,"Social","Zero",4,0,"Switch",0,"Novel98",3,"Novel110",3,6157,"eyescenter",-1,0,1,0,(Mar 29 2014 09:43:55),0,TRUE,TRUE,4,FALSE
"487","A19DDFLVQ72QCU","Mar 29 2014","09:43:55",7,"Social","Zero",4,1,"Same",0,"Novel134",3,"Novel134",3,6516,"eyes_right",3,1,0,0,(Mar 29 2014 09:43:55),0,TRUE,FALSE,4,TRUE
"488","A19DDFLVQ72QCU","Mar 29 2014","09:43:55",8,"Social","Zero",4,1,"Same",0,"Novel134",2,"Novel134",3,2350,"eyescenter",-1,0,1,0,(Mar 29 2014 09:43:55),0,TRUE,FALSE,4,TRUE
"489","A19DDFLVQ72QCU","Mar 29 2014","09:43:55",9,"Social","Zero",4,2,"Switch",1,"Novel108",1,"Novel122",2,3791,"eyes_left",0,1,0,0,(Mar 29 2014 09:43:55),0,TRUE,FALSE,4,FALSE
"490","A19DDFLVQ72QCU","Mar 29 2014","09:43:55",10,"Social","Zero",4,2,"Switch",1,"Novel27",3,"Novel122",2,5998,"eyescenter",-1,0,1,0,(Mar 29 2014 09:43:55),0,TRUE,FALSE,4,FALSE
"491","A19DDFLVQ72QCU","Mar 29 2014","09:43:55",11,"Social","Zero",4,3,"Same",1,"Novel35",2,"Novel35",2,5934,"eyes_right",3,1,0,0,(Mar 29 2014 09:43:55),0,TRUE,FALSE,4,TRUE
"492","A19DDFLVQ72QCU","Mar 29 2014","09:43:55",12,"Social","Zero",4,3,"Same",1,"Novel35",2,"Novel35",2,1571,"eyescenter",-1,0,1,0,(Mar 29 2014 09:43:55),0,TRUE,FALSE,4,TRUE
"493","A19DDFLVQ72QCU","Mar 29 2014","09:43:55",13,"Social","Zero",4,4,"Switch",1,"Novel6",0,"Novel115",3,3330,"eyes_left",0,1,0,0,(Mar 29 2014 09:43:55),0,TRUE,FALSE,4,FALSE
"494","A19DDFLVQ72QCU","Mar 29 2014","09:43:55",14,"Social","Zero",4,4,"Switch",1,"Novel115",3,"Novel115",3,2740,"eyescenter",-1,0,1,0,(Mar 29 2014 09:43:55),0,TRUE,FALSE,4,TRUE
"495","A19DDFLVQ72QCU","Mar 29 2014","09:43:55",15,"Social","Zero",4,5,"Same",1,"Novel37",2,"Novel37",2,2057,"eyes_down_right",2,1,0,0,(Mar 29 2014 09:43:55),0,TRUE,FALSE,4,TRUE
"496","A19DDFLVQ72QCU","Mar 29 2014","09:43:55",16,"Social","Zero",4,5,"Same",1,"Novel37",2,"Novel37",2,1598,"eyescenter",-1,0,1,0,(Mar 29 2014 09:43:55),0,TRUE,FALSE,4,TRUE
"497","A19DDFLVQ72QCU","Mar 29 2014","09:43:55",17,"Social","Zero",4,6,"Switch",0,"Novel88",3,"Novel71",0,3525,"eyes_down_left",1,1,0,0,(Mar 29 2014 09:43:55),0,TRUE,FALSE,4,FALSE
"498","A19DDFLVQ72QCU","Mar 29 2014","09:43:55",18,"Social","Zero",4,6,"Switch",0,"Novel84",1,"Novel71",0,3172,"eyescenter",-1,0,1,0,(Mar 29 2014 09:43:55),0,TRUE,FALSE,4,FALSE
"499","A19DDFLVQ72QCU","Mar 29 2014","09:43:55",19,"Social","Zero",4,7,"Same",0,"Novel8",3,"Novel8",3,3534,"eyes_left",0,1,0,0,(Mar 29 2014 09:43:55),0,TRUE,FALSE,4,TRUE
"500","A19DDFLVQ72QCU","Mar 29 2014","09:43:55",20,"Social","Zero",4,7,"Same",0,"Novel8",0,"Novel8",3,2442,"eyescenter",-1,0,1,0,(Mar 29 2014 09:43:55),0,TRUE,FALSE,4,TRUE
"501","A19F85WDB2IBQZ","Mar 29 2014","14:55:23",1,"No-Social","Seven",4,0,"Same",0,"squirrel",0,"",0,2581,"eyescenter",-1,0,0,1,(Mar 29 2014 14:55:23),7,TRUE,FALSE,4,FALSE
"502","A19F85WDB2IBQZ","Mar 29 2014","14:55:23",2,"No-Social","Seven",4,0,"Same",0,"squirrel",0,"",0,1203,"eyescenter",-1,0,0,1,(Mar 29 2014 14:55:23),7,TRUE,FALSE,4,FALSE
"503","A19F85WDB2IBQZ","Mar 29 2014","14:55:23",3,"No-Social","Seven",4,0,"Same",0,"tomato",1,"",0,1035,"eyescenter",-1,0,0,1,(Mar 29 2014 14:55:23),7,TRUE,FALSE,4,FALSE
"504","A19F85WDB2IBQZ","Mar 29 2014","14:55:23",4,"No-Social","Seven",4,0,"Same",0,"tomato",2,"",0,914,"eyescenter",-1,0,0,1,(Mar 29 2014 14:55:23),7,TRUE,FALSE,4,FALSE
"505","A19F85WDB2IBQZ","Mar 29 2014","14:55:23",5,"No-Social","Seven",4,0,"Same",0,"Novel108",2,"Novel108",2,7996,"eyescenter",-1,1,0,0,(Mar 29 2014 14:55:23),7,TRUE,FALSE,4,TRUE
"506","A19F85WDB2IBQZ","Mar 29 2014","14:55:23",6,"No-Social","Seven",4,1,"Switch",1,"Novel42",0,"Novel115",2,5409,"eyescenter",-1,1,0,0,(Mar 29 2014 14:55:23),7,TRUE,FALSE,4,FALSE
"507","A19F85WDB2IBQZ","Mar 29 2014","14:55:23",7,"No-Social","Seven",4,2,"Same",1,"Novel53",3,"Novel53",3,3946,"eyescenter",-1,1,0,0,(Mar 29 2014 14:55:23),7,TRUE,FALSE,4,TRUE
"508","A19F85WDB2IBQZ","Mar 29 2014","14:55:23",8,"No-Social","Seven",4,3,"Switch",0,"Novel104",2,"Novel128",3,3375,"eyescenter",-1,1,0,0,(Mar 29 2014 14:55:23),7,TRUE,FALSE,4,FALSE
"509","A19F85WDB2IBQZ","Mar 29 2014","14:55:23",9,"No-Social","Seven",4,4,"Same",0,"Novel22",2,"Novel22",2,4773,"eyescenter",-1,1,0,0,(Mar 29 2014 14:55:23),7,TRUE,FALSE,4,TRUE
"510","A19F85WDB2IBQZ","Mar 29 2014","14:55:23",10,"No-Social","Seven",4,5,"Switch",0,"Novel134",3,"Novel87",0,1898,"eyescenter",-1,1,0,0,(Mar 29 2014 14:55:23),7,TRUE,FALSE,4,FALSE
"511","A19F85WDB2IBQZ","Mar 29 2014","14:55:23",11,"No-Social","Seven",4,6,"Same",1,"Novel25",2,"Novel25",2,4558,"eyescenter",-1,1,0,0,(Mar 29 2014 14:55:23),7,TRUE,FALSE,4,TRUE
"512","A19F85WDB2IBQZ","Mar 29 2014","14:55:23",12,"No-Social","Seven",4,7,"Switch",1,"Novel69",3,"Novel107",2,2407,"eyescenter",-1,1,0,0,(Mar 29 2014 14:55:23),7,TRUE,FALSE,4,FALSE
"513","A19F85WDB2IBQZ","Mar 29 2014","14:55:23",13,"No-Social","Seven",4,0,"Same",0,"Novel108",3,"Novel108",2,1981,"eyescenter",-1,0,1,0,(Mar 29 2014 14:55:23),7,TRUE,TRUE,4,TRUE
"514","A19F85WDB2IBQZ","Mar 29 2014","14:55:23",14,"No-Social","Seven",4,1,"Switch",1,"Novel79",1,"Novel115",2,4352,"eyescenter",-1,0,1,0,(Mar 29 2014 14:55:23),7,TRUE,FALSE,4,FALSE
"515","A19F85WDB2IBQZ","Mar 29 2014","14:55:23",15,"No-Social","Seven",4,2,"Same",1,"Novel53",3,"Novel53",3,3990,"eyescenter",-1,0,1,0,(Mar 29 2014 14:55:23),7,TRUE,FALSE,4,TRUE
"516","A19F85WDB2IBQZ","Mar 29 2014","14:55:23",16,"No-Social","Seven",4,3,"Switch",0,"Novel128",2,"Novel128",3,3178,"eyescenter",-1,0,1,0,(Mar 29 2014 14:55:23),7,TRUE,FALSE,4,TRUE
"517","A19F85WDB2IBQZ","Mar 29 2014","14:55:23",17,"No-Social","Seven",4,4,"Same",0,"Novel22",1,"Novel22",2,1641,"eyescenter",-1,0,1,0,(Mar 29 2014 14:55:23),7,TRUE,FALSE,4,TRUE
"518","A19F85WDB2IBQZ","Mar 29 2014","14:55:23",18,"No-Social","Seven",4,5,"Switch",0,"Novel137",3,"Novel87",0,4339,"eyescenter",-1,0,1,0,(Mar 29 2014 14:55:23),7,TRUE,FALSE,4,FALSE
"519","A19F85WDB2IBQZ","Mar 29 2014","14:55:23",19,"No-Social","Seven",4,6,"Same",1,"Novel25",2,"Novel25",2,1544,"eyescenter",-1,0,1,0,(Mar 29 2014 14:55:23),7,TRUE,FALSE,4,TRUE
"520","A19F85WDB2IBQZ","Mar 29 2014","14:55:23",20,"No-Social","Seven",4,7,"Switch",1,"Novel107",2,"Novel107",2,1663,"eyescenter",-1,0,1,0,(Mar 29 2014 14:55:23),7,TRUE,FALSE,4,TRUE
"521","A19M6CYM4B8WP2","Mar 28 2014","02:50:00",1,"Social","Zero",4,0,"Switch",1,"squirrel",0,"",0,2507,"eyescenter",-1,0,0,1,(Mar 28 2014 02:50:00),0,TRUE,FALSE,4,FALSE
"522","A19M6CYM4B8WP2","Mar 28 2014","02:50:00",2,"Social","Zero",4,0,"Switch",1,"squirrel",0,"",0,1657,"eyescenter",-1,0,0,1,(Mar 28 2014 02:50:00),0,TRUE,FALSE,4,FALSE
"523","A19M6CYM4B8WP2","Mar 28 2014","02:50:00",3,"Social","Zero",4,0,"Switch",1,"tomato",1,"",0,1746,"eyescenter",-1,0,0,1,(Mar 28 2014 02:50:00),0,TRUE,FALSE,4,FALSE
"524","A19M6CYM4B8WP2","Mar 28 2014","02:50:00",4,"Social","Zero",4,0,"Switch",1,"tomato",2,"",0,1227,"eyescenter",-1,0,0,1,(Mar 28 2014 02:50:00),0,TRUE,FALSE,4,FALSE
"525","A19M6CYM4B8WP2","Mar 28 2014","02:50:00",5,"Social","Zero",4,0,"Switch",1,"Novel37",3,"Novel81",0,1507,"eyes_right",3,1,0,0,(Mar 28 2014 02:50:00),0,TRUE,FALSE,4,FALSE
"526","A19M6CYM4B8WP2","Mar 28 2014","02:50:00",6,"Social","Zero",4,0,"Switch",1,"Novel81",0,"Novel81",0,8806,"eyescenter",-1,0,1,0,(Mar 28 2014 02:50:00),0,TRUE,TRUE,4,TRUE
"527","A19M6CYM4B8WP2","Mar 28 2014","02:50:00",7,"Social","Zero",4,1,"Same",1,"Novel36",0,"Novel36",0,4406,"eyes_left",0,1,0,0,(Mar 28 2014 02:50:00),0,TRUE,FALSE,4,TRUE
"528","A19M6CYM4B8WP2","Mar 28 2014","02:50:00",8,"Social","Zero",4,1,"Same",1,"Novel36",0,"Novel36",0,2613,"eyescenter",-1,0,1,0,(Mar 28 2014 02:50:00),0,TRUE,FALSE,4,TRUE
"529","A19M6CYM4B8WP2","Mar 28 2014","02:50:00",9,"Social","Zero",4,2,"Switch",1,"Novel54",1,"Novel66",2,4812,"eyes_down_left",1,1,0,0,(Mar 28 2014 02:50:00),0,TRUE,FALSE,4,FALSE
"530","A19M6CYM4B8WP2","Mar 28 2014","02:50:00",10,"Social","Zero",4,2,"Switch",1,"Novel66",2,"Novel66",2,4016,"eyescenter",-1,0,1,0,(Mar 28 2014 02:50:00),0,TRUE,FALSE,4,TRUE
"531","A19M6CYM4B8WP2","Mar 28 2014","02:50:00",11,"Social","Zero",4,3,"Same",0,"Novel19",0,"Novel19",0,5200,"eyes_left",0,1,0,0,(Mar 28 2014 02:50:00),0,TRUE,FALSE,4,TRUE
"532","A19M6CYM4B8WP2","Mar 28 2014","02:50:00",12,"Social","Zero",4,3,"Same",0,"Novel19",3,"Novel19",0,1185,"eyescenter",-1,0,1,0,(Mar 28 2014 02:50:00),0,TRUE,FALSE,4,TRUE
"533","A19M6CYM4B8WP2","Mar 28 2014","02:50:00",13,"Social","Zero",4,4,"Switch",0,"Novel91",0,"Novel35",2,4052,"eyes_left",0,1,0,0,(Mar 28 2014 02:50:00),0,TRUE,FALSE,4,FALSE
"534","A19M6CYM4B8WP2","Mar 28 2014","02:50:00",14,"Social","Zero",4,4,"Switch",0,"Novel129",2,"Novel35",2,7557,"eyescenter",-1,0,1,0,(Mar 28 2014 02:50:00),0,TRUE,FALSE,4,FALSE
"535","A19M6CYM4B8WP2","Mar 28 2014","02:50:00",15,"Social","Zero",4,5,"Same",1,"Novel5",1,"Novel5",1,5394,"eyes_down_left",1,1,0,0,(Mar 28 2014 02:50:00),0,TRUE,FALSE,4,TRUE
"536","A19M6CYM4B8WP2","Mar 28 2014","02:50:00",16,"Social","Zero",4,5,"Same",1,"Novel5",1,"Novel5",1,1,"eyescenter",-1,0,1,0,(Mar 28 2014 02:50:00),0,TRUE,FALSE,4,TRUE
"537","A19M6CYM4B8WP2","Mar 28 2014","02:50:00",17,"Social","Zero",4,6,"Switch",0,"Novel68",1,"Novel113",0,7309,"eyes_down_left",1,1,0,0,(Mar 28 2014 02:50:00),0,TRUE,FALSE,4,FALSE
"538","A19M6CYM4B8WP2","Mar 28 2014","02:50:00",18,"Social","Zero",4,6,"Switch",0,"Novel113",3,"Novel113",0,2287,"eyescenter",-1,0,1,0,(Mar 28 2014 02:50:00),0,TRUE,FALSE,4,TRUE
"539","A19M6CYM4B8WP2","Mar 28 2014","02:50:00",19,"Social","Zero",4,7,"Same",0,"Novel14",0,"Novel14",0,3787,"eyes_left",0,1,0,0,(Mar 28 2014 02:50:00),0,TRUE,FALSE,4,TRUE
"540","A19M6CYM4B8WP2","Mar 28 2014","02:50:00",20,"Social","Zero",4,7,"Same",0,"Novel14",3,"Novel14",0,1011,"eyescenter",-1,0,1,0,(Mar 28 2014 02:50:00),0,TRUE,FALSE,4,TRUE
"541","A1AE9DNJGYX0Q7","Mar 29 2014","14:43:12",1,"Social","Zero",4,0,"Same",0,"squirrel",0,"",0,2015,"eyescenter",-1,0,0,1,(Mar 29 2014 14:43:12),0,TRUE,FALSE,4,FALSE
"542","A1AE9DNJGYX0Q7","Mar 29 2014","14:43:12",2,"Social","Zero",4,0,"Same",0,"squirrel",0,"",0,1743,"eyescenter",-1,0,0,1,(Mar 29 2014 14:43:12),0,TRUE,FALSE,4,FALSE
"543","A1AE9DNJGYX0Q7","Mar 29 2014","14:43:12",3,"Social","Zero",4,0,"Same",0,"tomato",1,"",0,1543,"eyescenter",-1,0,0,1,(Mar 29 2014 14:43:12),0,TRUE,FALSE,4,FALSE
"544","A1AE9DNJGYX0Q7","Mar 29 2014","14:43:12",4,"Social","Zero",4,0,"Same",0,"tomato",2,"",0,1137,"eyescenter",-1,0,0,1,(Mar 29 2014 14:43:12),0,TRUE,FALSE,4,FALSE
"545","A1AE9DNJGYX0Q7","Mar 29 2014","14:43:12",5,"Social","Zero",4,0,"Same",0,"Novel25",1,"Novel25",1,4204,"eyes_down_left",1,1,0,0,(Mar 29 2014 14:43:12),0,TRUE,FALSE,4,TRUE
"546","A1AE9DNJGYX0Q7","Mar 29 2014","14:43:12",6,"Social","Zero",4,0,"Same",0,"Novel25",0,"Novel25",1,2146,"eyescenter",-1,0,1,0,(Mar 29 2014 14:43:12),0,TRUE,TRUE,4,TRUE
"547","A1AE9DNJGYX0Q7","Mar 29 2014","14:43:12",7,"Social","Zero",4,1,"Switch",1,"Novel88",2,"Novel26",0,4694,"eyes_down_right",2,1,0,0,(Mar 29 2014 14:43:12),0,TRUE,FALSE,4,FALSE
"548","A1AE9DNJGYX0Q7","Mar 29 2014","14:43:12",8,"Social","Zero",4,1,"Switch",1,"Novel84",2,"Novel26",0,6635,"eyescenter",-1,0,1,0,(Mar 29 2014 14:43:12),0,TRUE,FALSE,4,FALSE
"549","A1AE9DNJGYX0Q7","Mar 29 2014","14:43:12",9,"Social","Zero",4,2,"Same",1,"Novel76",0,"Novel76",0,2599,"eyes_left",0,1,0,0,(Mar 29 2014 14:43:12),0,TRUE,FALSE,4,TRUE
"550","A1AE9DNJGYX0Q7","Mar 29 2014","14:43:12",10,"Social","Zero",4,2,"Same",1,"Novel76",0,"Novel76",0,1593,"eyescenter",-1,0,1,0,(Mar 29 2014 14:43:12),0,TRUE,FALSE,4,TRUE
"551","A1AE9DNJGYX0Q7","Mar 29 2014","14:43:12",11,"Social","Zero",4,3,"Switch",0,"Novel79",2,"Novel2",3,4783,"eyes_down_right",2,1,0,0,(Mar 29 2014 14:43:12),0,TRUE,FALSE,4,FALSE
"552","A1AE9DNJGYX0Q7","Mar 29 2014","14:43:12",12,"Social","Zero",4,3,"Switch",0,"Novel49",3,"Novel2",3,2071,"eyescenter",-1,0,1,0,(Mar 29 2014 14:43:12),0,TRUE,FALSE,4,FALSE
"553","A1AE9DNJGYX0Q7","Mar 29 2014","14:43:12",13,"Social","Zero",4,4,"Same",1,"Novel120",0,"Novel120",0,4815,"eyes_left",0,1,0,0,(Mar 29 2014 14:43:12),0,TRUE,FALSE,4,TRUE
"554","A1AE9DNJGYX0Q7","Mar 29 2014","14:43:12",14,"Social","Zero",4,4,"Same",1,"Novel120",0,"Novel120",0,1428,"eyescenter",-1,0,1,0,(Mar 29 2014 14:43:12),0,TRUE,FALSE,4,TRUE
"555","A1AE9DNJGYX0Q7","Mar 29 2014","14:43:12",15,"Social","Zero",4,5,"Switch",1,"Novel11",0,"Novel63",3,4710,"eyes_right",3,1,0,0,(Mar 29 2014 14:43:12),0,TRUE,FALSE,4,FALSE
"556","A1AE9DNJGYX0Q7","Mar 29 2014","14:43:12",16,"Social","Zero",4,5,"Switch",1,"Novel63",3,"Novel63",3,2077,"eyescenter",-1,0,1,0,(Mar 29 2014 14:43:12),0,TRUE,FALSE,4,TRUE
"557","A1AE9DNJGYX0Q7","Mar 29 2014","14:43:12",17,"Social","Zero",4,6,"Same",0,"Novel77",1,"Novel77",1,3003,"eyes_down_left",1,1,0,0,(Mar 29 2014 14:43:12),0,TRUE,FALSE,4,TRUE
"558","A1AE9DNJGYX0Q7","Mar 29 2014","14:43:12",18,"Social","Zero",4,6,"Same",0,"Novel77",2,"Novel77",1,878,"eyescenter",-1,0,1,0,(Mar 29 2014 14:43:12),0,TRUE,FALSE,4,TRUE
"559","A1AE9DNJGYX0Q7","Mar 29 2014","14:43:12",19,"Social","Zero",4,7,"Switch",0,"Novel66",1,"Novel28",2,1442,"eyes_down_left",1,1,0,0,(Mar 29 2014 14:43:12),0,TRUE,FALSE,4,FALSE
"560","A1AE9DNJGYX0Q7","Mar 29 2014","14:43:12",20,"Social","Zero",4,7,"Switch",0,"Novel106",3,"Novel28",2,5032,"eyescenter",-1,0,1,0,(Mar 29 2014 14:43:12),0,TRUE,FALSE,4,FALSE
"561","A1B01W415IBT0","Mar 27 2014","22:42:20",1,"Social","Zero",4,0,"Switch",0,"squirrel",0,"",0,3428,"eyescenter",-1,0,0,1,(Mar 27 2014 22:42:20),0,TRUE,FALSE,4,FALSE
"562","A1B01W415IBT0","Mar 27 2014","22:42:20",2,"Social","Zero",4,0,"Switch",0,"squirrel",0,"",0,1893,"eyescenter",-1,0,0,1,(Mar 27 2014 22:42:20),0,TRUE,FALSE,4,FALSE
"563","A1B01W415IBT0","Mar 27 2014","22:42:20",3,"Social","Zero",4,0,"Switch",0,"tomato",1,"",0,2323,"eyescenter",-1,0,0,1,(Mar 27 2014 22:42:20),0,TRUE,FALSE,4,FALSE
"564","A1B01W415IBT0","Mar 27 2014","22:42:20",4,"Social","Zero",4,0,"Switch",0,"tomato",2,"",0,1523,"eyescenter",-1,0,0,1,(Mar 27 2014 22:42:20),0,TRUE,FALSE,4,FALSE
"565","A1B01W415IBT0","Mar 27 2014","22:42:20",5,"Social","Zero",4,0,"Switch",0,"Novel53",0,"Novel126",2,6199,"eyes_left",0,1,0,0,(Mar 27 2014 22:42:20),0,TRUE,FALSE,4,FALSE
"566","A1B01W415IBT0","Mar 27 2014","22:42:20",6,"Social","Zero",4,0,"Switch",0,"Novel26",0,"Novel126",2,3004,"eyescenter",-1,0,1,0,(Mar 27 2014 22:42:20),0,TRUE,TRUE,4,FALSE
"567","A1B01W415IBT0","Mar 27 2014","22:42:20",7,"Social","Zero",4,1,"Same",0,"Novel90",2,"Novel90",2,1930,"eyes_down_right",2,1,0,0,(Mar 27 2014 22:42:20),0,TRUE,FALSE,4,TRUE
"568","A1B01W415IBT0","Mar 27 2014","22:42:20",8,"Social","Zero",4,1,"Same",0,"Novel90",3,"Novel90",2,2920,"eyescenter",-1,0,1,0,(Mar 27 2014 22:42:20),0,TRUE,FALSE,4,TRUE
"569","A1B01W415IBT0","Mar 27 2014","22:42:20",9,"Social","Zero",4,2,"Switch",1,"Novel46",0,"Novel124",3,1296,"eyes_left",0,1,0,0,(Mar 27 2014 22:42:20),0,TRUE,FALSE,4,FALSE
"570","A1B01W415IBT0","Mar 27 2014","22:42:20",10,"Social","Zero",4,2,"Switch",1,"Novel106",1,"Novel124",3,4618,"eyescenter",-1,0,1,0,(Mar 27 2014 22:42:20),0,TRUE,FALSE,4,FALSE
"571","A1B01W415IBT0","Mar 27 2014","22:42:20",11,"Social","Zero",4,3,"Same",0,"Novel95",1,"Novel95",1,1477,"eyes_down_left",1,1,0,0,(Mar 27 2014 22:42:20),0,TRUE,FALSE,4,TRUE
"572","A1B01W415IBT0","Mar 27 2014","22:42:20",12,"Social","Zero",4,3,"Same",0,"Novel95",3,"Novel95",1,1064,"eyescenter",-1,0,1,0,(Mar 27 2014 22:42:20),0,TRUE,FALSE,4,TRUE
"573","A1B01W415IBT0","Mar 27 2014","22:42:20",13,"Social","Zero",4,4,"Switch",1,"Novel78",1,"Novel83",2,1333,"eyes_down_left",1,1,0,0,(Mar 27 2014 22:42:20),0,TRUE,FALSE,4,FALSE
"574","A1B01W415IBT0","Mar 27 2014","22:42:20",14,"Social","Zero",4,4,"Switch",1,"Novel10",3,"Novel83",2,2808,"eyescenter",-1,0,1,0,(Mar 27 2014 22:42:20),0,TRUE,FALSE,4,FALSE
"575","A1B01W415IBT0","Mar 27 2014","22:42:20",15,"Social","Zero",4,5,"Same",1,"Novel13",0,"Novel13",0,1815,"eyes_left",0,1,0,0,(Mar 27 2014 22:42:20),0,TRUE,FALSE,4,TRUE
"576","A1B01W415IBT0","Mar 27 2014","22:42:20",16,"Social","Zero",4,5,"Same",1,"Novel13",0,"Novel13",0,920,"eyescenter",-1,0,1,0,(Mar 27 2014 22:42:20),0,TRUE,FALSE,4,TRUE
"577","A1B01W415IBT0","Mar 27 2014","22:42:20",17,"Social","Zero",4,6,"Switch",0,"Novel75",2,"Novel64",1,1585,"eyes_down_right",2,1,0,0,(Mar 27 2014 22:42:20),0,TRUE,FALSE,4,FALSE
"578","A1B01W415IBT0","Mar 27 2014","22:42:20",18,"Social","Zero",4,6,"Switch",0,"Novel64",0,"Novel64",1,3112,"eyescenter",-1,0,1,0,(Mar 27 2014 22:42:20),0,TRUE,FALSE,4,TRUE
"579","A1B01W415IBT0","Mar 27 2014","22:42:20",19,"Social","Zero",4,7,"Same",1,"Novel93",0,"Novel93",0,1230,"eyes_left",0,1,0,0,(Mar 27 2014 22:42:20),0,TRUE,FALSE,4,TRUE
"580","A1B01W415IBT0","Mar 27 2014","22:42:20",20,"Social","Zero",4,7,"Same",1,"Novel93",0,"Novel93",0,815,"eyescenter",-1,0,1,0,(Mar 27 2014 22:42:20),0,TRUE,FALSE,4,TRUE
"581","A1BPHW0KCTG34P","Mar 27 2014","20:43:33",1,"Social","One",4,0,"Switch",1,"squirrel",0,"",0,2655,"eyescenter",-1,0,0,1,(Mar 27 2014 20:43:33),1,TRUE,FALSE,4,FALSE
"582","A1BPHW0KCTG34P","Mar 27 2014","20:43:33",2,"Social","One",4,0,"Switch",1,"squirrel",0,"",0,1570,"eyescenter",-1,0,0,1,(Mar 27 2014 20:43:33),1,TRUE,FALSE,4,FALSE
"583","A1BPHW0KCTG34P","Mar 27 2014","20:43:33",3,"Social","One",4,0,"Switch",1,"tomato",1,"",0,2177,"eyescenter",-1,0,0,1,(Mar 27 2014 20:43:33),1,TRUE,FALSE,4,FALSE
"584","A1BPHW0KCTG34P","Mar 27 2014","20:43:33",4,"Social","One",4,0,"Switch",1,"tomato",2,"",0,1373,"eyescenter",-1,0,0,1,(Mar 27 2014 20:43:33),1,TRUE,FALSE,4,FALSE
"585","A1BPHW0KCTG34P","Mar 27 2014","20:43:33",5,"Social","One",4,0,"Switch",1,"Novel122",0,"Novel129",2,5429,"eyes_left",0,1,0,0,(Mar 27 2014 20:43:33),1,TRUE,FALSE,4,FALSE
"586","A1BPHW0KCTG34P","Mar 27 2014","20:43:33",6,"Social","One",4,1,"Same",0,"Novel11",2,"Novel11",2,24866,"eyes_right",3,1,0,0,(Mar 27 2014 20:43:33),1,TRUE,FALSE,4,TRUE
"587","A1BPHW0KCTG34P","Mar 27 2014","20:43:33",7,"Social","One",4,0,"Switch",1,"Novel127",0,"Novel129",2,2094,"eyescenter",-1,0,1,0,(Mar 27 2014 20:43:33),1,TRUE,TRUE,4,FALSE
"588","A1BPHW0KCTG34P","Mar 27 2014","20:43:33",8,"Social","One",4,1,"Same",0,"Novel11",1,"Novel11",2,1211,"eyescenter",-1,0,1,0,(Mar 27 2014 20:43:33),1,TRUE,FALSE,4,TRUE
"589","A1BPHW0KCTG34P","Mar 27 2014","20:43:33",9,"Social","One",4,2,"Switch",1,"Novel3",2,"Novel85",3,1563,"eyes_down_left",1,1,0,0,(Mar 27 2014 20:43:33),1,TRUE,FALSE,4,FALSE
"590","A1BPHW0KCTG34P","Mar 27 2014","20:43:33",10,"Social","One",4,3,"Same",1,"Novel99",3,"Novel99",3,1657,"eyes_right",3,1,0,0,(Mar 27 2014 20:43:33),1,TRUE,FALSE,4,TRUE
"591","A1BPHW0KCTG34P","Mar 27 2014","20:43:33",11,"Social","One",4,2,"Switch",1,"Novel76",2,"Novel85",3,18071,"eyescenter",-1,0,1,0,(Mar 27 2014 20:43:33),1,TRUE,FALSE,4,FALSE
"592","A1BPHW0KCTG34P","Mar 27 2014","20:43:33",12,"Social","One",4,3,"Same",1,"Novel82",1,"Novel99",3,1566,"eyescenter",-1,0,1,0,(Mar 27 2014 20:43:33),1,TRUE,FALSE,4,FALSE
"593","A1BPHW0KCTG34P","Mar 27 2014","20:43:33",13,"Social","One",4,4,"Switch",0,"Novel72",2,"Novel10",1,79261,"eyes_right",3,1,0,0,(Mar 27 2014 20:43:33),1,TRUE,FALSE,4,FALSE
"594","A1BPHW0KCTG34P","Mar 27 2014","20:43:33",14,"Social","One",4,5,"Same",1,"Novel131",0,"Novel131",0,1678,"eyes_down_left",1,1,0,0,(Mar 27 2014 20:43:33),1,TRUE,FALSE,4,TRUE
"595","A1BPHW0KCTG34P","Mar 27 2014","20:43:33",15,"Social","One",4,4,"Switch",0,"Novel94",1,"Novel10",1,4697,"eyescenter",-1,0,1,0,(Mar 27 2014 20:43:33),1,TRUE,FALSE,4,FALSE
"596","A1BPHW0KCTG34P","Mar 27 2014","20:43:33",16,"Social","One",4,5,"Same",1,"Novel33",2,"Novel131",0,2249,"eyescenter",-1,0,1,0,(Mar 27 2014 20:43:33),1,TRUE,FALSE,4,FALSE
"597","A1BPHW0KCTG34P","Mar 27 2014","20:43:33",17,"Social","One",4,6,"Switch",0,"Novel136",1,"Novel49",0,5260,"eyes_down_left",1,1,0,0,(Mar 27 2014 20:43:33),1,TRUE,FALSE,4,FALSE
"598","A1BPHW0KCTG34P","Mar 27 2014","20:43:33",18,"Social","One",4,7,"Same",0,"Novel77",2,"Novel77",2,2547,"eyes_left",0,1,0,0,(Mar 27 2014 20:43:33),1,TRUE,FALSE,4,TRUE
"599","A1BPHW0KCTG34P","Mar 27 2014","20:43:33",19,"Social","One",4,6,"Switch",0,"Novel12",2,"Novel49",0,2642,"eyescenter",-1,0,1,0,(Mar 27 2014 20:43:33),1,TRUE,FALSE,4,FALSE
"600","A1BPHW0KCTG34P","Mar 27 2014","20:43:33",20,"Social","One",4,7,"Same",0,"Novel63",1,"Novel77",2,5293,"eyescenter",-1,0,1,0,(Mar 27 2014 20:43:33),1,TRUE,FALSE,4,FALSE
"601","A1BQXJLSTYE2GO","Mar 29 2014","09:48:17",1,"No-Social","Three",4,0,"Switch",1,"squirrel",0,"",0,2447,"eyescenter",-1,0,0,1,(Mar 29 2014 09:48:17),3,TRUE,FALSE,4,FALSE
"602","A1BQXJLSTYE2GO","Mar 29 2014","09:48:17",2,"No-Social","Three",4,0,"Switch",1,"squirrel",0,"",0,2078,"eyescenter",-1,0,0,1,(Mar 29 2014 09:48:17),3,TRUE,FALSE,4,FALSE
"603","A1BQXJLSTYE2GO","Mar 29 2014","09:48:17",3,"No-Social","Three",4,0,"Switch",1,"tomato",1,"",0,3022,"eyescenter",-1,0,0,1,(Mar 29 2014 09:48:17),3,TRUE,FALSE,4,FALSE
"604","A1BQXJLSTYE2GO","Mar 29 2014","09:48:17",4,"No-Social","Three",4,0,"Switch",1,"tomato",2,"",0,2178,"eyescenter",-1,0,0,1,(Mar 29 2014 09:48:17),3,TRUE,FALSE,4,FALSE
"605","A1BQXJLSTYE2GO","Mar 29 2014","09:48:17",5,"No-Social","Three",4,0,"Switch",1,"Novel107",1,"Novel31",0,8220,"eyescenter",-1,1,0,0,(Mar 29 2014 09:48:17),3,TRUE,FALSE,4,FALSE
"606","A1BQXJLSTYE2GO","Mar 29 2014","09:48:17",6,"No-Social","Three",4,1,"Same",1,"Novel14",1,"Novel14",1,10319,"eyescenter",-1,1,0,0,(Mar 29 2014 09:48:17),3,TRUE,FALSE,4,TRUE
"607","A1BQXJLSTYE2GO","Mar 29 2014","09:48:17",7,"No-Social","Three",4,2,"Switch",1,"Novel7",3,"Novel30",1,8476,"eyescenter",-1,1,0,0,(Mar 29 2014 09:48:17),3,TRUE,FALSE,4,FALSE
"608","A1BQXJLSTYE2GO","Mar 29 2014","09:48:17",8,"No-Social","Three",4,3,"Same",0,"Novel46",1,"Novel46",1,3859,"eyescenter",-1,1,0,0,(Mar 29 2014 09:48:17),3,TRUE,FALSE,4,TRUE
"609","A1BQXJLSTYE2GO","Mar 29 2014","09:48:17",9,"No-Social","Three",4,0,"Switch",1,"Novel68",3,"Novel31",0,8169,"eyescenter",-1,0,1,0,(Mar 29 2014 09:48:17),3,TRUE,TRUE,4,FALSE
"610","A1BQXJLSTYE2GO","Mar 29 2014","09:48:17",10,"No-Social","Three",4,1,"Same",1,"Novel82",0,"Novel14",1,13308,"eyescenter",-1,0,1,0,(Mar 29 2014 09:48:17),3,TRUE,FALSE,4,FALSE
"611","A1BQXJLSTYE2GO","Mar 29 2014","09:48:17",11,"No-Social","Three",4,2,"Switch",1,"Novel105",0,"Novel30",1,7761,"eyescenter",-1,0,1,0,(Mar 29 2014 09:48:17),3,TRUE,FALSE,4,FALSE
"612","A1BQXJLSTYE2GO","Mar 29 2014","09:48:17",12,"No-Social","Three",4,3,"Same",0,"Novel81",3,"Novel46",1,5203,"eyescenter",-1,0,1,0,(Mar 29 2014 09:48:17),3,TRUE,FALSE,4,FALSE
"613","A1BQXJLSTYE2GO","Mar 29 2014","09:48:17",13,"No-Social","Three",4,4,"Switch",0,"Novel136",0,"Novel38",3,1978,"eyescenter",-1,1,0,0,(Mar 29 2014 09:48:17),3,TRUE,FALSE,4,FALSE
"614","A1BQXJLSTYE2GO","Mar 29 2014","09:48:17",14,"No-Social","Three",4,5,"Same",0,"Novel42",1,"Novel42",1,4425,"eyescenter",-1,1,0,0,(Mar 29 2014 09:48:17),3,TRUE,FALSE,4,TRUE
"615","A1BQXJLSTYE2GO","Mar 29 2014","09:48:17",15,"No-Social","Three",4,6,"Switch",0,"Novel95",2,"Novel79",3,3476,"eyescenter",-1,1,0,0,(Mar 29 2014 09:48:17),3,TRUE,FALSE,4,FALSE
"616","A1BQXJLSTYE2GO","Mar 29 2014","09:48:17",16,"No-Social","Three",4,7,"Same",1,"Novel41",0,"Novel41",0,1873,"eyescenter",-1,1,0,0,(Mar 29 2014 09:48:17),3,TRUE,FALSE,4,TRUE
"617","A1BQXJLSTYE2GO","Mar 29 2014","09:48:17",17,"No-Social","Three",4,4,"Switch",0,"Novel15",2,"Novel38",3,6542,"eyescenter",-1,0,1,0,(Mar 29 2014 09:48:17),3,TRUE,FALSE,4,FALSE
"618","A1BQXJLSTYE2GO","Mar 29 2014","09:48:17",18,"No-Social","Three",4,5,"Same",0,"Novel42",2,"Novel42",1,1368,"eyescenter",-1,0,1,0,(Mar 29 2014 09:48:17),3,TRUE,FALSE,4,TRUE
"619","A1BQXJLSTYE2GO","Mar 29 2014","09:48:17",19,"No-Social","Three",4,6,"Switch",0,"Novel55",3,"Novel79",3,4934,"eyescenter",-1,0,1,0,(Mar 29 2014 09:48:17),3,TRUE,FALSE,4,FALSE
"620","A1BQXJLSTYE2GO","Mar 29 2014","09:48:17",20,"No-Social","Three",4,7,"Same",1,"Novel41",0,"Novel41",0,2878,"eyescenter",-1,0,1,0,(Mar 29 2014 09:48:17),3,TRUE,FALSE,4,TRUE
"641","A1CX53BTI88Z12","Mar 29 2014","15:33:00",1,"Social","Zero",4,0,"Switch",1,"squirrel",0,"",0,3742,"eyescenter",-1,0,0,1,(Mar 29 2014 15:33:00),0,TRUE,FALSE,4,FALSE
"642","A1CX53BTI88Z12","Mar 29 2014","15:33:00",2,"Social","Zero",4,0,"Switch",1,"squirrel",0,"",0,2232,"eyescenter",-1,0,0,1,(Mar 29 2014 15:33:00),0,TRUE,FALSE,4,FALSE
"643","A1CX53BTI88Z12","Mar 29 2014","15:33:00",3,"Social","Zero",4,0,"Switch",1,"tomato",1,"",0,2057,"eyescenter",-1,0,0,1,(Mar 29 2014 15:33:00),0,TRUE,FALSE,4,FALSE
"644","A1CX53BTI88Z12","Mar 29 2014","15:33:00",4,"Social","Zero",4,0,"Switch",1,"tomato",2,"",0,2127,"eyescenter",-1,0,0,1,(Mar 29 2014 15:33:00),0,TRUE,FALSE,4,FALSE
"645","A1CX53BTI88Z12","Mar 29 2014","15:33:00",5,"Social","Zero",4,0,"Switch",1,"Novel135",2,"Novel118",0,2567,"eyes_down_right",2,1,0,0,(Mar 29 2014 15:33:00),0,TRUE,FALSE,4,FALSE
"646","A1CX53BTI88Z12","Mar 29 2014","15:33:00",6,"Social","Zero",4,0,"Switch",1,"Novel32",3,"Novel118",0,5345,"eyescenter",-1,0,1,0,(Mar 29 2014 15:33:00),0,TRUE,TRUE,4,FALSE
"647","A1CX53BTI88Z12","Mar 29 2014","15:33:00",7,"Social","Zero",4,1,"Same",1,"Novel67",1,"Novel67",1,2818,"eyes_down_left",1,1,0,0,(Mar 29 2014 15:33:00),0,TRUE,FALSE,4,TRUE
