"submit.date","submit.time","trial.num","gazeLength","interval","numPic","browser","comments","condition","itemNum","trialType","samePos","chosen","chosenIdx","kept","keptIdx","rt","face","faceIdx","day.and.time","intervalNum","trials","trial_category","include","first.trial","numPicN","block","subid","final_faceIdx","include_good_rt","condition_trial","correct","mean_acc_exp","correct_exposure","rt_exposure"
"Jan 09 2015","05:04:06",1,"Live","Three",4,"Firefox","          ","SocialFirst",0,"Switch",0,"squirrel",0,"",0,1416,"up-left-4sec",0,"(Jan 09 2015 05:04:06)",3,36,"example",TRUE,FALSE,4,"first",1,2,"include","social",FALSE,1,TRUE,1391
"Jan 09 2015","05:04:06",2,"Live","Three",4,"Firefox","          ","SocialFirst",0,"Switch",0,"squirrel",0,"",0,1287,"up-left-4sec",0,"(Jan 09 2015 05:04:06)",3,36,"example",TRUE,FALSE,4,"first",1,2,"include","social",FALSE,1,TRUE,1391
"Jan 09 2015","05:04:06",3,"Live","Three",4,"Firefox","          ","SocialFirst",0,"Switch",0,"tomato",1,"",0,613,"up-right-4sec",0,"(Jan 09 2015 05:04:06)",3,36,"example",TRUE,FALSE,4,"first",1,2,"include","social",FALSE,1,TRUE,1391
"Jan 09 2015","05:04:06",4,"Live","Three",4,"Firefox","          ","SocialFirst",0,"Switch",0,"tomato",2,"",0,587,"down-left-4sec",0,"(Jan 09 2015 05:04:06)",3,36,"example",TRUE,FALSE,4,"first",1,2,"include","social",TRUE,1,TRUE,1391
"Jan 09 2015","05:04:06",5,"Live","Three",4,"Firefox","          ","SocialFirst",0,"Switch",0,"Novel131",3,"Novel23",2,1391,"down-right-4sec",2,"(Jan 09 2015 05:04:06)",3,36,"exposure",TRUE,FALSE,4,"first",1,3,"include","social",TRUE,1,TRUE,1391
"Jan 09 2015","05:04:06",6,"Live","Three",4,"Firefox","          ","SocialFirst",1,"Same",0,"Novel5",1,"Novel5",1,690,"up-right-4sec",3,"(Jan 09 2015 05:04:06)",3,36,"exposure",TRUE,FALSE,4,"first",1,1,"include","social",TRUE,1,TRUE,690
"Jan 09 2015","05:04:06",7,"Live","Three",4,"Firefox","          ","SocialFirst",2,"Switch",1,"Novel4",3,"Novel136",2,691,"down-right-4sec",2,"(Jan 09 2015 05:04:06)",3,36,"exposure",TRUE,FALSE,4,"first",1,3,"include","social",TRUE,1,TRUE,691
"Jan 09 2015","05:04:06",8,"Live","Three",4,"Firefox","          ","SocialFirst",3,"Same",0,"Novel25",3,"Novel25",3,2113,"down-right-4sec",2,"(Jan 09 2015 05:04:06)",3,36,"exposure",TRUE,FALSE,4,"first",1,3,"include","social",TRUE,1,TRUE,2113
"Jan 09 2015","05:04:06",9,"Live","Three",4,"Firefox","          ","SocialFirst",0,"Switch",0,"Novel69",0,"Novel23",2,3057,"straight-ahead",-1,"(Jan 09 2015 05:04:06)",3,36,"test",TRUE,TRUE,4,"first",1,-1,"include","social",FALSE,1,TRUE,1391
"Jan 09 2015","05:04:06",10,"Live","Three",4,"Firefox","          ","SocialFirst",1,"Same",0,"Novel107",2,"Novel5",1,1977,"straight-ahead",-1,"(Jan 09 2015 05:04:06)",3,36,"test",TRUE,FALSE,4,"first",1,-1,"include","social",FALSE,1,TRUE,690
"Jan 09 2015","05:04:06",11,"Live","Three",4,"Firefox","          ","SocialFirst",2,"Switch",1,"Novel129",1,"Novel136",2,2472,"straight-ahead",-1,"(Jan 09 2015 05:04:06)",3,36,"test",TRUE,FALSE,4,"first",1,-1,"include","social",FALSE,1,TRUE,691
"Jan 09 2015","05:04:06",12,"Live","Three",4,"Firefox","          ","SocialFirst",3,"Same",0,"Novel25",2,"Novel25",3,2750,"straight-ahead",-1,"(Jan 09 2015 05:04:06)",3,36,"test",TRUE,FALSE,4,"first",1,-1,"include","social",TRUE,1,TRUE,2113
"Jan 09 2015","05:04:06",13,"Live","Three",4,"Firefox","          ","SocialFirst",4,"Switch",0,"Novel105",3,"Novel98",0,878,"down-right-4sec",2,"(Jan 09 2015 05:04:06)",3,36,"exposure",TRUE,FALSE,4,"first",1,3,"include","social",TRUE,1,TRUE,878
"Jan 09 2015","05:04:06",14,"Live","Three",4,"Firefox","          ","SocialFirst",5,"Same",1,"Novel57",0,"Novel57",0,301,"up-left-4sec",1,"(Jan 09 2015 05:04:06)",3,36,"exposure",TRUE,FALSE,4,"first",1,0,"exclude","social",TRUE,1,TRUE,301
"Jan 09 2015","05:04:06",15,"Live","Three",4,"Firefox","          ","SocialFirst",6,"Switch",1,"Novel139",2,"Novel21",3,210,"down-left-4sec",0,"(Jan 09 2015 05:04:06)",3,36,"exposure",TRUE,FALSE,4,"first",1,2,"exclude","social",TRUE,1,TRUE,210
"Jan 09 2015","05:04:06",16,"Live","Three",4,"Firefox","          ","SocialFirst",7,"Same",1,"Novel14",0,"Novel14",0,169,"up-left-4sec",1,"(Jan 09 2015 05:04:06)",3,36,"exposure",TRUE,FALSE,4,"first",1,0,"exclude","social",TRUE,1,TRUE,169
"Jan 09 2015","05:04:06",17,"Live","Three",4,"Firefox","          ","SocialFirst",4,"Switch",0,"Novel98",3,"Novel98",0,1591,"straight-ahead",-1,"(Jan 09 2015 05:04:06)",3,36,"test",TRUE,FALSE,4,"first",1,-1,"include","social",TRUE,1,TRUE,878
"Jan 09 2015","05:04:06",18,"Live","Three",4,"Firefox","          ","SocialFirst",5,"Same",1,"Novel126",1,"Novel57",0,1116,"straight-ahead",-1,"(Jan 09 2015 05:04:06)",3,36,"test",TRUE,FALSE,4,"first",1,-1,"include","social",FALSE,1,TRUE,301
"Jan 09 2015","05:04:06",19,"Live","Three",4,"Firefox","          ","SocialFirst",6,"Switch",1,"Novel49",0,"Novel21",3,940,"straight-ahead",-1,"(Jan 09 2015 05:04:06)",3,36,"test",TRUE,FALSE,4,"first",1,-1,"include","social",FALSE,1,TRUE,210
"Jan 09 2015","05:04:06",20,"Live","Three",4,"Firefox","          ","SocialFirst",7,"Same",1,"Novel109",2,"Novel14",0,739,"straight-ahead",-1,"(Jan 09 2015 05:04:06)",3,36,"test",TRUE,FALSE,4,"first",1,-1,"include","social",FALSE,1,TRUE,169
"Jan 09 2015","05:04:06",21,"Live","Three",4,"Firefox","          ","SocialFirst",8,"Switch",0,"Novel58",1,"Novel43",0,1077,"straight-ahead",-1,"(Jan 09 2015 05:04:06)",3,36,"exposure",TRUE,FALSE,4,"second",1,-1,"include","no-social",NA,1,NA,1077
"Jan 09 2015","05:04:06",22,"Live","Three",4,"Firefox","          ","SocialFirst",9,"Same",0,"Novel46",3,"Novel46",3,1031,"straight-ahead",-1,"(Jan 09 2015 05:04:06)",3,36,"exposure",TRUE,FALSE,4,"second",1,-1,"include","no-social",NA,1,NA,1031
"Jan 09 2015","05:04:06",23,"Live","Three",4,"Firefox","          ","SocialFirst",10,"Switch",1,"Novel63",0,"Novel92",1,612,"straight-ahead",-1,"(Jan 09 2015 05:04:06)",3,36,"exposure",TRUE,FALSE,4,"second",1,-1,"include","no-social",NA,1,NA,612
"Jan 09 2015","05:04:06",24,"Live","Three",4,"Firefox","          ","SocialFirst",11,"Same",0,"Novel81",1,"Novel81",1,1858,"straight-ahead",-1,"(Jan 09 2015 05:04:06)",3,36,"exposure",TRUE,FALSE,4,"second",1,-1,"include","no-social",NA,1,NA,1858
"Jan 09 2015","05:04:06",25,"Live","Three",4,"Firefox","          ","SocialFirst",8,"Switch",0,"Novel61",3,"Novel43",0,1078,"straight-ahead",-1,"(Jan 09 2015 05:04:06)",3,36,"test",TRUE,FALSE,4,"second",1,-1,"include","no-social",FALSE,1,NA,1077
"Jan 09 2015","05:04:06",26,"Live","Three",4,"Firefox","          ","SocialFirst",9,"Same",0,"Novel115",0,"Novel46",3,669,"straight-ahead",-1,"(Jan 09 2015 05:04:06)",3,36,"test",TRUE,FALSE,4,"second",1,-1,"include","no-social",FALSE,1,NA,1031
"Jan 09 2015","05:04:06",27,"Live","Three",4,"Firefox","          ","SocialFirst",10,"Switch",1,"Novel92",1,"Novel92",1,536,"straight-ahead",-1,"(Jan 09 2015 05:04:06)",3,36,"test",TRUE,FALSE,4,"second",1,-1,"include","no-social",TRUE,1,NA,612
"Jan 09 2015","05:04:06",28,"Live","Three",4,"Firefox","          ","SocialFirst",11,"Same",0,"Novel81",2,"Novel81",1,274,"straight-ahead",-1,"(Jan 09 2015 05:04:06)",3,36,"test",TRUE,FALSE,4,"second",1,-1,"exclude","no-social",TRUE,1,NA,1858
"Jan 09 2015","05:04:06",29,"Live","Three",4,"Firefox","          ","SocialFirst",12,"Switch",0,"Novel111",1,"Novel140",3,488,"straight-ahead",-1,"(Jan 09 2015 05:04:06)",3,36,"exposure",TRUE,FALSE,4,"second",1,-1,"include","no-social",NA,1,NA,488
"Jan 09 2015","05:04:06",30,"Live","Three",4,"Firefox","          ","SocialFirst",13,"Same",1,"Novel77",3,"Novel77",3,644,"straight-ahead",-1,"(Jan 09 2015 05:04:06)",3,36,"exposure",TRUE,FALSE,4,"second",1,-1,"include","no-social",NA,1,NA,644
"Jan 09 2015","05:04:06",31,"Live","Three",4,"Firefox","          ","SocialFirst",14,"Switch",1,"Novel62",0,"Novel11",1,661,"straight-ahead",-1,"(Jan 09 2015 05:04:06)",3,36,"exposure",TRUE,FALSE,4,"second",1,-1,"include","no-social",NA,1,NA,661
"Jan 09 2015","05:04:06",32,"Live","Three",4,"Firefox","          ","SocialFirst",15,"Same",1,"Novel93",3,"Novel93",3,1341,"straight-ahead",-1,"(Jan 09 2015 05:04:06)",3,36,"exposure",TRUE,FALSE,4,"second",1,-1,"include","no-social",NA,1,NA,1341
"Jan 09 2015","05:04:06",33,"Live","Three",4,"Firefox","          ","SocialFirst",12,"Switch",0,"Novel55",0,"Novel140",3,490,"straight-ahead",-1,"(Jan 09 2015 05:04:06)",3,36,"test",TRUE,FALSE,4,"second",1,-1,"include","no-social",FALSE,1,NA,488
"Jan 09 2015","05:04:06",34,"Live","Three",4,"Firefox","          ","SocialFirst",13,"Same",1,"Novel40",2,"Novel77",3,513,"straight-ahead",-1,"(Jan 09 2015 05:04:06)",3,36,"test",TRUE,FALSE,4,"second",1,-1,"include","no-social",FALSE,1,NA,644
"Jan 09 2015","05:04:06",35,"Live","Three",4,"Firefox","          ","SocialFirst",14,"Switch",1,"Novel11",1,"Novel11",1,539,"straight-ahead",-1,"(Jan 09 2015 05:04:06)",3,36,"test",TRUE,FALSE,4,"second",1,-1,"include","no-social",TRUE,1,NA,661
"Jan 09 2015","05:04:06",36,"Live","Three",4,"Firefox","          ","SocialFirst",15,"Same",1,"Novel93",3,"Novel93",3,540,"straight-ahead",-1,"(Jan 09 2015 05:04:06)",3,36,"test",TRUE,FALSE,4,"second",1,-1,"include","no-social",TRUE,1,NA,1341
"Dec 05 2014","12:00:52",1,"Live","Zero",4,"Chrome","          ","No-socialFirst",0,"Switch",1,"squirrel",0,"",0,3184,"up-left-4sec",0,"(Dec 05 2014 12:00:52)",0,36,"example",TRUE,FALSE,4,"first",2,2,"include","no-social",FALSE,0.125,NA,5650
"Dec 05 2014","12:00:52",2,"Live","Zero",4,"Chrome","          ","No-socialFirst",0,"Switch",1,"squirrel",0,"",0,2975,"up-left-4sec",0,"(Dec 05 2014 12:00:52)",0,36,"example",TRUE,FALSE,4,"first",2,2,"include","no-social",FALSE,0.125,NA,5650
"Dec 05 2014","12:00:52",3,"Live","Zero",4,"Chrome","          ","No-socialFirst",0,"Switch",1,"tomato",1,"",0,2756,"up-right-4sec",0,"(Dec 05 2014 12:00:52)",0,36,"example",TRUE,FALSE,4,"first",2,2,"include","no-social",FALSE,0.125,NA,5650
"Dec 05 2014","12:00:52",4,"Live","Zero",4,"Chrome","          ","No-socialFirst",0,"Switch",1,"tomato",2,"",0,1950,"down-left-4sec",0,"(Dec 05 2014 12:00:52)",0,36,"example",TRUE,TRUE,4,"first",2,2,"include","no-social",TRUE,0.125,NA,5650
"Dec 05 2014","12:00:52",5,"Live","Zero",4,"Chrome","          ","No-socialFirst",0,"Switch",1,"Novel134",1,"Novel35",0,5650,"straight-ahead",-1,"(Dec 05 2014 12:00:52)",0,36,"exposure",TRUE,FALSE,4,"first",2,-1,"include","no-social",NA,0.125,NA,5650
"Dec 05 2014","12:00:52",6,"Live","Zero",4,"Chrome","          ","No-socialFirst",0,"Switch",1,"Novel35",0,"Novel35",0,6358,"straight-ahead",-1,"(Dec 05 2014 12:00:52)",0,36,"test",TRUE,FALSE,4,"first",2,-1,"include","no-social",TRUE,0.125,NA,5650
"Dec 05 2014","12:00:52",7,"Live","Zero",4,"Chrome","          ","No-socialFirst",1,"Same",0,"Novel20",1,"Novel20",1,3796,"straight-ahead",-1,"(Dec 05 2014 12:00:52)",0,36,"exposure",TRUE,FALSE,4,"first",2,-1,"include","no-social",NA,0.125,NA,3796
"Dec 05 2014","12:00:52",8,"Live","Zero",4,"Chrome","          ","No-socialFirst",1,"Same",0,"Novel20",0,"Novel20",1,2013,"straight-ahead",-1,"(Dec 05 2014 12:00:52)",0,36,"test",TRUE,FALSE,4,"first",2,-1,"include","no-social",TRUE,0.125,NA,3796
"Dec 05 2014","12:00:52",9,"Live","Zero",4,"Chrome","          ","No-socialFirst",2,"Switch",0,"Novel100",2,"Novel138",0,4488,"straight-ahead",-1,"(Dec 05 2014 12:00:52)",0,36,"exposure",TRUE,FALSE,4,"first",2,-1,"include","no-social",NA,0.125,NA,4488
"Dec 05 2014","12:00:52",10,"Live","Zero",4,"Chrome","          ","No-socialFirst",2,"Switch",0,"Novel138",2,"Novel138",0,2282,"straight-ahead",-1,"(Dec 05 2014 12:00:52)",0,36,"test",TRUE,FALSE,4,"first",2,-1,"include","no-social",TRUE,0.125,NA,4488
"Dec 05 2014","12:00:52",11,"Live","Zero",4,"Chrome","          ","No-socialFirst",3,"Same",0,"Novel21",2,"Novel21",2,2909,"straight-ahead",-1,"(Dec 05 2014 12:00:52)",0,36,"exposure",TRUE,FALSE,4,"first",2,-1,"include","no-social",NA,0.125,NA,2909
"Dec 05 2014","12:00:52",12,"Live","Zero",4,"Chrome","          ","No-socialFirst",3,"Same",0,"Novel21",1,"Novel21",2,1618,"straight-ahead",-1,"(Dec 05 2014 12:00:52)",0,36,"test",TRUE,FALSE,4,"first",2,-1,"include","no-social",TRUE,0.125,NA,2909
"Dec 05 2014","12:00:52",13,"Live","Zero",4,"Chrome","          ","No-socialFirst",4,"Switch",0,"Novel98",2,"Novel47",3,3895,"straight-ahead",-1,"(Dec 05 2014 12:00:52)",0,36,"exposure",TRUE,FALSE,4,"first",2,-1,"include","no-social",NA,0.125,NA,3895
"Dec 05 2014","12:00:52",14,"Live","Zero",4,"Chrome","          ","No-socialFirst",4,"Switch",0,"Novel47",2,"Novel47",3,2075,"straight-ahead",-1,"(Dec 05 2014 12:00:52)",0,36,"test",TRUE,FALSE,4,"first",2,-1,"include","no-social",TRUE,0.125,NA,3895
"Dec 05 2014","12:00:52",15,"Live","Zero",4,"Chrome","          ","No-socialFirst",5,"Same",1,"Novel104",2,"Novel104",2,5933,"straight-ahead",-1,"(Dec 05 2014 12:00:52)",0,36,"exposure",TRUE,FALSE,4,"first",2,-1,"include","no-social",NA,0.125,NA,5933
"Dec 05 2014","12:00:52",16,"Live","Zero",4,"Chrome","          ","No-socialFirst",5,"Same",1,"Novel104",2,"Novel104",2,2838,"straight-ahead",-1,"(Dec 05 2014 12:00:52)",0,36,"test",TRUE,FALSE,4,"first",2,-1,"include","no-social",TRUE,0.125,NA,5933
"Dec 05 2014","12:00:52",17,"Live","Zero",4,"Chrome","          ","No-socialFirst",6,"Switch",1,"Novel64",1,"Novel109",2,8284,"straight-ahead",-1,"(Dec 05 2014 12:00:52)",0,36,"exposure",TRUE,FALSE,4,"first",2,-1,"include","no-social",NA,0.125,NA,8284
"Dec 05 2014","12:00:52",18,"Live","Zero",4,"Chrome","          ","No-socialFirst",6,"Switch",1,"Novel109",2,"Novel109",2,1331,"straight-ahead",-1,"(Dec 05 2014 12:00:52)",0,36,"test",TRUE,FALSE,4,"first",2,-1,"include","no-social",TRUE,0.125,NA,8284
"Dec 05 2014","12:00:52",19,"Live","Zero",4,"Chrome","          ","No-socialFirst",7,"Same",1,"Novel83",1,"Novel83",1,4312,"straight-ahead",-1,"(Dec 05 2014 12:00:52)",0,36,"exposure",TRUE,FALSE,4,"first",2,-1,"include","no-social",NA,0.125,NA,4312
"Dec 05 2014","12:00:52",20,"Live","Zero",4,"Chrome","          ","No-socialFirst",7,"Same",1,"Novel83",1,"Novel83",1,2363,"straight-ahead",-1,"(Dec 05 2014 12:00:52)",0,36,"test",TRUE,FALSE,4,"first",2,-1,"include","no-social",TRUE,0.125,NA,4312
"Dec 05 2014","12:00:52",21,"Live","Zero",4,"Chrome","          ","No-socialFirst",8,"Switch",1,"Novel25",0,"Novel22",3,2180,"up-left-4sec",1,"(Dec 05 2014 12:00:52)",0,36,"exposure",TRUE,FALSE,4,"second",2,0,"include","social",TRUE,0.125,TRUE,2180
"Dec 05 2014","12:00:52",22,"Live","Zero",4,"Chrome","          ","No-socialFirst",8,"Switch",1,"Novel22",3,"Novel22",3,2077,"straight-ahead",-1,"(Dec 05 2014 12:00:52)",0,36,"test",TRUE,FALSE,4,"second",2,-1,"include","social",TRUE,0.125,TRUE,2180
"Dec 05 2014","12:00:52",23,"Live","Zero",4,"Chrome","          ","No-socialFirst",9,"Same",0,"Novel96",0,"Novel96",0,3829,"down-right-4sec",2,"(Dec 05 2014 12:00:52)",0,36,"exposure",TRUE,FALSE,4,"second",2,3,"include","social",FALSE,0.125,FALSE,3829
"Dec 05 2014","12:00:52",24,"Live","Zero",4,"Chrome","          ","No-socialFirst",9,"Same",0,"Novel96",2,"Novel96",0,1858,"straight-ahead",-1,"(Dec 05 2014 12:00:52)",0,36,"test",TRUE,FALSE,4,"second",2,-1,"include","social",TRUE,0.125,FALSE,3829
"Dec 05 2014","12:00:52",25,"Live","Zero",4,"Chrome","          ","No-socialFirst",10,"Switch",0,"Novel130",3,"Novel94",1,1933,"up-left-4sec",1,"(Dec 05 2014 12:00:52)",0,36,"exposure",TRUE,FALSE,4,"second",2,0,"include","social",FALSE,0.125,FALSE,1933
"Dec 05 2014","12:00:52",26,"Live","Zero",4,"Chrome","          ","No-socialFirst",10,"Switch",0,"Novel13",2,"Novel94",1,1614,"straight-ahead",-1,"(Dec 05 2014 12:00:52)",0,36,"test",TRUE,FALSE,4,"second",2,-1,"include","social",FALSE,0.125,FALSE,1933
"Dec 05 2014","12:00:52",27,"Live","Zero",4,"Chrome","          ","No-socialFirst",11,"Same",0,"Novel32",1,"Novel32",1,3649,"up-left-4sec",1,"(Dec 05 2014 12:00:52)",0,36,"exposure",TRUE,FALSE,4,"second",2,0,"include","social",FALSE,0.125,FALSE,3649
"Dec 05 2014","12:00:52",28,"Live","Zero",4,"Chrome","          ","No-socialFirst",11,"Same",0,"Novel32",2,"Novel32",1,1444,"straight-ahead",-1,"(Dec 05 2014 12:00:52)",0,36,"test",TRUE,FALSE,4,"second",2,-1,"include","social",TRUE,0.125,FALSE,3649
"Dec 05 2014","12:00:52",29,"Live","Zero",4,"Chrome","          ","No-socialFirst",12,"Switch",0,"Novel55",2,"Novel84",1,2409,"up-right-4sec",3,"(Dec 05 2014 12:00:52)",0,36,"exposure",TRUE,FALSE,4,"second",2,1,"include","social",FALSE,0.125,FALSE,2409
"Dec 05 2014","12:00:52",30,"Live","Zero",4,"Chrome","          ","No-socialFirst",12,"Switch",0,"Novel9",2,"Novel84",1,37,"straight-ahead",-1,"(Dec 05 2014 12:00:52)",0,36,"test",TRUE,FALSE,4,"second",2,-1,"exclude","social",FALSE,0.125,FALSE,2409
"Dec 05 2014","12:00:52",31,"Live","Zero",4,"Chrome","          ","No-socialFirst",13,"Same",1,"Novel51",3,"Novel51",3,2102,"down-left-4sec",0,"(Dec 05 2014 12:00:52)",0,36,"exposure",TRUE,FALSE,4,"second",2,2,"include","social",FALSE,0.125,FALSE,2102
"Dec 05 2014","12:00:52",32,"Live","Zero",4,"Chrome","          ","No-socialFirst",13,"Same",1,"Novel51",3,"Novel51",3,1429,"straight-ahead",-1,"(Dec 05 2014 12:00:52)",0,36,"test",TRUE,FALSE,4,"second",2,-1,"include","social",TRUE,0.125,FALSE,2102
"Dec 05 2014","12:00:52",33,"Live","Zero",4,"Chrome","          ","No-socialFirst",14,"Switch",1,"Novel72",1,"Novel44",3,2069,"down-left-4sec",0,"(Dec 05 2014 12:00:52)",0,36,"exposure",TRUE,FALSE,4,"second",2,2,"include","social",FALSE,0.125,FALSE,2069
"Dec 05 2014","12:00:52",34,"Live","Zero",4,"Chrome","          ","No-socialFirst",14,"Switch",1,"Novel44",3,"Novel44",3,2398,"straight-ahead",-1,"(Dec 05 2014 12:00:52)",0,36,"test",TRUE,FALSE,4,"second",2,-1,"include","social",TRUE,0.125,FALSE,2069
"Dec 05 2014","12:00:52",35,"Live","Zero",4,"Chrome","          ","No-socialFirst",15,"Same",1,"Novel33",2,"Novel33",2,3300,"up-left-4sec",1,"(Dec 05 2014 12:00:52)",0,36,"exposure",TRUE,FALSE,4,"second",2,0,"include","social",FALSE,0.125,FALSE,3300
"Dec 05 2014","12:00:52",36,"Live","Zero",4,"Chrome","          ","No-socialFirst",15,"Same",1,"Novel33",2,"Novel33",2,1380,"straight-ahead",-1,"(Dec 05 2014 12:00:52)",0,36,"test",TRUE,FALSE,4,"second",2,-1,"include","social",TRUE,0.125,FALSE,3300
"Jan 09 2015","07:05:33",1,"Live","Three",4,"Safari","          ","No-socialFirst",0,"Same",1,"squirrel",0,"",0,3096,"up-left-4sec",0,"(Jan 09 2015 07:05:33)",3,36,"example",TRUE,FALSE,4,"first",3,2,"include","no-social",FALSE,0.875,NA,6409
"Jan 09 2015","07:05:33",2,"Live","Three",4,"Safari","          ","No-socialFirst",0,"Same",1,"squirrel",0,"",0,1089,"up-left-4sec",0,"(Jan 09 2015 07:05:33)",3,36,"example",TRUE,FALSE,4,"first",3,2,"include","no-social",FALSE,0.875,NA,6409
"Jan 09 2015","07:05:33",3,"Live","Three",4,"Safari","          ","No-socialFirst",0,"Same",1,"tomato",1,"",0,996,"up-right-4sec",0,"(Jan 09 2015 07:05:33)",3,36,"example",TRUE,FALSE,4,"first",3,2,"include","no-social",FALSE,0.875,NA,6409
"Jan 09 2015","07:05:33",4,"Live","Three",4,"Safari","          ","No-socialFirst",0,"Same",1,"tomato",2,"",0,872,"down-left-4sec",0,"(Jan 09 2015 07:05:33)",3,36,"example",TRUE,FALSE,4,"first",3,2,"include","no-social",TRUE,0.875,NA,6409
"Jan 09 2015","07:05:33",5,"Live","Three",4,"Safari","          ","No-socialFirst",0,"Same",1,"Novel130",1,"Novel130",1,6409,"straight-ahead",-1,"(Jan 09 2015 07:05:33)",3,36,"exposure",TRUE,FALSE,4,"first",3,-1,"include","no-social",NA,0.875,NA,6409
"Jan 09 2015","07:05:33",6,"Live","Three",4,"Safari","          ","No-socialFirst",1,"Switch",1,"Novel80",0,"Novel23",1,5911,"straight-ahead",-1,"(Jan 09 2015 07:05:33)",3,36,"exposure",TRUE,FALSE,4,"first",3,-1,"include","no-social",NA,0.875,NA,5911
"Jan 09 2015","07:05:33",7,"Live","Three",4,"Safari","          ","No-socialFirst",2,"Same",0,"Novel18",2,"Novel18",2,3145,"straight-ahead",-1,"(Jan 09 2015 07:05:33)",3,36,"exposure",TRUE,FALSE,4,"first",3,-1,"include","no-social",NA,0.875,NA,3145
"Jan 09 2015","07:05:33",8,"Live","Three",4,"Safari","          ","No-socialFirst",3,"Switch",0,"Novel109",1,"Novel92",3,4529,"straight-ahead",-1,"(Jan 09 2015 07:05:33)",3,36,"exposure",TRUE,FALSE,4,"first",3,-1,"include","no-social",NA,0.875,NA,4529
"Jan 09 2015","07:05:33",9,"Live","Three",4,"Safari","          ","No-socialFirst",0,"Same",1,"Novel130",1,"Novel130",1,1837,"straight-ahead",-1,"(Jan 09 2015 07:05:33)",3,36,"test",TRUE,TRUE,4,"first",3,-1,"include","no-social",TRUE,0.875,NA,6409
"Jan 09 2015","07:05:33",10,"Live","Three",4,"Safari","          ","No-socialFirst",1,"Switch",1,"Novel10",2,"Novel23",1,3700,"straight-ahead",-1,"(Jan 09 2015 07:05:33)",3,36,"test",TRUE,FALSE,4,"first",3,-1,"include","no-social",FALSE,0.875,NA,5911
"Jan 09 2015","07:05:33",11,"Live","Three",4,"Safari","          ","No-socialFirst",2,"Same",0,"Novel18",1,"Novel18",2,4868,"straight-ahead",-1,"(Jan 09 2015 07:05:33)",3,36,"test",TRUE,FALSE,4,"first",3,-1,"include","no-social",TRUE,0.875,NA,3145
"Jan 09 2015","07:05:33",12,"Live","Three",4,"Safari","          ","No-socialFirst",3,"Switch",0,"Novel112",2,"Novel92",3,4284,"straight-ahead",-1,"(Jan 09 2015 07:05:33)",3,36,"test",TRUE,FALSE,4,"first",3,-1,"include","no-social",FALSE,0.875,NA,4529
"Jan 09 2015","07:05:33",13,"Live","Three",4,"Safari","          ","No-socialFirst",4,"Same",1,"Novel30",0,"Novel30",0,5485,"straight-ahead",-1,"(Jan 09 2015 07:05:33)",3,36,"exposure",TRUE,FALSE,4,"first",3,-1,"include","no-social",NA,0.875,NA,5485
"Jan 09 2015","07:05:33",14,"Live","Three",4,"Safari","          ","No-socialFirst",5,"Switch",1,"Novel12",3,"Novel60",0,5224,"straight-ahead",-1,"(Jan 09 2015 07:05:33)",3,36,"exposure",TRUE,FALSE,4,"first",3,-1,"include","no-social",NA,0.875,NA,5224
"Jan 09 2015","07:05:33",15,"Live","Three",4,"Safari","          ","No-socialFirst",6,"Same",0,"Novel39",1,"Novel39",1,2586,"straight-ahead",-1,"(Jan 09 2015 07:05:33)",3,36,"exposure",TRUE,FALSE,4,"first",3,-1,"include","no-social",NA,0.875,NA,2586
"Jan 09 2015","07:05:33",16,"Live","Three",4,"Safari","          ","No-socialFirst",7,"Switch",0,"Novel135",1,"Novel136",2,3303,"straight-ahead",-1,"(Jan 09 2015 07:05:33)",3,36,"exposure",TRUE,FALSE,4,"first",3,-1,"include","no-social",NA,0.875,NA,3303
"Jan 09 2015","07:05:33",17,"Live","Three",4,"Safari","          ","No-socialFirst",4,"Same",1,"Novel30",0,"Novel30",0,1234,"straight-ahead",-1,"(Jan 09 2015 07:05:33)",3,36,"test",TRUE,FALSE,4,"first",3,-1,"include","no-social",TRUE,0.875,NA,5485
"Jan 09 2015","07:05:33",18,"Live","Three",4,"Safari","          ","No-socialFirst",5,"Switch",1,"Novel67",3,"Novel60",0,2505,"straight-ahead",-1,"(Jan 09 2015 07:05:33)",3,36,"test",TRUE,FALSE,4,"first",3,-1,"include","no-social",FALSE,0.875,NA,5224
"Jan 09 2015","07:05:33",19,"Live","Three",4,"Safari","          ","No-socialFirst",6,"Same",0,"Novel39",2,"Novel39",1,1436,"straight-ahead",-1,"(Jan 09 2015 07:05:33)",3,36,"test",TRUE,FALSE,4,"first",3,-1,"include","no-social",TRUE,0.875,NA,2586
"Jan 09 2015","07:05:33",20,"Live","Three",4,"Safari","          ","No-socialFirst",7,"Switch",0,"Novel136",3,"Novel136",2,2477,"straight-ahead",-1,"(Jan 09 2015 07:05:33)",3,36,"test",TRUE,FALSE,4,"first",3,-1,"include","no-social",TRUE,0.875,NA,3303
"Jan 09 2015","07:05:33",21,"Live","Three",4,"Safari","          ","No-socialFirst",8,"Same",1,"Novel33",3,"Novel33",3,3468,"down-right-4sec",2,"(Jan 09 2015 07:05:33)",3,36,"exposure",TRUE,FALSE,4,"second",3,3,"include","social",TRUE,0.875,TRUE,3468
"Jan 09 2015","07:05:33",22,"Live","Three",4,"Safari","          ","No-socialFirst",9,"Switch",1,"Novel48",1,"Novel4",0,2183,"up-right-4sec",3,"(Jan 09 2015 07:05:33)",3,36,"exposure",TRUE,FALSE,4,"second",3,1,"include","social",TRUE,0.875,TRUE,2183
"Jan 09 2015","07:05:33",23,"Live","Three",4,"Safari","          ","No-socialFirst",10,"Same",0,"Novel123",0,"Novel123",0,3704,"down-right-4sec",2,"(Jan 09 2015 07:05:33)",3,36,"exposure",TRUE,FALSE,4,"second",3,3,"include","social",FALSE,0.875,FALSE,3704
"Jan 09 2015","07:05:33",24,"Live","Three",4,"Safari","          ","No-socialFirst",11,"Switch",0,"Novel76",1,"Novel14",0,1201,"up-right-4sec",3,"(Jan 09 2015 07:05:33)",3,36,"exposure",TRUE,FALSE,4,"second",3,1,"include","social",TRUE,0.875,TRUE,1201
"Jan 09 2015","07:05:33",25,"Live","Three",4,"Safari","          ","No-socialFirst",8,"Same",1,"Novel33",3,"Novel33",3,1725,"straight-ahead",-1,"(Jan 09 2015 07:05:33)",3,36,"test",TRUE,FALSE,4,"second",3,-1,"include","social",TRUE,0.875,TRUE,3468
"Jan 09 2015","07:05:33",26,"Live","Three",4,"Safari","          ","No-socialFirst",9,"Switch",1,"Novel127",1,"Novel4",0,2196,"straight-ahead",-1,"(Jan 09 2015 07:05:33)",3,36,"test",TRUE,FALSE,4,"second",3,-1,"include","social",FALSE,0.875,TRUE,2183
"Jan 09 2015","07:05:33",27,"Live","Three",4,"Safari","          ","No-socialFirst",10,"Same",0,"Novel123",3,"Novel123",0,2112,"straight-ahead",-1,"(Jan 09 2015 07:05:33)",3,36,"test",TRUE,FALSE,4,"second",3,-1,"include","social",TRUE,0.875,FALSE,3704
"Jan 09 2015","07:05:33",28,"Live","Three",4,"Safari","          ","No-socialFirst",11,"Switch",0,"Novel14",1,"Novel14",0,2262,"straight-ahead",-1,"(Jan 09 2015 07:05:33)",3,36,"test",TRUE,FALSE,4,"second",3,-1,"include","social",TRUE,0.875,TRUE,1201
"Jan 09 2015","07:05:33",29,"Live","Three",4,"Safari","          ","No-socialFirst",12,"Same",1,"Novel31",0,"Novel31",0,1557,"up-left-4sec",1,"(Jan 09 2015 07:05:33)",3,36,"exposure",TRUE,FALSE,4,"second",3,0,"include","social",TRUE,0.875,TRUE,1557
"Jan 09 2015","07:05:33",30,"Live","Three",4,"Safari","          ","No-socialFirst",13,"Switch",1,"Novel126",1,"Novel36",3,1006,"up-right-4sec",3,"(Jan 09 2015 07:05:33)",3,36,"exposure",TRUE,FALSE,4,"second",3,1,"include","social",TRUE,0.875,TRUE,1006
"Jan 09 2015","07:05:33",31,"Live","Three",4,"Safari","          ","No-socialFirst",14,"Same",0,"Novel125",0,"Novel125",0,1123,"up-left-4sec",1,"(Jan 09 2015 07:05:33)",3,36,"exposure",TRUE,FALSE,4,"second",3,0,"include","social",TRUE,0.875,TRUE,1123
"Jan 09 2015","07:05:33",32,"Live","Three",4,"Safari","          ","No-socialFirst",15,"Switch",0,"Novel139",1,"Novel29",2,941,"up-right-4sec",3,"(Jan 09 2015 07:05:33)",3,36,"exposure",TRUE,FALSE,4,"second",3,1,"include","social",TRUE,0.875,TRUE,941
"Jan 09 2015","07:05:33",33,"Live","Three",4,"Safari","          ","No-socialFirst",12,"Same",1,"Novel31",0,"Novel31",0,1236,"straight-ahead",-1,"(Jan 09 2015 07:05:33)",3,36,"test",TRUE,FALSE,4,"second",3,-1,"include","social",TRUE,0.875,TRUE,1557
"Jan 09 2015","07:05:33",34,"Live","Three",4,"Safari","          ","No-socialFirst",13,"Switch",1,"Novel45",2,"Novel36",3,3614,"straight-ahead",-1,"(Jan 09 2015 07:05:33)",3,36,"test",TRUE,FALSE,4,"second",3,-1,"include","social",FALSE,0.875,TRUE,1006
"Jan 09 2015","07:05:33",35,"Live","Three",4,"Safari","          ","No-socialFirst",14,"Same",0,"Novel74",3,"Novel125",0,804,"straight-ahead",-1,"(Jan 09 2015 07:05:33)",3,36,"test",TRUE,FALSE,4,"second",3,-1,"include","social",FALSE,0.875,TRUE,1123
"Jan 09 2015","07:05:33",36,"Live","Three",4,"Safari","          ","No-socialFirst",15,"Switch",0,"Novel47",2,"Novel29",2,3118,"straight-ahead",-1,"(Jan 09 2015 07:05:33)",3,36,"test",TRUE,FALSE,4,"second",3,-1,"include","social",FALSE,0.875,TRUE,941
"Jan 08 2015","23:11:29",1,"Live","Three",4,"Chrome","          ","No-socialFirst",0,"Switch",0,"squirrel",0,"",0,820,"up-left-4sec",0,"(Jan 08 2015 23:11:29)",3,36,"example",TRUE,FALSE,4,"first",4,2,"include","no-social",FALSE,1,NA,4815
"Jan 08 2015","23:11:29",2,"Live","Three",4,"Chrome","          ","No-socialFirst",0,"Switch",0,"squirrel",0,"",0,490,"up-left-4sec",0,"(Jan 08 2015 23:11:29)",3,36,"example",TRUE,FALSE,4,"first",4,2,"include","no-social",FALSE,1,NA,4815
"Jan 08 2015","23:11:29",3,"Live","Three",4,"Chrome","          ","No-socialFirst",0,"Switch",0,"tomato",1,"",0,354,"up-right-4sec",0,"(Jan 08 2015 23:11:29)",3,36,"example",TRUE,FALSE,4,"first",4,2,"exclude","no-social",FALSE,1,NA,4815
"Jan 08 2015","23:11:29",4,"Live","Three",4,"Chrome","          ","No-socialFirst",0,"Switch",0,"tomato",2,"",0,433,"down-left-4sec",0,"(Jan 08 2015 23:11:29)",3,36,"example",TRUE,FALSE,4,"first",4,2,"include","no-social",TRUE,1,NA,4815
"Jan 08 2015","23:11:29",5,"Live","Three",4,"Chrome","          ","No-socialFirst",0,"Switch",0,"Novel134",0,"Novel133",1,4815,"straight-ahead",-1,"(Jan 08 2015 23:11:29)",3,36,"exposure",TRUE,FALSE,4,"first",4,-1,"include","no-social",NA,1,NA,4815
"Jan 08 2015","23:11:29",6,"Live","Three",4,"Chrome","          ","No-socialFirst",1,"Same",0,"Novel92",2,"Novel92",2,6970,"straight-ahead",-1,"(Jan 08 2015 23:11:29)",3,36,"exposure",TRUE,FALSE,4,"first",4,-1,"include","no-social",NA,1,NA,6970
"Jan 08 2015","23:11:29",7,"Live","Three",4,"Chrome","          ","No-socialFirst",2,"Switch",0,"Novel43",2,"Novel68",1,4301,"straight-ahead",-1,"(Jan 08 2015 23:11:29)",3,36,"exposure",TRUE,FALSE,4,"first",4,-1,"include","no-social",NA,1,NA,4301
"Jan 08 2015","23:11:29",8,"Live","Three",4,"Chrome","          ","No-socialFirst",3,"Same",1,"Novel95",2,"Novel95",2,1582,"straight-ahead",-1,"(Jan 08 2015 23:11:29)",3,36,"exposure",TRUE,FALSE,4,"first",4,-1,"include","no-social",NA,1,NA,1582
"Jan 08 2015","23:11:29",9,"Live","Three",4,"Chrome","          ","No-socialFirst",0,"Switch",0,"Novel133",2,"Novel133",1,1735,"straight-ahead",-1,"(Jan 08 2015 23:11:29)",3,36,"test",TRUE,TRUE,4,"first",4,-1,"include","no-social",TRUE,1,NA,4815
"Jan 08 2015","23:11:29",10,"Live","Three",4,"Chrome","          ","No-socialFirst",1,"Same",0,"Novel92",3,"Novel92",2,2772,"straight-ahead",-1,"(Jan 08 2015 23:11:29)",3,36,"test",TRUE,FALSE,4,"first",4,-1,"include","no-social",TRUE,1,NA,6970
"Jan 08 2015","23:11:29",11,"Live","Three",4,"Chrome","          ","No-socialFirst",2,"Switch",0,"Novel68",2,"Novel68",1,2349,"straight-ahead",-1,"(Jan 08 2015 23:11:29)",3,36,"test",TRUE,FALSE,4,"first",4,-1,"include","no-social",TRUE,1,NA,4301
"Jan 08 2015","23:11:29",12,"Live","Three",4,"Chrome","          ","No-socialFirst",3,"Same",1,"Novel95",2,"Novel95",2,677,"straight-ahead",-1,"(Jan 08 2015 23:11:29)",3,36,"test",TRUE,FALSE,4,"first",4,-1,"include","no-social",TRUE,1,NA,1582
"Jan 08 2015","23:11:29",13,"Live","Three",4,"Chrome","          ","No-socialFirst",4,"Switch",1,"Novel81",1,"Novel28",0,3786,"straight-ahead",-1,"(Jan 08 2015 23:11:29)",3,36,"exposure",TRUE,FALSE,4,"first",4,-1,"include","no-social",NA,1,NA,3786
"Jan 08 2015","23:11:29",14,"Live","Three",4,"Chrome","          ","No-socialFirst",5,"Same",1,"Novel129",2,"Novel129",2,2951,"straight-ahead",-1,"(Jan 08 2015 23:11:29)",3,36,"exposure",TRUE,FALSE,4,"first",4,-1,"include","no-social",NA,1,NA,2951
"Jan 08 2015","23:11:29",15,"Live","Three",4,"Chrome","          ","No-socialFirst",6,"Switch",1,"Novel123",0,"Novel1",2,3176,"straight-ahead",-1,"(Jan 08 2015 23:11:29)",3,36,"exposure",TRUE,FALSE,4,"first",4,-1,"include","no-social",NA,1,NA,3176
"Jan 08 2015","23:11:29",16,"Live","Three",4,"Chrome","          ","No-socialFirst",7,"Same",0,"Novel29",0,"Novel29",0,1297,"straight-ahead",-1,"(Jan 08 2015 23:11:29)",3,36,"exposure",TRUE,FALSE,4,"first",4,-1,"include","no-social",NA,1,NA,1297
"Jan 08 2015","23:11:29",17,"Live","Three",4,"Chrome","          ","No-socialFirst",4,"Switch",1,"Novel28",0,"Novel28",0,3770,"straight-ahead",-1,"(Jan 08 2015 23:11:29)",3,36,"test",TRUE,FALSE,4,"first",4,-1,"include","no-social",TRUE,1,NA,3786
"Jan 08 2015","23:11:29",18,"Live","Three",4,"Chrome","          ","No-socialFirst",5,"Same",1,"Novel129",2,"Novel129",2,1130,"straight-ahead",-1,"(Jan 08 2015 23:11:29)",3,36,"test",TRUE,FALSE,4,"first",4,-1,"include","no-social",TRUE,1,NA,2951
"Jan 08 2015","23:11:29",19,"Live","Three",4,"Chrome","          ","No-socialFirst",6,"Switch",1,"Novel25",0,"Novel1",2,1123,"straight-ahead",-1,"(Jan 08 2015 23:11:29)",3,36,"test",TRUE,FALSE,4,"first",4,-1,"include","no-social",FALSE,1,NA,3176
"Jan 08 2015","23:11:29",20,"Live","Three",4,"Chrome","          ","No-socialFirst",7,"Same",0,"Novel29",1,"Novel29",0,2090,"straight-ahead",-1,"(Jan 08 2015 23:11:29)",3,36,"test",TRUE,FALSE,4,"first",4,-1,"include","no-social",TRUE,1,NA,1297
"Jan 08 2015","23:11:29",21,"Live","Three",4,"Chrome","          ","No-socialFirst",8,"Switch",0,"Novel64",3,"Novel140",0,1186,"down-right-4sec",2,"(Jan 08 2015 23:11:29)",3,36,"exposure",TRUE,FALSE,4,"second",4,3,"include","social",TRUE,1,TRUE,1186
"Jan 08 2015","23:11:29",22,"Live","Three",4,"Chrome","          ","No-socialFirst",9,"Same",0,"Novel8",2,"Novel8",2,946,"down-left-4sec",0,"(Jan 08 2015 23:11:29)",3,36,"exposure",TRUE,FALSE,4,"second",4,2,"include","social",TRUE,1,TRUE,946
"Jan 08 2015","23:11:29",23,"Live","Three",4,"Chrome","          ","No-socialFirst",10,"Switch",0,"Novel85",2,"Novel60",0,603,"down-left-4sec",0,"(Jan 08 2015 23:11:29)",3,36,"exposure",TRUE,FALSE,4,"second",4,2,"include","social",TRUE,1,TRUE,603
"Jan 08 2015","23:11:29",24,"Live","Three",4,"Chrome","          ","No-socialFirst",11,"Same",1,"Novel119",0,"Novel119",0,350,"up-left-4sec",1,"(Jan 08 2015 23:11:29)",3,36,"exposure",TRUE,FALSE,4,"second",4,0,"exclude","social",TRUE,1,TRUE,350
"Jan 08 2015","23:11:29",25,"Live","Three",4,"Chrome","          ","No-socialFirst",8,"Switch",0,"Novel88",1,"Novel140",0,5631,"straight-ahead",-1,"(Jan 08 2015 23:11:29)",3,36,"test",TRUE,FALSE,4,"second",4,-1,"include","social",FALSE,1,TRUE,1186
"Jan 08 2015","23:11:29",26,"Live","Three",4,"Chrome","          ","No-socialFirst",9,"Same",0,"Novel8",0,"Novel8",2,356,"straight-ahead",-1,"(Jan 08 2015 23:11:29)",3,36,"test",TRUE,FALSE,4,"second",4,-1,"exclude","social",TRUE,1,TRUE,946
"Jan 08 2015","23:11:29",27,"Live","Three",4,"Chrome","          ","No-socialFirst",10,"Switch",0,"Novel55",2,"Novel60",0,1221,"straight-ahead",-1,"(Jan 08 2015 23:11:29)",3,36,"test",TRUE,FALSE,4,"second",4,-1,"include","social",FALSE,1,TRUE,603
"Jan 08 2015","23:11:29",28,"Live","Three",4,"Chrome","          ","No-socialFirst",11,"Same",1,"Novel119",0,"Novel119",0,441,"straight-ahead",-1,"(Jan 08 2015 23:11:29)",3,36,"test",TRUE,FALSE,4,"second",4,-1,"include","social",TRUE,1,TRUE,350
"Jan 08 2015","23:11:29",29,"Live","Three",4,"Chrome","          ","No-socialFirst",12,"Switch",1,"Novel11",3,"Novel101",1,2390,"down-right-4sec",2,"(Jan 08 2015 23:11:29)",3,36,"exposure",TRUE,FALSE,4,"second",4,3,"include","social",TRUE,1,TRUE,2390
"Jan 08 2015","23:11:29",30,"Live","Three",4,"Chrome","          ","No-socialFirst",13,"Same",1,"Novel15",2,"Novel15",2,489,"down-left-4sec",0,"(Jan 08 2015 23:11:29)",3,36,"exposure",TRUE,FALSE,4,"second",4,2,"include","social",TRUE,1,TRUE,489
"Jan 08 2015","23:11:29",31,"Live","Three",4,"Chrome","          ","No-socialFirst",14,"Switch",1,"Novel35",2,"Novel13",0,975,"down-left-4sec",0,"(Jan 08 2015 23:11:29)",3,36,"exposure",TRUE,FALSE,4,"second",4,2,"include","social",TRUE,1,TRUE,975
"Jan 08 2015","23:11:29",32,"Live","Three",4,"Chrome","          ","No-socialFirst",15,"Same",0,"Novel109",1,"Novel109",1,439,"up-right-4sec",3,"(Jan 08 2015 23:11:29)",3,36,"exposure",TRUE,FALSE,4,"second",4,1,"include","social",TRUE,1,TRUE,439
"Jan 08 2015","23:11:29",33,"Live","Three",4,"Chrome","          ","No-socialFirst",12,"Switch",1,"Novel78",3,"Novel101",1,1565,"straight-ahead",-1,"(Jan 08 2015 23:11:29)",3,36,"test",TRUE,FALSE,4,"second",4,-1,"include","social",FALSE,1,TRUE,2390
"Jan 08 2015","23:11:29",34,"Live","Three",4,"Chrome","          ","No-socialFirst",13,"Same",1,"Novel15",2,"Novel15",2,280,"straight-ahead",-1,"(Jan 08 2015 23:11:29)",3,36,"test",TRUE,FALSE,4,"second",4,-1,"exclude","social",TRUE,1,TRUE,489
"Jan 08 2015","23:11:29",35,"Live","Three",4,"Chrome","          ","No-socialFirst",14,"Switch",1,"Novel99",1,"Novel13",0,2073,"straight-ahead",-1,"(Jan 08 2015 23:11:29)",3,36,"test",TRUE,FALSE,4,"second",4,-1,"include","social",FALSE,1,TRUE,975
"Jan 08 2015","23:11:29",36,"Live","Three",4,"Chrome","          ","No-socialFirst",15,"Same",0,"Novel109",2,"Novel109",1,1430,"straight-ahead",-1,"(Jan 08 2015 23:11:29)",3,36,"test",TRUE,FALSE,4,"second",4,-1,"include","social",TRUE,1,TRUE,439
"Jan 09 2015","05:51:30",1,"Live","Three",4,"Chrome","Odd study          ","SocialFirst",0,"Switch",0,"squirrel",0,"",0,1253,"up-left-4sec",0,"(Jan 09 2015 05:51:30)",3,36,"example",TRUE,FALSE,4,"first",5,2,"include","social",FALSE,1,TRUE,1206
"Jan 09 2015","05:51:30",2,"Live","Three",4,"Chrome","Odd study          ","SocialFirst",0,"Switch",0,"squirrel",0,"",0,689,"up-left-4sec",0,"(Jan 09 2015 05:51:30)",3,36,"example",TRUE,FALSE,4,"first",5,2,"include","social",FALSE,1,TRUE,1206
"Jan 09 2015","05:51:30",3,"Live","Three",4,"Chrome","Odd study          ","SocialFirst",0,"Switch",0,"tomato",1,"",0,457,"up-right-4sec",0,"(Jan 09 2015 05:51:30)",3,36,"example",TRUE,FALSE,4,"first",5,2,"include","social",FALSE,1,TRUE,1206
"Jan 09 2015","05:51:30",4,"Live","Three",4,"Chrome","Odd study          ","SocialFirst",0,"Switch",0,"tomato",2,"",0,444,"down-left-4sec",0,"(Jan 09 2015 05:51:30)",3,36,"example",TRUE,FALSE,4,"first",5,2,"include","social",TRUE,1,TRUE,1206
"Jan 09 2015","05:51:30",5,"Live","Three",4,"Chrome","Odd study          ","SocialFirst",0,"Switch",0,"Novel25",2,"Novel56",1,1206,"down-left-4sec",0,"(Jan 09 2015 05:51:30)",3,36,"exposure",TRUE,FALSE,4,"first",5,2,"include","social",TRUE,1,TRUE,1206
"Jan 09 2015","05:51:30",6,"Live","Three",4,"Chrome","Odd study          ","SocialFirst",1,"Same",1,"Novel81",3,"Novel81",3,415,"down-right-4sec",2,"(Jan 09 2015 05:51:30)",3,36,"exposure",TRUE,FALSE,4,"first",5,3,"include","social",TRUE,1,TRUE,415
"Jan 09 2015","05:51:30",7,"Live","Three",4,"Chrome","Odd study          ","SocialFirst",2,"Switch",1,"Novel2",0,"Novel43",1,316,"up-left-4sec",1,"(Jan 09 2015 05:51:30)",3,36,"exposure",TRUE,FALSE,4,"first",5,0,"exclude","social",TRUE,1,TRUE,316
"Jan 09 2015","05:51:30",8,"Live","Three",4,"Chrome","Odd study          ","SocialFirst",3,"Same",1,"Novel41",0,"Novel41",0,142,"up-left-4sec",1,"(Jan 09 2015 05:51:30)",3,36,"exposure",TRUE,FALSE,4,"first",5,0,"exclude","social",TRUE,1,TRUE,142
"Jan 09 2015","05:51:30",9,"Live","Three",4,"Chrome","Odd study          ","SocialFirst",0,"Switch",0,"Novel56",2,"Novel56",1,3142,"straight-ahead",-1,"(Jan 09 2015 05:51:30)",3,36,"test",TRUE,TRUE,4,"first",5,-1,"include","social",TRUE,1,TRUE,1206
"Jan 09 2015","05:51:30",10,"Live","Three",4,"Chrome","Odd study          ","SocialFirst",1,"Same",1,"Novel81",3,"Novel81",3,1474,"straight-ahead",-1,"(Jan 09 2015 05:51:30)",3,36,"test",TRUE,FALSE,4,"first",5,-1,"include","social",TRUE,1,TRUE,415
"Jan 09 2015","05:51:30",11,"Live","Three",4,"Chrome","Odd study          ","SocialFirst",2,"Switch",1,"Novel53",0,"Novel43",1,1001,"straight-ahead",-1,"(Jan 09 2015 05:51:30)",3,36,"test",TRUE,FALSE,4,"first",5,-1,"include","social",FALSE,1,TRUE,316
"Jan 09 2015","05:51:30",12,"Live","Three",4,"Chrome","Odd study          ","SocialFirst",3,"Same",1,"Novel41",0,"Novel41",0,434,"straight-ahead",-1,"(Jan 09 2015 05:51:30)",3,36,"test",TRUE,FALSE,4,"first",5,-1,"include","social",TRUE,1,TRUE,142
"Jan 09 2015","05:51:30",13,"Live","Three",4,"Chrome","Odd study          ","SocialFirst",4,"Switch",0,"Novel121",1,"Novel29",0,1062,"up-right-4sec",3,"(Jan 09 2015 05:51:30)",3,36,"exposure",TRUE,FALSE,4,"first",5,1,"include","social",TRUE,1,TRUE,1062
"Jan 09 2015","05:51:30",14,"Live","Three",4,"Chrome","Odd study          ","SocialFirst",5,"Same",0,"Novel116",1,"Novel116",1,616,"up-right-4sec",3,"(Jan 09 2015 05:51:30)",3,36,"exposure",TRUE,FALSE,4,"first",5,1,"include","social",TRUE,1,TRUE,616
"Jan 09 2015","05:51:30",15,"Live","Three",4,"Chrome","Odd study          ","SocialFirst",6,"Switch",1,"Novel137",0,"Novel42",2,582,"up-left-4sec",1,"(Jan 09 2015 05:51:30)",3,36,"exposure",TRUE,FALSE,4,"first",5,0,"include","social",TRUE,1,TRUE,582
"Jan 09 2015","05:51:30",16,"Live","Three",4,"Chrome","Odd study          ","SocialFirst",7,"Same",0,"Novel64",0,"Novel64",0,503,"up-left-4sec",1,"(Jan 09 2015 05:51:30)",3,36,"exposure",TRUE,FALSE,4,"first",5,0,"include","social",TRUE,1,TRUE,503
"Jan 09 2015","05:51:30",17,"Live","Three",4,"Chrome","Odd study          ","SocialFirst",4,"Switch",0,"Novel29",3,"Novel29",0,2230,"straight-ahead",-1,"(Jan 09 2015 05:51:30)",3,36,"test",TRUE,FALSE,4,"first",5,-1,"include","social",TRUE,1,TRUE,1062
"Jan 09 2015","05:51:30",18,"Live","Three",4,"Chrome","Odd study          ","SocialFirst",5,"Same",0,"Novel116",3,"Novel116",1,456,"straight-ahead",-1,"(Jan 09 2015 05:51:30)",3,36,"test",TRUE,FALSE,4,"first",5,-1,"include","social",TRUE,1,TRUE,616
"Jan 09 2015","05:51:30",19,"Live","Three",4,"Chrome","Odd study          ","SocialFirst",6,"Switch",1,"Novel21",0,"Novel42",2,929,"straight-ahead",-1,"(Jan 09 2015 05:51:30)",3,36,"test",TRUE,FALSE,4,"first",5,-1,"include","social",FALSE,1,TRUE,582
"Jan 09 2015","05:51:30",20,"Live","Three",4,"Chrome","Odd study          ","SocialFirst",7,"Same",0,"Novel64",3,"Novel64",0,323,"straight-ahead",-1,"(Jan 09 2015 05:51:30)",3,36,"test",TRUE,FALSE,4,"first",5,-1,"exclude","social",TRUE,1,TRUE,503
"Jan 09 2015","05:51:30",21,"Live","Three",4,"Chrome","Odd study          ","SocialFirst",8,"Switch",0,"Novel80",0,"Novel13",3,2620,"straight-ahead",-1,"(Jan 09 2015 05:51:30)",3,36,"exposure",TRUE,FALSE,4,"second",5,-1,"include","no-social",NA,1,NA,2620
"Jan 09 2015","05:51:30",22,"Live","Three",4,"Chrome","Odd study          ","SocialFirst",9,"Same",1,"Novel110",3,"Novel110",3,2413,"straight-ahead",-1,"(Jan 09 2015 05:51:30)",3,36,"exposure",TRUE,FALSE,4,"second",5,-1,"include","no-social",NA,1,NA,2413
"Jan 09 2015","05:51:30",23,"Live","Three",4,"Chrome","Odd study          ","SocialFirst",10,"Switch",1,"Novel129",3,"Novel122",1,1690,"straight-ahead",-1,"(Jan 09 2015 05:51:30)",3,36,"exposure",TRUE,FALSE,4,"second",5,-1,"include","no-social",NA,1,NA,1690
"Jan 09 2015","05:51:30",24,"Live","Three",4,"Chrome","Odd study          ","SocialFirst",11,"Same",1,"Novel125",3,"Novel125",3,893,"straight-ahead",-1,"(Jan 09 2015 05:51:30)",3,36,"exposure",TRUE,FALSE,4,"second",5,-1,"include","no-social",NA,1,NA,893
"Jan 09 2015","05:51:30",25,"Live","Three",4,"Chrome","Odd study          ","SocialFirst",8,"Switch",0,"Novel85",3,"Novel13",3,1003,"straight-ahead",-1,"(Jan 09 2015 05:51:30)",3,36,"test",TRUE,FALSE,4,"second",5,-1,"include","no-social",FALSE,1,NA,2620
"Jan 09 2015","05:51:30",26,"Live","Three",4,"Chrome","Odd study          ","SocialFirst",9,"Same",1,"Novel110",3,"Novel110",3,772,"straight-ahead",-1,"(Jan 09 2015 05:51:30)",3,36,"test",TRUE,FALSE,4,"second",5,-1,"include","no-social",TRUE,1,NA,2413
"Jan 09 2015","05:51:30",27,"Live","Three",4,"Chrome","Odd study          ","SocialFirst",10,"Switch",1,"Novel122",1,"Novel122",1,2230,"straight-ahead",-1,"(Jan 09 2015 05:51:30)",3,36,"test",TRUE,FALSE,4,"second",5,-1,"include","no-social",TRUE,1,NA,1690
"Jan 09 2015","05:51:30",28,"Live","Three",4,"Chrome","Odd study          ","SocialFirst",11,"Same",1,"Novel125",3,"Novel125",3,1557,"straight-ahead",-1,"(Jan 09 2015 05:51:30)",3,36,"test",TRUE,FALSE,4,"second",5,-1,"include","no-social",TRUE,1,NA,893
"Jan 09 2015","05:51:30",29,"Live","Three",4,"Chrome","Odd study          ","SocialFirst",12,"Switch",0,"Novel92",3,"Novel5",1,287,"straight-ahead",-1,"(Jan 09 2015 05:51:30)",3,36,"exposure",TRUE,FALSE,4,"second",5,-1,"exclude","no-social",NA,1,NA,287
"Jan 09 2015","05:51:30",30,"Live","Three",4,"Chrome","Odd study          ","SocialFirst",13,"Same",0,"Novel28",0,"Novel28",0,243,"straight-ahead",-1,"(Jan 09 2015 05:51:30)",3,36,"exposure",TRUE,FALSE,4,"second",5,-1,"exclude","no-social",NA,1,NA,243
"Jan 09 2015","05:51:30",31,"Live","Three",4,"Chrome","Odd study          ","SocialFirst",14,"Switch",1,"Novel108",1,"Novel73",0,1020,"straight-ahead",-1,"(Jan 09 2015 05:51:30)",3,36,"exposure",TRUE,FALSE,4,"second",5,-1,"include","no-social",NA,1,NA,1020
"Jan 09 2015","05:51:30",32,"Live","Three",4,"Chrome","Odd study          ","SocialFirst",15,"Same",0,"Novel40",1,"Novel40",1,4217,"straight-ahead",-1,"(Jan 09 2015 05:51:30)",3,36,"exposure",TRUE,FALSE,4,"second",5,-1,"include","no-social",NA,1,NA,4217
"Jan 09 2015","05:51:30",33,"Live","Three",4,"Chrome","Odd study          ","SocialFirst",12,"Switch",0,"Novel15",1,"Novel5",1,2247,"straight-ahead",-1,"(Jan 09 2015 05:51:30)",3,36,"test",TRUE,FALSE,4,"second",5,-1,"include","no-social",FALSE,1,NA,287
"Jan 09 2015","05:51:30",34,"Live","Three",4,"Chrome","Odd study          ","SocialFirst",13,"Same",0,"Novel28",1,"Novel28",0,203,"straight-ahead",-1,"(Jan 09 2015 05:51:30)",3,36,"test",TRUE,FALSE,4,"second",5,-1,"exclude","no-social",TRUE,1,NA,243
"Jan 09 2015","05:51:30",35,"Live","Three",4,"Chrome","Odd study          ","SocialFirst",14,"Switch",1,"Novel111",2,"Novel73",0,1143,"straight-ahead",-1,"(Jan 09 2015 05:51:30)",3,36,"test",TRUE,FALSE,4,"second",5,-1,"include","no-social",FALSE,1,NA,1020
"Jan 09 2015","05:51:30",36,"Live","Three",4,"Chrome","Odd study          ","SocialFirst",15,"Same",0,"Novel40",0,"Novel40",1,467,"straight-ahead",-1,"(Jan 09 2015 05:51:30)",3,36,"test",TRUE,FALSE,4,"second",5,-1,"include","no-social",TRUE,1,NA,4217
"Jan 08 2015","20:17:05",1,"Live","Three",4,"Chrome","          Nothing was broken. The survey worked fine.","No-socialFirst",0,"Switch",1,"squirrel",0,"",0,1645,"up-left-4sec",0,"(Jan 08 2015 20:17:05)",3,36,"example",TRUE,FALSE,4,"first",6,2,"include","no-social",FALSE,0.75,NA,8942
"Jan 08 2015","20:17:05",2,"Live","Three",4,"Chrome","          Nothing was broken. The survey worked fine.","No-socialFirst",0,"Switch",1,"squirrel",0,"",0,932,"up-left-4sec",0,"(Jan 08 2015 20:17:05)",3,36,"example",TRUE,FALSE,4,"first",6,2,"include","no-social",FALSE,0.75,NA,8942
"Jan 08 2015","20:17:05",3,"Live","Three",4,"Chrome","          Nothing was broken. The survey worked fine.","No-socialFirst",0,"Switch",1,"tomato",1,"",0,2240,"up-right-4sec",0,"(Jan 08 2015 20:17:05)",3,36,"example",TRUE,FALSE,4,"first",6,2,"include","no-social",FALSE,0.75,NA,8942
"Jan 08 2015","20:17:05",4,"Live","Three",4,"Chrome","          Nothing was broken. The survey worked fine.","No-socialFirst",0,"Switch",1,"tomato",2,"",0,1425,"down-left-4sec",0,"(Jan 08 2015 20:17:05)",3,36,"example",TRUE,FALSE,4,"first",6,2,"include","no-social",TRUE,0.75,NA,8942
"Jan 08 2015","20:17:05",5,"Live","Three",4,"Chrome","          Nothing was broken. The survey worked fine.","No-socialFirst",0,"Switch",1,"Novel20",0,"Novel22",1,8942,"straight-ahead",-1,"(Jan 08 2015 20:17:05)",3,36,"exposure",TRUE,FALSE,4,"first",6,-1,"include","no-social",NA,0.75,NA,8942
"Jan 08 2015","20:17:05",6,"Live","Three",4,"Chrome","          Nothing was broken. The survey worked fine.","No-socialFirst",1,"Same",1,"Novel2",0,"Novel2",0,3935,"straight-ahead",-1,"(Jan 08 2015 20:17:05)",3,36,"exposure",TRUE,FALSE,4,"first",6,-1,"include","no-social",NA,0.75,NA,3935
"Jan 08 2015","20:17:05",7,"Live","Three",4,"Chrome","          Nothing was broken. The survey worked fine.","No-socialFirst",2,"Switch",1,"Novel130",2,"Novel11",3,4179,"straight-ahead",-1,"(Jan 08 2015 20:17:05)",3,36,"exposure",TRUE,FALSE,4,"first",6,-1,"include","no-social",NA,0.75,NA,4179
"Jan 08 2015","20:17:05",8,"Live","Three",4,"Chrome","          Nothing was broken. The survey worked fine.","No-socialFirst",3,"Same",0,"Novel28",0,"Novel28",0,3137,"straight-ahead",-1,"(Jan 08 2015 20:17:05)",3,36,"exposure",TRUE,FALSE,4,"first",6,-1,"include","no-social",NA,0.75,NA,3137
"Jan 08 2015","20:17:05",9,"Live","Three",4,"Chrome","          Nothing was broken. The survey worked fine.","No-socialFirst",0,"Switch",1,"Novel22",1,"Novel22",1,4141,"straight-ahead",-1,"(Jan 08 2015 20:17:05)",3,36,"test",TRUE,TRUE,4,"first",6,-1,"include","no-social",TRUE,0.75,NA,8942
"Jan 08 2015","20:17:05",10,"Live","Three",4,"Chrome","          Nothing was broken. The survey worked fine.","No-socialFirst",1,"Same",1,"Novel2",0,"Novel2",0,1284,"straight-ahead",-1,"(Jan 08 2015 20:17:05)",3,36,"test",TRUE,FALSE,4,"first",6,-1,"include","no-social",TRUE,0.75,NA,3935
"Jan 08 2015","20:17:05",11,"Live","Three",4,"Chrome","          Nothing was broken. The survey worked fine.","No-socialFirst",2,"Switch",1,"Novel11",3,"Novel11",3,1388,"straight-ahead",-1,"(Jan 08 2015 20:17:05)",3,36,"test",TRUE,FALSE,4,"first",6,-1,"include","no-social",TRUE,0.75,NA,4179
"Jan 08 2015","20:17:05",12,"Live","Three",4,"Chrome","          Nothing was broken. The survey worked fine.","No-socialFirst",3,"Same",0,"Novel28",3,"Novel28",0,713,"straight-ahead",-1,"(Jan 08 2015 20:17:05)",3,36,"test",TRUE,FALSE,4,"first",6,-1,"include","no-social",TRUE,0.75,NA,3137
"Jan 08 2015","20:17:05",13,"Live","Three",4,"Chrome","          Nothing was broken. The survey worked fine.","No-socialFirst",4,"Switch",0,"Novel56",0,"Novel125",3,3251,"straight-ahead",-1,"(Jan 08 2015 20:17:05)",3,36,"exposure",TRUE,FALSE,4,"first",6,-1,"include","no-social",NA,0.75,NA,3251
"Jan 08 2015","20:17:05",14,"Live","Three",4,"Chrome","          Nothing was broken. The survey worked fine.","No-socialFirst",5,"Same",1,"Novel138",3,"Novel138",3,3453,"straight-ahead",-1,"(Jan 08 2015 20:17:05)",3,36,"exposure",TRUE,FALSE,4,"first",6,-1,"include","no-social",NA,0.75,NA,3453
"Jan 08 2015","20:17:05",15,"Live","Three",4,"Chrome","          Nothing was broken. The survey worked fine.","No-socialFirst",6,"Switch",0,"Novel118",0,"Novel62",3,3730,"straight-ahead",-1,"(Jan 08 2015 20:17:05)",3,36,"exposure",TRUE,FALSE,4,"first",6,-1,"include","no-social",NA,0.75,NA,3730
"Jan 08 2015","20:17:05",16,"Live","Three",4,"Chrome","          Nothing was broken. The survey worked fine.","No-socialFirst",7,"Same",0,"Novel120",2,"Novel120",2,2755,"straight-ahead",-1,"(Jan 08 2015 20:17:05)",3,36,"exposure",TRUE,FALSE,4,"first",6,-1,"include","no-social",NA,0.75,NA,2755
"Jan 08 2015","20:17:05",17,"Live","Three",4,"Chrome","          Nothing was broken. The survey worked fine.","No-socialFirst",4,"Switch",0,"Novel125",2,"Novel125",3,961,"straight-ahead",-1,"(Jan 08 2015 20:17:05)",3,36,"test",TRUE,FALSE,4,"first",6,-1,"include","no-social",TRUE,0.75,NA,3251
"Jan 08 2015","20:17:05",18,"Live","Three",4,"Chrome","          Nothing was broken. The survey worked fine.","No-socialFirst",5,"Same",1,"Novel138",3,"Novel138",3,1391,"straight-ahead",-1,"(Jan 08 2015 20:17:05)",3,36,"test",TRUE,FALSE,4,"first",6,-1,"include","no-social",TRUE,0.75,NA,3453
"Jan 08 2015","20:17:05",19,"Live","Three",4,"Chrome","          Nothing was broken. The survey worked fine.","No-socialFirst",6,"Switch",0,"Novel62",0,"Novel62",3,373,"straight-ahead",-1,"(Jan 08 2015 20:17:05)",3,36,"test",TRUE,FALSE,4,"first",6,-1,"exclude","no-social",TRUE,0.75,NA,3730
"Jan 08 2015","20:17:05",20,"Live","Three",4,"Chrome","          Nothing was broken. The survey worked fine.","No-socialFirst",7,"Same",0,"Novel120",3,"Novel120",2,615,"straight-ahead",-1,"(Jan 08 2015 20:17:05)",3,36,"test",TRUE,FALSE,4,"first",6,-1,"include","no-social",TRUE,0.75,NA,2755
"Jan 08 2015","20:17:05",21,"Live","Three",4,"Chrome","          Nothing was broken. The survey worked fine.","No-socialFirst",8,"Switch",1,"Novel107",0,"Novel131",2,2272,"up-left-4sec",1,"(Jan 08 2015 20:17:05)",3,36,"exposure",TRUE,FALSE,4,"second",6,0,"include","social",TRUE,0.75,TRUE,2272
"Jan 08 2015","20:17:05",22,"Live","Three",4,"Chrome","          Nothing was broken. The survey worked fine.","No-socialFirst",9,"Same",1,"Novel126",3,"Novel126",3,1665,"down-right-4sec",2,"(Jan 08 2015 20:17:05)",3,36,"exposure",TRUE,FALSE,4,"second",6,3,"include","social",TRUE,0.75,TRUE,1665
"Jan 08 2015","20:17:05",23,"Live","Three",4,"Chrome","          Nothing was broken. The survey worked fine.","No-socialFirst",10,"Switch",1,"Novel112",0,"Novel87",3,1819,"up-left-4sec",1,"(Jan 08 2015 20:17:05)",3,36,"exposure",TRUE,FALSE,4,"second",6,0,"include","social",TRUE,0.75,TRUE,1819
"Jan 08 2015","20:17:05",24,"Live","Three",4,"Chrome","          Nothing was broken. The survey worked fine.","No-socialFirst",11,"Same",0,"Novel77",1,"Novel77",1,1286,"up-right-4sec",3,"(Jan 08 2015 20:17:05)",3,36,"exposure",TRUE,FALSE,4,"second",6,1,"include","social",TRUE,0.75,TRUE,1286
"Jan 08 2015","20:17:05",25,"Live","Three",4,"Chrome","          Nothing was broken. The survey worked fine.","No-socialFirst",8,"Switch",1,"Novel131",2,"Novel131",2,697,"straight-ahead",-1,"(Jan 08 2015 20:17:05)",3,36,"test",TRUE,FALSE,4,"second",6,-1,"include","social",TRUE,0.75,TRUE,2272
"Jan 08 2015","20:17:05",26,"Live","Three",4,"Chrome","          Nothing was broken. The survey worked fine.","No-socialFirst",9,"Same",1,"Novel126",3,"Novel126",3,4144,"straight-ahead",-1,"(Jan 08 2015 20:17:05)",3,36,"test",TRUE,FALSE,4,"second",6,-1,"include","social",TRUE,0.75,TRUE,1665
"Jan 08 2015","20:17:05",27,"Live","Three",4,"Chrome","          Nothing was broken. The survey worked fine.","No-socialFirst",10,"Switch",1,"Novel103",1,"Novel87",3,722,"straight-ahead",-1,"(Jan 08 2015 20:17:05)",3,36,"test",TRUE,FALSE,4,"second",6,-1,"include","social",FALSE,0.75,TRUE,1819
"Jan 08 2015","20:17:05",28,"Live","Three",4,"Chrome","          Nothing was broken. The survey worked fine.","No-socialFirst",11,"Same",0,"Novel77",3,"Novel77",1,289,"straight-ahead",-1,"(Jan 08 2015 20:17:05)",3,36,"test",TRUE,FALSE,4,"second",6,-1,"exclude","social",TRUE,0.75,TRUE,1286
"Jan 08 2015","20:17:05",29,"Live","Three",4,"Chrome","          Nothing was broken. The survey worked fine.","No-socialFirst",12,"Switch",0,"Novel70",3,"Novel6",2,2879,"down-left-4sec",0,"(Jan 08 2015 20:17:05)",3,36,"exposure",TRUE,FALSE,4,"second",6,2,"include","social",FALSE,0.75,FALSE,2879
"Jan 08 2015","20:17:05",30,"Live","Three",4,"Chrome","          Nothing was broken. The survey worked fine.","No-socialFirst",13,"Same",1,"Novel86",0,"Novel86",0,2192,"up-left-4sec",1,"(Jan 08 2015 20:17:05)",3,36,"exposure",TRUE,FALSE,4,"second",6,0,"include","social",TRUE,0.75,TRUE,2192
"Jan 08 2015","20:17:05",31,"Live","Three",4,"Chrome","          Nothing was broken. The survey worked fine.","No-socialFirst",14,"Switch",0,"Novel127",3,"Novel73",2,3983,"up-right-4sec",3,"(Jan 08 2015 20:17:05)",3,36,"exposure",TRUE,FALSE,4,"second",6,1,"include","social",FALSE,0.75,FALSE,3983
"Jan 08 2015","20:17:05",32,"Live","Three",4,"Chrome","          Nothing was broken. The survey worked fine.","No-socialFirst",15,"Same",0,"Novel55",3,"Novel55",3,2229,"down-right-4sec",2,"(Jan 08 2015 20:17:05)",3,36,"exposure",TRUE,FALSE,4,"second",6,3,"include","social",TRUE,0.75,TRUE,2229
"Jan 08 2015","20:17:05",33,"Live","Three",4,"Chrome","          Nothing was broken. The survey worked fine.","No-socialFirst",12,"Switch",0,"Novel6",0,"Novel6",2,475,"straight-ahead",-1,"(Jan 08 2015 20:17:05)",3,36,"test",TRUE,FALSE,4,"second",6,-1,"include","social",TRUE,0.75,FALSE,2879
"Jan 08 2015","20:17:05",34,"Live","Three",4,"Chrome","          Nothing was broken. The survey worked fine.","No-socialFirst",13,"Same",1,"Novel86",0,"Novel86",0,208,"straight-ahead",-1,"(Jan 08 2015 20:17:05)",3,36,"test",TRUE,FALSE,4,"second",6,-1,"exclude","social",TRUE,0.75,TRUE,2192
"Jan 08 2015","20:17:05",35,"Live","Three",4,"Chrome","          Nothing was broken. The survey worked fine.","No-socialFirst",14,"Switch",0,"Novel73",3,"Novel73",2,251,"straight-ahead",-1,"(Jan 08 2015 20:17:05)",3,36,"test",TRUE,FALSE,4,"second",6,-1,"exclude","social",TRUE,0.75,FALSE,3983
"Jan 08 2015","20:17:05",36,"Live","Three",4,"Chrome","          Nothing was broken. The survey worked fine.","No-socialFirst",15,"Same",0,"Novel55",2,"Novel55",3,221,"straight-ahead",-1,"(Jan 08 2015 20:17:05)",3,36,"test",TRUE,FALSE,4,"second",6,-1,"exclude","social",TRUE,0.75,TRUE,2229
"Jan 08 2015","17:17:46",1,"Live","Three",4,"Chrome","          ","SocialFirst",0,"Switch",1,"squirrel",0,"",0,1370,"up-left-4sec",0,"(Jan 08 2015 17:17:46)",3,36,"example",TRUE,FALSE,4,"first",7,2,"include","social",FALSE,1,TRUE,1457
"Jan 08 2015","17:17:46",2,"Live","Three",4,"Chrome","          ","SocialFirst",0,"Switch",1,"squirrel",0,"",0,1090,"up-left-4sec",0,"(Jan 08 2015 17:17:46)",3,36,"example",TRUE,FALSE,4,"first",7,2,"include","social",FALSE,1,TRUE,1457
"Jan 08 2015","17:17:46",3,"Live","Three",4,"Chrome","          ","SocialFirst",0,"Switch",1,"tomato",1,"",0,1250,"up-right-4sec",0,"(Jan 08 2015 17:17:46)",3,36,"example",TRUE,FALSE,4,"first",7,2,"include","social",FALSE,1,TRUE,1457
"Jan 08 2015","17:17:46",4,"Live","Three",4,"Chrome","          ","SocialFirst",0,"Switch",1,"tomato",2,"",0,1045,"down-left-4sec",0,"(Jan 08 2015 17:17:46)",3,36,"example",TRUE,FALSE,4,"first",7,2,"include","social",TRUE,1,TRUE,1457
"Jan 08 2015","17:17:46",5,"Live","Three",4,"Chrome","          ","SocialFirst",0,"Switch",1,"Novel63",3,"Novel85",2,1457,"down-right-4sec",2,"(Jan 08 2015 17:17:46)",3,36,"exposure",TRUE,FALSE,4,"first",7,3,"include","social",TRUE,1,TRUE,1457
"Jan 08 2015","17:17:46",6,"Live","Three",4,"Chrome","          ","SocialFirst",1,"Same",1,"Novel40",0,"Novel40",0,1653,"up-left-4sec",1,"(Jan 08 2015 17:17:46)",3,36,"exposure",TRUE,FALSE,4,"first",7,0,"include","social",TRUE,1,TRUE,1653
"Jan 08 2015","17:17:46",7,"Live","Three",4,"Chrome","          ","SocialFirst",2,"Switch",0,"Novel23",2,"Novel75",1,1287,"down-left-4sec",0,"(Jan 08 2015 17:17:46)",3,36,"exposure",TRUE,FALSE,4,"first",7,2,"include","social",TRUE,1,TRUE,1287
"Jan 08 2015","17:17:46",8,"Live","Three",4,"Chrome","          ","SocialFirst",3,"Same",1,"Novel81",3,"Novel81",3,1515,"down-right-4sec",2,"(Jan 08 2015 17:17:46)",3,36,"exposure",TRUE,FALSE,4,"first",7,3,"include","social",TRUE,1,TRUE,1515
"Jan 08 2015","17:17:46",9,"Live","Three",4,"Chrome","          ","SocialFirst",0,"Switch",1,"Novel106",0,"Novel85",2,3802,"straight-ahead",-1,"(Jan 08 2015 17:17:46)",3,36,"test",TRUE,TRUE,4,"first",7,-1,"include","social",FALSE,1,TRUE,1457
"Jan 08 2015","17:17:46",10,"Live","Three",4,"Chrome","          ","SocialFirst",1,"Same",1,"Novel40",0,"Novel40",0,1870,"straight-ahead",-1,"(Jan 08 2015 17:17:46)",3,36,"test",TRUE,FALSE,4,"first",7,-1,"include","social",TRUE,1,TRUE,1653
"Jan 08 2015","17:17:46",11,"Live","Three",4,"Chrome","          ","SocialFirst",2,"Switch",0,"Novel117",1,"Novel75",1,4033,"straight-ahead",-1,"(Jan 08 2015 17:17:46)",3,36,"test",TRUE,FALSE,4,"first",7,-1,"include","social",FALSE,1,TRUE,1287
"Jan 08 2015","17:17:46",12,"Live","Three",4,"Chrome","          ","SocialFirst",3,"Same",1,"Novel81",3,"Novel81",3,2032,"straight-ahead",-1,"(Jan 08 2015 17:17:46)",3,36,"test",TRUE,FALSE,4,"first",7,-1,"include","social",TRUE,1,TRUE,1515
"Jan 08 2015","17:17:46",13,"Live","Three",4,"Chrome","          ","SocialFirst",4,"Switch",1,"Novel55",2,"Novel15",0,1428,"down-left-4sec",0,"(Jan 08 2015 17:17:46)",3,36,"exposure",TRUE,FALSE,4,"first",7,2,"include","social",TRUE,1,TRUE,1428
"Jan 08 2015","17:17:46",14,"Live","Three",4,"Chrome","          ","SocialFirst",5,"Same",0,"Novel17",0,"Novel17",0,2375,"up-left-4sec",1,"(Jan 08 2015 17:17:46)",3,36,"exposure",TRUE,FALSE,4,"first",7,0,"include","social",TRUE,1,TRUE,2375
"Jan 08 2015","17:17:46",15,"Live","Three",4,"Chrome","          ","SocialFirst",6,"Switch",0,"Novel43",2,"Novel32",3,1465,"down-left-4sec",0,"(Jan 08 2015 17:17:46)",3,36,"exposure",TRUE,FALSE,4,"first",7,2,"include","social",TRUE,1,TRUE,1465
"Jan 08 2015","17:17:46",16,"Live","Three",4,"Chrome","          ","SocialFirst",7,"Same",0,"Novel65",1,"Novel65",1,1033,"up-right-4sec",3,"(Jan 08 2015 17:17:46)",3,36,"exposure",TRUE,FALSE,4,"first",7,1,"include","social",TRUE,1,TRUE,1033
"Jan 08 2015","17:17:46",17,"Live","Three",4,"Chrome","          ","SocialFirst",4,"Switch",1,"Novel89",3,"Novel15",0,4187,"straight-ahead",-1,"(Jan 08 2015 17:17:46)",3,36,"test",TRUE,FALSE,4,"first",7,-1,"include","social",FALSE,1,TRUE,1428
"Jan 08 2015","17:17:46",18,"Live","Three",4,"Chrome","          ","SocialFirst",5,"Same",0,"Novel17",1,"Novel17",0,1675,"straight-ahead",-1,"(Jan 08 2015 17:17:46)",3,36,"test",TRUE,FALSE,4,"first",7,-1,"include","social",TRUE,1,TRUE,2375
"Jan 08 2015","17:17:46",19,"Live","Three",4,"Chrome","          ","SocialFirst",6,"Switch",0,"Novel128",1,"Novel32",3,3188,"straight-ahead",-1,"(Jan 08 2015 17:17:46)",3,36,"test",TRUE,FALSE,4,"first",7,-1,"include","social",FALSE,1,TRUE,1465
"Jan 08 2015","17:17:46",20,"Live","Three",4,"Chrome","          ","SocialFirst",7,"Same",0,"Novel65",2,"Novel65",1,1420,"straight-ahead",-1,"(Jan 08 2015 17:17:46)",3,36,"test",TRUE,FALSE,4,"first",7,-1,"include","social",TRUE,1,TRUE,1033
"Jan 08 2015","17:17:46",21,"Live","Three",4,"Chrome","          ","SocialFirst",8,"Switch",1,"Novel94",0,"Novel127",3,2445,"straight-ahead",-1,"(Jan 08 2015 17:17:46)",3,36,"exposure",TRUE,FALSE,4,"second",7,-1,"include","no-social",NA,1,NA,2445
"Jan 08 2015","17:17:46",22,"Live","Three",4,"Chrome","          ","SocialFirst",9,"Same",1,"Novel118",1,"Novel118",1,2590,"straight-ahead",-1,"(Jan 08 2015 17:17:46)",3,36,"exposure",TRUE,FALSE,4,"second",7,-1,"include","no-social",NA,1,NA,2590
"Jan 08 2015","17:17:46",23,"Live","Three",4,"Chrome","          ","SocialFirst",10,"Switch",0,"Novel64",0,"Novel57",3,4235,"straight-ahead",-1,"(Jan 08 2015 17:17:46)",3,36,"exposure",TRUE,FALSE,4,"second",7,-1,"include","no-social",NA,1,NA,4235
"Jan 08 2015","17:17:46",24,"Live","Three",4,"Chrome","          ","SocialFirst",11,"Same",1,"Novel22",2,"Novel22",2,2380,"straight-ahead",-1,"(Jan 08 2015 17:17:46)",3,36,"exposure",TRUE,FALSE,4,"second",7,-1,"include","no-social",NA,1,NA,2380
"Jan 08 2015","17:17:46",25,"Live","Three",4,"Chrome","          ","SocialFirst",8,"Switch",1,"Novel121",1,"Novel127",3,3163,"straight-ahead",-1,"(Jan 08 2015 17:17:46)",3,36,"test",TRUE,FALSE,4,"second",7,-1,"include","no-social",FALSE,1,NA,2445
"Jan 08 2015","17:17:46",26,"Live","Three",4,"Chrome","          ","SocialFirst",9,"Same",1,"Novel136",2,"Novel118",1,2668,"straight-ahead",-1,"(Jan 08 2015 17:17:46)",3,36,"test",TRUE,FALSE,4,"second",7,-1,"include","no-social",FALSE,1,NA,2590
"Jan 08 2015","17:17:46",27,"Live","Three",4,"Chrome","          ","SocialFirst",10,"Switch",0,"Novel115",0,"Novel57",3,3015,"straight-ahead",-1,"(Jan 08 2015 17:17:46)",3,36,"test",TRUE,FALSE,4,"second",7,-1,"include","no-social",FALSE,1,NA,4235
"Jan 08 2015","17:17:46",28,"Live","Three",4,"Chrome","          ","SocialFirst",11,"Same",1,"Novel22",2,"Novel22",2,1903,"straight-ahead",-1,"(Jan 08 2015 17:17:46)",3,36,"test",TRUE,FALSE,4,"second",7,-1,"include","no-social",TRUE,1,NA,2380
"Jan 08 2015","17:17:46",29,"Live","Three",4,"Chrome","          ","SocialFirst",12,"Switch",1,"Novel62",0,"Novel80",1,3808,"straight-ahead",-1,"(Jan 08 2015 17:17:46)",3,36,"exposure",TRUE,FALSE,4,"second",7,-1,"include","no-social",NA,1,NA,3808
"Jan 08 2015","17:17:46",30,"Live","Three",4,"Chrome","          ","SocialFirst",13,"Same",0,"Novel97",3,"Novel97",3,2795,"straight-ahead",-1,"(Jan 08 2015 17:17:46)",3,36,"exposure",TRUE,FALSE,4,"second",7,-1,"include","no-social",NA,1,NA,2795
"Jan 08 2015","17:17:46",31,"Live","Three",4,"Chrome","          ","SocialFirst",14,"Switch",0,"Novel36",1,"Novel50",2,1427,"straight-ahead",-1,"(Jan 08 2015 17:17:46)",3,36,"exposure",TRUE,FALSE,4,"second",7,-1,"include","no-social",NA,1,NA,1427
"Jan 08 2015","17:17:46",32,"Live","Three",4,"Chrome","          ","SocialFirst",15,"Same",0,"Novel134",2,"Novel134",2,3130,"straight-ahead",-1,"(Jan 08 2015 17:17:46)",3,36,"exposure",TRUE,FALSE,4,"second",7,-1,"include","no-social",NA,1,NA,3130
"Jan 08 2015","17:17:46",33,"Live","Three",4,"Chrome","          ","SocialFirst",12,"Switch",1,"Novel80",1,"Novel80",1,3448,"straight-ahead",-1,"(Jan 08 2015 17:17:46)",3,36,"test",TRUE,FALSE,4,"second",7,-1,"include","no-social",TRUE,1,NA,3808
"Jan 08 2015","17:17:46",34,"Live","Three",4,"Chrome","          ","SocialFirst",13,"Same",0,"Novel137",3,"Novel97",3,2643,"straight-ahead",-1,"(Jan 08 2015 17:17:46)",3,36,"test",TRUE,FALSE,4,"second",7,-1,"include","no-social",FALSE,1,NA,2795
"Jan 08 2015","17:17:46",35,"Live","Three",4,"Chrome","          ","SocialFirst",14,"Switch",0,"Novel111",0,"Novel50",2,2920,"straight-ahead",-1,"(Jan 08 2015 17:17:46)",3,36,"test",TRUE,FALSE,4,"second",7,-1,"include","no-social",FALSE,1,NA,1427
"Jan 08 2015","17:17:46",36,"Live","Three",4,"Chrome","          ","SocialFirst",15,"Same",0,"Novel134",1,"Novel134",2,1890,"straight-ahead",-1,"(Jan 08 2015 17:17:46)",3,36,"test",TRUE,FALSE,4,"second",7,-1,"include","no-social",TRUE,1,NA,3130
"Jan 08 2015","21:36:23",1,"Live","Three",4,"Chrome","Very difficult. Nothing was broken.          ","SocialFirst",0,"Same",1,"squirrel",0,"",0,7114,"up-left-4sec",0,"(Jan 08 2015 21:36:23)",3,36,"example",TRUE,FALSE,4,"first",8,2,"include","social",FALSE,1,TRUE,4152
"Jan 08 2015","21:36:23",2,"Live","Three",4,"Chrome","Very difficult. Nothing was broken.          ","SocialFirst",0,"Same",1,"squirrel",0,"",0,1102,"up-left-4sec",0,"(Jan 08 2015 21:36:23)",3,36,"example",TRUE,FALSE,4,"first",8,2,"include","social",FALSE,1,TRUE,4152
"Jan 08 2015","21:36:23",3,"Live","Three",4,"Chrome","Very difficult. Nothing was broken.          ","SocialFirst",0,"Same",1,"tomato",1,"",0,1295,"up-right-4sec",0,"(Jan 08 2015 21:36:23)",3,36,"example",TRUE,FALSE,4,"first",8,2,"include","social",FALSE,1,TRUE,4152
"Jan 08 2015","21:36:23",4,"Live","Three",4,"Chrome","Very difficult. Nothing was broken.          ","SocialFirst",0,"Same",1,"tomato",2,"",0,1162,"down-left-4sec",0,"(Jan 08 2015 21:36:23)",3,36,"example",TRUE,FALSE,4,"first",8,2,"include","social",TRUE,1,TRUE,4152
"Jan 08 2015","21:36:23",5,"Live","Three",4,"Chrome","Very difficult. Nothing was broken.          ","SocialFirst",0,"Same",1,"Novel69",3,"Novel69",3,4152,"down-right-4sec",2,"(Jan 08 2015 21:36:23)",3,36,"exposure",TRUE,FALSE,4,"first",8,3,"include","social",TRUE,1,TRUE,4152
"Jan 08 2015","21:36:23",6,"Live","Three",4,"Chrome","Very difficult. Nothing was broken.          ","SocialFirst",1,"Switch",0,"Novel18",2,"Novel136",1,2636,"down-left-4sec",0,"(Jan 08 2015 21:36:23)",3,36,"exposure",TRUE,FALSE,4,"first",8,2,"include","social",TRUE,1,TRUE,2636
"Jan 08 2015","21:36:23",7,"Live","Three",4,"Chrome","Very difficult. Nothing was broken.          ","SocialFirst",2,"Same",1,"Novel46",2,"Novel46",2,2186,"down-left-4sec",0,"(Jan 08 2015 21:36:23)",3,36,"exposure",TRUE,FALSE,4,"first",8,2,"include","social",TRUE,1,TRUE,2186
"Jan 08 2015","21:36:23",8,"Live","Three",4,"Chrome","Very difficult. Nothing was broken.          ","SocialFirst",3,"Switch",0,"Novel17",2,"Novel13",3,1479,"down-left-4sec",0,"(Jan 08 2015 21:36:23)",3,36,"exposure",TRUE,FALSE,4,"first",8,2,"include","social",TRUE,1,TRUE,1479
"Jan 08 2015","21:36:23",9,"Live","Three",4,"Chrome","Very difficult. Nothing was broken.          ","SocialFirst",0,"Same",1,"Novel69",3,"Novel69",3,7872,"straight-ahead",-1,"(Jan 08 2015 21:36:23)",3,36,"test",TRUE,TRUE,4,"first",8,-1,"include","social",TRUE,1,TRUE,4152
"Jan 08 2015","21:36:23",10,"Live","Three",4,"Chrome","Very difficult. Nothing was broken.          ","SocialFirst",1,"Switch",0,"Novel100",0,"Novel136",1,7118,"straight-ahead",-1,"(Jan 08 2015 21:36:23)",3,36,"test",TRUE,FALSE,4,"first",8,-1,"include","social",FALSE,1,TRUE,2636
"Jan 08 2015","21:36:23",11,"Live","Three",4,"Chrome","Very difficult. Nothing was broken.          ","SocialFirst",2,"Same",1,"Novel46",2,"Novel46",2,2556,"straight-ahead",-1,"(Jan 08 2015 21:36:23)",3,36,"test",TRUE,FALSE,4,"first",8,-1,"include","social",TRUE,1,TRUE,2186
"Jan 08 2015","21:36:23",12,"Live","Three",4,"Chrome","Very difficult. Nothing was broken.          ","SocialFirst",3,"Switch",0,"Novel75",2,"Novel13",3,6275,"straight-ahead",-1,"(Jan 08 2015 21:36:23)",3,36,"test",TRUE,FALSE,4,"first",8,-1,"include","social",FALSE,1,TRUE,1479
"Jan 08 2015","21:36:23",13,"Live","Three",4,"Chrome","Very difficult. Nothing was broken.          ","SocialFirst",4,"Same",0,"Novel77",1,"Novel77",1,2958,"up-right-4sec",3,"(Jan 08 2015 21:36:23)",3,36,"exposure",TRUE,FALSE,4,"first",8,1,"include","social",TRUE,1,TRUE,2958
"Jan 08 2015","21:36:23",14,"Live","Three",4,"Chrome","Very difficult. Nothing was broken.          ","SocialFirst",5,"Switch",1,"Novel117",3,"Novel92",2,5606,"down-right-4sec",2,"(Jan 08 2015 21:36:23)",3,36,"exposure",TRUE,FALSE,4,"first",8,3,"include","social",TRUE,1,TRUE,5606
"Jan 08 2015","21:36:23",15,"Live","Three",4,"Chrome","Very difficult. Nothing was broken.          ","SocialFirst",6,"Same",0,"Novel63",2,"Novel63",2,3583,"down-left-4sec",0,"(Jan 08 2015 21:36:23)",3,36,"exposure",TRUE,FALSE,4,"first",8,2,"include","social",TRUE,1,TRUE,3583
"Jan 08 2015","21:36:23",16,"Live","Three",4,"Chrome","Very difficult. Nothing was broken.          ","SocialFirst",7,"Switch",1,"Novel106",0,"Novel81",3,3255,"up-left-4sec",1,"(Jan 08 2015 21:36:23)",3,36,"exposure",TRUE,FALSE,4,"first",8,0,"include","social",TRUE,1,TRUE,3255
"Jan 08 2015","21:36:23",17,"Live","Three",4,"Chrome","Very difficult. Nothing was broken.          ","SocialFirst",4,"Same",0,"Novel77",2,"Novel77",1,6285,"straight-ahead",-1,"(Jan 08 2015 21:36:23)",3,36,"test",TRUE,FALSE,4,"first",8,-1,"include","social",TRUE,1,TRUE,2958
"Jan 08 2015","21:36:23",18,"Live","Three",4,"Chrome","Very difficult. Nothing was broken.          ","SocialFirst",5,"Switch",1,"Novel132",0,"Novel92",2,5571,"straight-ahead",-1,"(Jan 08 2015 21:36:23)",3,36,"test",TRUE,FALSE,4,"first",8,-1,"include","social",FALSE,1,TRUE,5606
"Jan 08 2015","21:36:23",19,"Live","Three",4,"Chrome","Very difficult. Nothing was broken.          ","SocialFirst",6,"Same",0,"Novel63",3,"Novel63",2,2207,"straight-ahead",-1,"(Jan 08 2015 21:36:23)",3,36,"test",TRUE,FALSE,4,"first",8,-1,"include","social",TRUE,1,TRUE,3583
"Jan 08 2015","21:36:23",20,"Live","Three",4,"Chrome","Very difficult. Nothing was broken.          ","SocialFirst",7,"Switch",1,"Novel138",2,"Novel81",3,3927,"straight-ahead",-1,"(Jan 08 2015 21:36:23)",3,36,"test",TRUE,FALSE,4,"first",8,-1,"include","social",FALSE,1,TRUE,3255
"Jan 08 2015","21:36:23",21,"Live","Three",4,"Chrome","Very difficult. Nothing was broken.          ","SocialFirst",8,"Same",1,"Novel24",1,"Novel24",1,7885,"straight-ahead",-1,"(Jan 08 2015 21:36:23)",3,36,"exposure",TRUE,FALSE,4,"second",8,-1,"include","no-social",NA,1,NA,7885
"Jan 08 2015","21:36:23",22,"Live","Three",4,"Chrome","Very difficult. Nothing was broken.          ","SocialFirst",9,"Switch",0,"Novel126",3,"Novel101",0,4232,"straight-ahead",-1,"(Jan 08 2015 21:36:23)",3,36,"exposure",TRUE,FALSE,4,"second",8,-1,"include","no-social",NA,1,NA,4232
"Jan 08 2015","21:36:23",23,"Live","Three",4,"Chrome","Very difficult. Nothing was broken.          ","SocialFirst",10,"Same",1,"Novel109",2,"Novel109",2,6462,"straight-ahead",-1,"(Jan 08 2015 21:36:23)",3,36,"exposure",TRUE,FALSE,4,"second",8,-1,"include","no-social",NA,1,NA,6462
"Jan 08 2015","21:36:23",24,"Live","Three",4,"Chrome","Very difficult. Nothing was broken.          ","SocialFirst",11,"Switch",0,"Novel76",2,"Novel86",1,4918,"straight-ahead",-1,"(Jan 08 2015 21:36:23)",3,36,"exposure",TRUE,FALSE,4,"second",8,-1,"include","no-social",NA,1,NA,4918
"Jan 08 2015","21:36:23",25,"Live","Three",4,"Chrome","Very difficult. Nothing was broken.          ","SocialFirst",8,"Same",1,"Novel71",0,"Novel24",1,7647,"straight-ahead",-1,"(Jan 08 2015 21:36:23)",3,36,"test",TRUE,FALSE,4,"second",8,-1,"include","no-social",FALSE,1,NA,7885
"Jan 08 2015","21:36:23",26,"Live","Three",4,"Chrome","Very difficult. Nothing was broken.          ","SocialFirst",9,"Switch",0,"Novel9",1,"Novel101",0,5257,"straight-ahead",-1,"(Jan 08 2015 21:36:23)",3,36,"test",TRUE,FALSE,4,"second",8,-1,"include","no-social",FALSE,1,NA,4232
"Jan 08 2015","21:36:23",27,"Live","Three",4,"Chrome","Very difficult. Nothing was broken.          ","SocialFirst",10,"Same",1,"Novel109",2,"Novel109",2,3678,"straight-ahead",-1,"(Jan 08 2015 21:36:23)",3,36,"test",TRUE,FALSE,4,"second",8,-1,"include","no-social",TRUE,1,NA,6462
"Jan 08 2015","21:36:23",28,"Live","Three",4,"Chrome","Very difficult. Nothing was broken.          ","SocialFirst",11,"Switch",0,"Novel86",0,"Novel86",1,4752,"straight-ahead",-1,"(Jan 08 2015 21:36:23)",3,36,"test",TRUE,FALSE,4,"second",8,-1,"include","no-social",TRUE,1,NA,4918
"Jan 08 2015","21:36:23",29,"Live","Three",4,"Chrome","Very difficult. Nothing was broken.          ","SocialFirst",12,"Same",0,"Novel107",1,"Novel107",1,5541,"straight-ahead",-1,"(Jan 08 2015 21:36:23)",3,36,"exposure",TRUE,FALSE,4,"second",8,-1,"include","no-social",NA,1,NA,5541
"Jan 08 2015","21:36:23",30,"Live","Three",4,"Chrome","Very difficult. Nothing was broken.          ","SocialFirst",13,"Switch",1,"Novel131",3,"Novel104",2,9173,"straight-ahead",-1,"(Jan 08 2015 21:36:23)",3,36,"exposure",TRUE,FALSE,4,"second",8,-1,"include","no-social",NA,1,NA,9173
"Jan 08 2015","21:36:23",31,"Live","Three",4,"Chrome","Very difficult. Nothing was broken.          ","SocialFirst",14,"Same",0,"Novel116",2,"Novel116",2,4631,"straight-ahead",-1,"(Jan 08 2015 21:36:23)",3,36,"exposure",TRUE,FALSE,4,"second",8,-1,"include","no-social",NA,1,NA,4631
"Jan 08 2015","21:36:23",32,"Live","Three",4,"Chrome","Very difficult. Nothing was broken.          ","SocialFirst",15,"Switch",1,"Novel89",2,"Novel43",3,4762,"straight-ahead",-1,"(Jan 08 2015 21:36:23)",3,36,"exposure",TRUE,FALSE,4,"second",8,-1,"include","no-social",NA,1,NA,4762
"Jan 08 2015","21:36:23",33,"Live","Three",4,"Chrome","Very difficult. Nothing was broken.          ","SocialFirst",12,"Same",0,"Novel52",2,"Novel107",1,6062,"straight-ahead",-1,"(Jan 08 2015 21:36:23)",3,36,"test",TRUE,FALSE,4,"second",8,-1,"include","no-social",FALSE,1,NA,5541
"Jan 08 2015","21:36:23",34,"Live","Three",4,"Chrome","Very difficult. Nothing was broken.          ","SocialFirst",13,"Switch",1,"Novel51",1,"Novel104",2,3226,"straight-ahead",-1,"(Jan 08 2015 21:36:23)",3,36,"test",TRUE,FALSE,4,"second",8,-1,"include","no-social",FALSE,1,NA,9173
"Jan 08 2015","21:36:23",35,"Live","Three",4,"Chrome","Very difficult. Nothing was broken.          ","SocialFirst",14,"Same",0,"Novel57",1,"Novel116",2,5442,"straight-ahead",-1,"(Jan 08 2015 21:36:23)",3,36,"test",TRUE,FALSE,4,"second",8,-1,"include","no-social",FALSE,1,NA,4631
"Jan 08 2015","21:36:23",36,"Live","Three",4,"Chrome","Very difficult. Nothing was broken.          ","SocialFirst",15,"Switch",1,"Novel98",1,"Novel43",3,6958,"straight-ahead",-1,"(Jan 08 2015 21:36:23)",3,36,"test",TRUE,FALSE,4,"second",8,-1,"include","no-social",FALSE,1,NA,4762
"Jan 08 2015","16:20:06",1,"Live","Three",4,"Mozilla","          Its hard concidering I only speak English.","SocialFirst",0,"Switch",0,"squirrel",0,"",0,899,"up-left-4sec",0,"(Jan 08 2015 16:20:06)",3,36,"example",TRUE,FALSE,4,"first",9,2,"include","social",FALSE,0.5,TRUE,882
"Jan 08 2015","16:20:06",2,"Live","Three",4,"Mozilla","          Its hard concidering I only speak English.","SocialFirst",0,"Switch",0,"squirrel",0,"",0,464,"up-left-4sec",0,"(Jan 08 2015 16:20:06)",3,36,"example",TRUE,FALSE,4,"first",9,2,"include","social",FALSE,0.5,TRUE,882
"Jan 08 2015","16:20:06",3,"Live","Three",4,"Mozilla","          Its hard concidering I only speak English.","SocialFirst",0,"Switch",0,"tomato",1,"",0,1086,"up-right-4sec",0,"(Jan 08 2015 16:20:06)",3,36,"example",TRUE,FALSE,4,"first",9,2,"include","social",FALSE,0.5,TRUE,882
"Jan 08 2015","16:20:06",4,"Live","Three",4,"Mozilla","          Its hard concidering I only speak English.","SocialFirst",0,"Switch",0,"tomato",2,"",0,417,"down-left-4sec",0,"(Jan 08 2015 16:20:06)",3,36,"example",TRUE,FALSE,4,"first",9,2,"include","social",TRUE,0.5,TRUE,882
"Jan 08 2015","16:20:06",5,"Live","Three",4,"Mozilla","          Its hard concidering I only speak English.","SocialFirst",0,"Switch",0,"Novel73",2,"Novel135",3,882,"down-left-4sec",0,"(Jan 08 2015 16:20:06)",3,36,"exposure",TRUE,FALSE,4,"first",9,2,"include","social",TRUE,0.5,TRUE,882
"Jan 08 2015","16:20:06",6,"Live","Three",4,"Mozilla","          Its hard concidering I only speak English.","SocialFirst",1,"Same",0,"Novel91",1,"Novel91",1,459,"down-left-4sec",0,"(Jan 08 2015 16:20:06)",3,36,"exposure",TRUE,FALSE,4,"first",9,2,"include","social",FALSE,0.5,FALSE,459
"Jan 08 2015","16:20:06",7,"Live","Three",4,"Mozilla","          Its hard concidering I only speak English.","SocialFirst",2,"Switch",0,"Novel30",0,"Novel2",1,426,"down-left-4sec",0,"(Jan 08 2015 16:20:06)",3,36,"exposure",TRUE,FALSE,4,"first",9,2,"include","social",FALSE,0.5,FALSE,426
"Jan 08 2015","16:20:06",8,"Live","Three",4,"Mozilla","          Its hard concidering I only speak English.","SocialFirst",3,"Same",1,"Novel34",3,"Novel34",3,1507,"down-left-4sec",0,"(Jan 08 2015 16:20:06)",3,36,"exposure",TRUE,FALSE,4,"first",9,2,"include","social",FALSE,0.5,FALSE,1507
"Jan 08 2015","16:20:06",9,"Live","Three",4,"Mozilla","          Its hard concidering I only speak English.","SocialFirst",0,"Switch",0,"Novel110",3,"Novel135",3,309,"straight-ahead",-1,"(Jan 08 2015 16:20:06)",3,36,"test",TRUE,TRUE,4,"first",9,-1,"exclude","social",FALSE,0.5,TRUE,882
"Jan 08 2015","16:20:06",10,"Live","Three",4,"Mozilla","          Its hard concidering I only speak English.","SocialFirst",1,"Same",0,"Novel1",0,"Novel91",1,31539,"straight-ahead",-1,"(Jan 08 2015 16:20:06)",3,36,"test",TRUE,FALSE,4,"first",9,-1,"exclude","social",FALSE,0.5,FALSE,459
"Jan 08 2015","16:20:06",11,"Live","Three",4,"Mozilla","          Its hard concidering I only speak English.","SocialFirst",2,"Switch",0,"Novel119",1,"Novel2",1,250,"straight-ahead",-1,"(Jan 08 2015 16:20:06)",3,36,"test",TRUE,FALSE,4,"first",9,-1,"exclude","social",FALSE,0.5,FALSE,426
"Jan 08 2015","16:20:06",12,"Live","Three",4,"Mozilla","          Its hard concidering I only speak English.","SocialFirst",3,"Same",1,"Novel34",3,"Novel34",3,2076,"straight-ahead",-1,"(Jan 08 2015 16:20:06)",3,36,"test",TRUE,FALSE,4,"first",9,-1,"include","social",TRUE,0.5,FALSE,1507
"Jan 08 2015","16:20:06",13,"Live","Three",4,"Mozilla","          Its hard concidering I only speak English.","SocialFirst",4,"Switch",1,"Novel69",3,"Novel124",0,2770,"down-right-4sec",2,"(Jan 08 2015 16:20:06)",3,36,"exposure",TRUE,FALSE,4,"first",9,3,"include","social",TRUE,0.5,TRUE,2770
"Jan 08 2015","16:20:06",14,"Live","Three",4,"Mozilla","          Its hard concidering I only speak English.","SocialFirst",5,"Same",0,"Novel8",1,"Novel8",1,993,"up-right-4sec",3,"(Jan 08 2015 16:20:06)",3,36,"exposure",TRUE,FALSE,4,"first",9,1,"include","social",TRUE,0.5,TRUE,993
"Jan 08 2015","16:20:06",15,"Live","Three",4,"Mozilla","          Its hard concidering I only speak English.","SocialFirst",6,"Switch",1,"Novel94",2,"Novel52",0,329,"down-left-4sec",0,"(Jan 08 2015 16:20:06)",3,36,"exposure",TRUE,FALSE,4,"first",9,2,"exclude","social",TRUE,0.5,TRUE,329
"Jan 08 2015","16:20:06",16,"Live","Three",4,"Mozilla","          Its hard concidering I only speak English.","SocialFirst",7,"Same",1,"Novel109",0,"Novel109",0,587,"up-right-4sec",3,"(Jan 08 2015 16:20:06)",3,36,"exposure",TRUE,FALSE,4,"first",9,1,"include","social",FALSE,0.5,FALSE,587
"Jan 08 2015","16:20:06",17,"Live","Three",4,"Mozilla","          Its hard concidering I only speak English.","SocialFirst",4,"Switch",1,"Novel79",1,"Novel124",0,1820,"straight-ahead",-1,"(Jan 08 2015 16:20:06)",3,36,"test",TRUE,FALSE,4,"first",9,-1,"include","social",FALSE,0.5,TRUE,2770
"Jan 08 2015","16:20:06",18,"Live","Three",4,"Mozilla","          Its hard concidering I only speak English.","SocialFirst",5,"Same",0,"Novel61",2,"Novel8",1,896,"straight-ahead",-1,"(Jan 08 2015 16:20:06)",3,36,"test",TRUE,FALSE,4,"first",9,-1,"include","social",FALSE,0.5,TRUE,993
"Jan 08 2015","16:20:06",19,"Live","Three",4,"Mozilla","          Its hard concidering I only speak English.","SocialFirst",6,"Switch",1,"Novel113",1,"Novel52",0,1258,"straight-ahead",-1,"(Jan 08 2015 16:20:06)",3,36,"test",TRUE,FALSE,4,"first",9,-1,"include","social",FALSE,0.5,TRUE,329
"Jan 08 2015","16:20:06",20,"Live","Three",4,"Mozilla","          Its hard concidering I only speak English.","SocialFirst",7,"Same",1,"Novel106",2,"Novel109",0,238,"straight-ahead",-1,"(Jan 08 2015 16:20:06)",3,36,"test",TRUE,FALSE,4,"first",9,-1,"exclude","social",FALSE,0.5,FALSE,587
"Jan 08 2015","16:20:06",21,"Live","Three",4,"Mozilla","          Its hard concidering I only speak English.","SocialFirst",8,"Switch",0,"Novel70",1,"Novel96",0,1645,"straight-ahead",-1,"(Jan 08 2015 16:20:06)",3,36,"exposure",TRUE,FALSE,4,"second",9,-1,"include","no-social",NA,0.5,NA,1645
"Jan 08 2015","16:20:06",22,"Live","Three",4,"Mozilla","          Its hard concidering I only speak English.","SocialFirst",9,"Same",0,"Novel53",0,"Novel53",0,353,"straight-ahead",-1,"(Jan 08 2015 16:20:06)",3,36,"exposure",TRUE,FALSE,4,"second",9,-1,"exclude","no-social",NA,0.5,NA,353
"Jan 08 2015","16:20:06",23,"Live","Three",4,"Mozilla","          Its hard concidering I only speak English.","SocialFirst",10,"Switch",0,"Novel72",1,"Novel81",2,230,"straight-ahead",-1,"(Jan 08 2015 16:20:06)",3,36,"exposure",TRUE,FALSE,4,"second",9,-1,"exclude","no-social",NA,0.5,NA,230
"Jan 08 2015","16:20:06",24,"Live","Three",4,"Mozilla","          Its hard concidering I only speak English.","SocialFirst",11,"Same",1,"Novel42",3,"Novel42",3,1279,"straight-ahead",-1,"(Jan 08 2015 16:20:06)",3,36,"exposure",TRUE,FALSE,4,"second",9,-1,"include","no-social",NA,0.5,NA,1279
"Jan 08 2015","16:20:06",25,"Live","Three",4,"Mozilla","          Its hard concidering I only speak English.","SocialFirst",8,"Switch",0,"Novel80",1,"Novel96",0,519,"straight-ahead",-1,"(Jan 08 2015 16:20:06)",3,36,"test",TRUE,FALSE,4,"second",9,-1,"include","no-social",FALSE,0.5,NA,1645
"Jan 08 2015","16:20:06",26,"Live","Three",4,"Mozilla","          Its hard concidering I only speak English.","SocialFirst",9,"Same",0,"Novel6",2,"Novel53",0,1989,"straight-ahead",-1,"(Jan 08 2015 16:20:06)",3,36,"test",TRUE,FALSE,4,"second",9,-1,"include","no-social",FALSE,0.5,NA,353
"Jan 08 2015","16:20:06",27,"Live","Three",4,"Mozilla","          Its hard concidering I only speak English.","SocialFirst",10,"Switch",0,"Novel68",3,"Novel81",2,383,"straight-ahead",-1,"(Jan 08 2015 16:20:06)",3,36,"test",TRUE,FALSE,4,"second",9,-1,"exclude","no-social",FALSE,0.5,NA,230
"Jan 08 2015","16:20:06",28,"Live","Three",4,"Mozilla","          Its hard concidering I only speak English.","SocialFirst",11,"Same",1,"Novel112",1,"Novel42",3,965,"straight-ahead",-1,"(Jan 08 2015 16:20:06)",3,36,"test",TRUE,FALSE,4,"second",9,-1,"include","no-social",FALSE,0.5,NA,1279
"Jan 08 2015","16:20:06",29,"Live","Three",4,"Mozilla","          Its hard concidering I only speak English.","SocialFirst",12,"Switch",1,"Novel126",2,"Novel55",0,1882,"straight-ahead",-1,"(Jan 08 2015 16:20:06)",3,36,"exposure",TRUE,FALSE,4,"second",9,-1,"include","no-social",NA,0.5,NA,1882
"Jan 08 2015","16:20:06",30,"Live","Three",4,"Mozilla","          Its hard concidering I only speak English.","SocialFirst",13,"Same",0,"Novel22",0,"Novel22",0,1494,"straight-ahead",-1,"(Jan 08 2015 16:20:06)",3,36,"exposure",TRUE,FALSE,4,"second",9,-1,"include","no-social",NA,0.5,NA,1494
"Jan 08 2015","16:20:06",31,"Live","Three",4,"Mozilla","          Its hard concidering I only speak English.","SocialFirst",14,"Switch",1,"Novel131",0,"Novel28",3,311,"straight-ahead",-1,"(Jan 08 2015 16:20:06)",3,36,"exposure",TRUE,FALSE,4,"second",9,-1,"exclude","no-social",NA,0.5,NA,311
"Jan 08 2015","16:20:06",32,"Live","Three",4,"Mozilla","          Its hard concidering I only speak English.","SocialFirst",15,"Same",1,"Novel127",0,"Novel127",0,301,"straight-ahead",-1,"(Jan 08 2015 16:20:06)",3,36,"exposure",TRUE,FALSE,4,"second",9,-1,"exclude","no-social",NA,0.5,NA,301
"Jan 08 2015","16:20:06",33,"Live","Three",4,"Mozilla","          Its hard concidering I only speak English.","SocialFirst",12,"Switch",1,"Novel130",3,"Novel55",0,160,"straight-ahead",-1,"(Jan 08 2015 16:20:06)",3,36,"test",TRUE,FALSE,4,"second",9,-1,"exclude","no-social",FALSE,0.5,NA,1882
"Jan 08 2015","16:20:06",34,"Live","Three",4,"Mozilla","          Its hard concidering I only speak English.","SocialFirst",13,"Same",0,"Novel65",1,"Novel22",0,549,"straight-ahead",-1,"(Jan 08 2015 16:20:06)",3,36,"test",TRUE,FALSE,4,"second",9,-1,"include","no-social",FALSE,0.5,NA,1494
"Jan 08 2015","16:20:06",35,"Live","Three",4,"Mozilla","          Its hard concidering I only speak English.","SocialFirst",14,"Switch",1,"Novel122",2,"Novel28",3,90,"straight-ahead",-1,"(Jan 08 2015 16:20:06)",3,36,"test",TRUE,FALSE,4,"second",9,-1,"exclude","no-social",FALSE,0.5,NA,311
"Jan 08 2015","16:20:06",36,"Live","Three",4,"Mozilla","          Its hard concidering I only speak English.","SocialFirst",15,"Same",1,"Novel127",0,"Novel127",0,398,"straight-ahead",-1,"(Jan 08 2015 16:20:06)",3,36,"test",TRUE,FALSE,4,"second",9,-1,"exclude","no-social",TRUE,0.5,NA,301
"Jan 08 2015","22:01:58",1,"Live","Three",4,"Firefox","No.          ","No-socialFirst",0,"Switch",1,"squirrel",0,"",0,7925,"up-left-4sec",0,"(Jan 08 2015 22:01:58)",3,36,"example",TRUE,FALSE,4,"first",10,2,"include","no-social",FALSE,0.375,NA,765
"Jan 08 2015","22:01:58",2,"Live","Three",4,"Firefox","No.          ","No-socialFirst",0,"Switch",1,"squirrel",0,"",0,830,"up-left-4sec",0,"(Jan 08 2015 22:01:58)",3,36,"example",TRUE,FALSE,4,"first",10,2,"include","no-social",FALSE,0.375,NA,765
"Jan 08 2015","22:01:58",3,"Live","Three",4,"Firefox","No.          ","No-socialFirst",0,"Switch",1,"tomato",1,"",0,833,"up-right-4sec",0,"(Jan 08 2015 22:01:58)",3,36,"example",TRUE,FALSE,4,"first",10,2,"include","no-social",FALSE,0.375,NA,765
"Jan 08 2015","22:01:58",4,"Live","Three",4,"Firefox","No.          ","No-socialFirst",0,"Switch",1,"tomato",2,"",0,2528,"down-left-4sec",0,"(Jan 08 2015 22:01:58)",3,36,"example",TRUE,FALSE,4,"first",10,2,"include","no-social",TRUE,0.375,NA,765
"Jan 08 2015","22:01:58",5,"Live","Three",4,"Firefox","No.          ","No-socialFirst",0,"Switch",1,"Novel102",0,"Novel138",1,765,"straight-ahead",-1,"(Jan 08 2015 22:01:58)",3,36,"exposure",TRUE,FALSE,4,"first",10,-1,"include","no-social",NA,0.375,NA,765
"Jan 08 2015","22:01:58",6,"Live","Three",4,"Firefox","No.          ","No-socialFirst",1,"Same",1,"Novel137",3,"Novel137",3,95,"straight-ahead",-1,"(Jan 08 2015 22:01:58)",3,36,"exposure",TRUE,FALSE,4,"first",10,-1,"exclude","no-social",NA,0.375,NA,95
"Jan 08 2015","22:01:58",7,"Live","Three",4,"Firefox","No.          ","No-socialFirst",2,"Switch",1,"Novel13",1,"Novel19",2,63,"straight-ahead",-1,"(Jan 08 2015 22:01:58)",3,36,"exposure",TRUE,FALSE,4,"first",10,-1,"exclude","no-social",NA,0.375,NA,63
"Jan 08 2015","22:01:58",8,"Live","Three",4,"Firefox","No.          ","No-socialFirst",3,"Same",0,"Novel27",0,"Novel27",0,3289,"straight-ahead",-1,"(Jan 08 2015 22:01:58)",3,36,"exposure",TRUE,FALSE,4,"first",10,-1,"include","no-social",NA,0.375,NA,3289
"Jan 08 2015","22:01:58",9,"Live","Three",4,"Firefox","No.          ","No-socialFirst",0,"Switch",1,"Novel43",2,"Novel138",1,240,"straight-ahead",-1,"(Jan 08 2015 22:01:58)",3,36,"test",TRUE,TRUE,4,"first",10,-1,"exclude","no-social",FALSE,0.375,NA,765
"Jan 08 2015","22:01:58",10,"Live","Three",4,"Firefox","No.          ","No-socialFirst",1,"Same",1,"Novel109",1,"Novel137",3,2457,"straight-ahead",-1,"(Jan 08 2015 22:01:58)",3,36,"test",TRUE,FALSE,4,"first",10,-1,"include","no-social",FALSE,0.375,NA,95
"Jan 08 2015","22:01:58",11,"Live","Three",4,"Firefox","No.          ","No-socialFirst",2,"Switch",1,"Novel15",3,"Novel19",2,11401,"straight-ahead",-1,"(Jan 08 2015 22:01:58)",3,36,"test",TRUE,FALSE,4,"first",10,-1,"exclude","no-social",FALSE,0.375,NA,63
"Jan 08 2015","22:01:58",12,"Live","Three",4,"Firefox","No.          ","No-socialFirst",3,"Same",0,"Novel27",2,"Novel27",0,704,"straight-ahead",-1,"(Jan 08 2015 22:01:58)",3,36,"test",TRUE,FALSE,4,"first",10,-1,"include","no-social",TRUE,0.375,NA,3289
"Jan 08 2015","22:01:58",13,"Live","Three",4,"Firefox","No.          ","No-socialFirst",4,"Switch",0,"Novel14",0,"Novel3",1,182,"straight-ahead",-1,"(Jan 08 2015 22:01:58)",3,36,"exposure",TRUE,FALSE,4,"first",10,-1,"exclude","no-social",NA,0.375,NA,182
"Jan 08 2015","22:01:58",14,"Live","Three",4,"Firefox","No.          ","No-socialFirst",5,"Same",1,"Novel115",1,"Novel115",1,16,"straight-ahead",-1,"(Jan 08 2015 22:01:58)",3,36,"exposure",TRUE,FALSE,4,"first",10,-1,"exclude","no-social",NA,0.375,NA,16
"Jan 08 2015","22:01:58",15,"Live","Three",4,"Firefox","No.          ","No-socialFirst",6,"Switch",0,"Novel124",3,"Novel73",2,349,"straight-ahead",-1,"(Jan 08 2015 22:01:58)",3,36,"exposure",TRUE,FALSE,4,"first",10,-1,"exclude","no-social",NA,0.375,NA,349
"Jan 08 2015","22:01:58",16,"Live","Three",4,"Firefox","No.          ","No-socialFirst",7,"Same",0,"Novel10",1,"Novel10",1,8558,"straight-ahead",-1,"(Jan 08 2015 22:01:58)",3,36,"exposure",TRUE,FALSE,4,"first",10,-1,"include","no-social",NA,0.375,NA,8558
"Jan 08 2015","22:01:58",17,"Live","Three",4,"Firefox","No.          ","No-socialFirst",4,"Switch",0,"Novel106",2,"Novel3",1,3194,"straight-ahead",-1,"(Jan 08 2015 22:01:58)",3,36,"test",TRUE,FALSE,4,"first",10,-1,"include","no-social",FALSE,0.375,NA,182
"Jan 08 2015","22:01:58",18,"Live","Three",4,"Firefox","No.          ","No-socialFirst",5,"Same",1,"Novel103",0,"Novel115",1,25102,"straight-ahead",-1,"(Jan 08 2015 22:01:58)",3,36,"test",TRUE,FALSE,4,"first",10,-1,"exclude","no-social",FALSE,0.375,NA,16
"Jan 08 2015","22:01:58",19,"Live","Three",4,"Firefox","No.          ","No-socialFirst",6,"Switch",0,"Novel12",2,"Novel73",2,6633,"straight-ahead",-1,"(Jan 08 2015 22:01:58)",3,36,"test",TRUE,FALSE,4,"first",10,-1,"include","no-social",FALSE,0.375,NA,349
"Jan 08 2015","22:01:58",20,"Live","Three",4,"Firefox","No.          ","No-socialFirst",7,"Same",0,"Novel127",2,"Novel10",1,4918,"straight-ahead",-1,"(Jan 08 2015 22:01:58)",3,36,"test",TRUE,FALSE,4,"first",10,-1,"include","no-social",FALSE,0.375,NA,8558
"Jan 08 2015","22:01:58",21,"Live","Three",4,"Firefox","No.          ","No-socialFirst",8,"Switch",1,"Novel80",1,"Novel82",2,81841,"down-right-4sec",2,"(Jan 08 2015 22:01:58)",3,36,"exposure",TRUE,FALSE,4,"second",10,3,"exclude","social",FALSE,0.375,FALSE,81841
"Jan 08 2015","22:01:58",22,"Live","Three",4,"Firefox","No.          ","No-socialFirst",9,"Same",1,"Novel81",2,"Novel81",2,1196,"up-left-4sec",1,"(Jan 08 2015 22:01:58)",3,36,"exposure",TRUE,FALSE,4,"second",10,0,"include","social",FALSE,0.375,FALSE,1196
"Jan 08 2015","22:01:58",23,"Live","Three",4,"Firefox","No.          ","No-socialFirst",10,"Switch",1,"Novel121",0,"Novel60",1,492,"up-left-4sec",1,"(Jan 08 2015 22:01:58)",3,36,"exposure",TRUE,FALSE,4,"second",10,0,"include","social",TRUE,0.375,TRUE,492
"Jan 08 2015","22:01:58",24,"Live","Three",4,"Firefox","No.          ","No-socialFirst",11,"Same",0,"Novel117",3,"Novel117",3,349,"down-right-4sec",2,"(Jan 08 2015 22:01:58)",3,36,"exposure",TRUE,FALSE,4,"second",10,3,"exclude","social",TRUE,0.375,TRUE,349
"Jan 08 2015","22:01:58",25,"Live","Three",4,"Firefox","No.          ","No-socialFirst",8,"Switch",1,"Novel82",2,"Novel82",2,996,"straight-ahead",-1,"(Jan 08 2015 22:01:58)",3,36,"test",TRUE,FALSE,4,"second",10,-1,"include","social",TRUE,0.375,FALSE,81841
"Jan 08 2015","22:01:58",26,"Live","Three",4,"Firefox","No.          ","No-socialFirst",9,"Same",1,"Novel81",2,"Novel81",2,1053,"straight-ahead",-1,"(Jan 08 2015 22:01:58)",3,36,"test",TRUE,FALSE,4,"second",10,-1,"include","social",TRUE,0.375,FALSE,1196
"Jan 08 2015","22:01:58",27,"Live","Three",4,"Firefox","No.          ","No-socialFirst",10,"Switch",1,"Novel60",1,"Novel60",1,78,"straight-ahead",-1,"(Jan 08 2015 22:01:58)",3,36,"test",TRUE,FALSE,4,"second",10,-1,"exclude","social",TRUE,0.375,TRUE,492
"Jan 08 2015","22:01:58",28,"Live","Three",4,"Firefox","No.          ","No-socialFirst",11,"Same",0,"Novel101",2,"Novel117",3,5567,"straight-ahead",-1,"(Jan 08 2015 22:01:58)",3,36,"test",TRUE,FALSE,4,"second",10,-1,"include","social",FALSE,0.375,TRUE,349
"Jan 08 2015","22:01:58",29,"Live","Three",4,"Firefox","No.          ","No-socialFirst",12,"Switch",0,"Novel25",1,"Novel45",0,146,"up-right-4sec",3,"(Jan 08 2015 22:01:58)",3,36,"exposure",TRUE,FALSE,4,"second",10,1,"exclude","social",TRUE,0.375,TRUE,146
"Jan 08 2015","22:01:58",30,"Live","Three",4,"Firefox","No.          ","No-socialFirst",13,"Same",1,"Novel107",3,"Novel107",3,90,"down-left-4sec",0,"(Jan 08 2015 22:01:58)",3,36,"exposure",TRUE,FALSE,4,"second",10,2,"exclude","social",FALSE,0.375,FALSE,90
"Jan 08 2015","22:01:58",31,"Live","Three",4,"Firefox","No.          ","No-socialFirst",14,"Switch",0,"Novel30",0,"Novel7",2,266,"up-right-4sec",3,"(Jan 08 2015 22:01:58)",3,36,"exposure",TRUE,FALSE,4,"second",10,1,"exclude","social",FALSE,0.375,FALSE,266
"Jan 08 2015","22:01:58",32,"Live","Three",4,"Firefox","No.          ","No-socialFirst",15,"Same",0,"Novel5",2,"Novel5",2,84,"up-left-4sec",1,"(Jan 08 2015 22:01:58)",3,36,"exposure",TRUE,FALSE,4,"second",10,0,"exclude","social",FALSE,0.375,FALSE,84
"Jan 08 2015","22:01:58",33,"Live","Three",4,"Firefox","No.          ","No-socialFirst",12,"Switch",0,"Novel118",1,"Novel45",0,325,"straight-ahead",-1,"(Jan 08 2015 22:01:58)",3,36,"test",TRUE,FALSE,4,"second",10,-1,"exclude","social",FALSE,0.375,TRUE,146
"Jan 08 2015","22:01:58",34,"Live","Three",4,"Firefox","No.          ","No-socialFirst",13,"Same",1,"Novel107",3,"Novel107",3,1734,"straight-ahead",-1,"(Jan 08 2015 22:01:58)",3,36,"test",TRUE,FALSE,4,"second",10,-1,"include","social",TRUE,0.375,FALSE,90
"Jan 08 2015","22:01:58",35,"Live","Three",4,"Firefox","No.          ","No-socialFirst",14,"Switch",0,"Novel122",1,"Novel7",2,62577,"straight-ahead",-1,"(Jan 08 2015 22:01:58)",3,36,"test",TRUE,FALSE,4,"second",10,-1,"exclude","social",FALSE,0.375,FALSE,266
"Jan 08 2015","22:01:58",36,"Live","Three",4,"Firefox","No.          ","No-socialFirst",15,"Same",0,"Novel93",2,"Novel5",2,977,"straight-ahead",-1,"(Jan 08 2015 22:01:58)",3,36,"test",TRUE,FALSE,4,"second",10,-1,"include","social",FALSE,0.375,FALSE,84
"Jan 08 2015","21:22:35",1,"Live","Three",4,"Chrome","          ","No-socialFirst",0,"Switch",1,"squirrel",0,"",0,4762,"up-left-4sec",0,"(Jan 08 2015 21:22:35)",3,36,"example",TRUE,FALSE,4,"first",11,2,"include","no-social",FALSE,0,NA,4218
"Jan 08 2015","21:22:35",2,"Live","Three",4,"Chrome","          ","No-socialFirst",0,"Switch",1,"squirrel",0,"",0,1169,"up-left-4sec",0,"(Jan 08 2015 21:22:35)",3,36,"example",TRUE,FALSE,4,"first",11,2,"include","no-social",FALSE,0,NA,4218
"Jan 08 2015","21:22:35",3,"Live","Three",4,"Chrome","          ","No-socialFirst",0,"Switch",1,"tomato",1,"",0,988,"up-right-4sec",0,"(Jan 08 2015 21:22:35)",3,36,"example",TRUE,FALSE,4,"first",11,2,"include","no-social",FALSE,0,NA,4218
"Jan 08 2015","21:22:35",4,"Live","Three",4,"Chrome","          ","No-socialFirst",0,"Switch",1,"tomato",2,"",0,572,"down-left-4sec",0,"(Jan 08 2015 21:22:35)",3,36,"example",TRUE,FALSE,4,"first",11,2,"include","no-social",TRUE,0,NA,4218
"Jan 08 2015","21:22:35",5,"Live","Three",4,"Chrome","          ","No-socialFirst",0,"Switch",1,"Novel120",1,"Novel63",0,4218,"straight-ahead",-1,"(Jan 08 2015 21:22:35)",3,36,"exposure",TRUE,FALSE,4,"first",11,-1,"include","no-social",NA,0,NA,4218
"Jan 08 2015","21:22:35",6,"Live","Three",4,"Chrome","          ","No-socialFirst",1,"Same",0,"Novel131",3,"Novel131",3,4276,"straight-ahead",-1,"(Jan 08 2015 21:22:35)",3,36,"exposure",TRUE,FALSE,4,"first",11,-1,"include","no-social",NA,0,NA,4276
"Jan 08 2015","21:22:35",7,"Live","Three",4,"Chrome","          ","No-socialFirst",2,"Switch",0,"Novel18",0,"Novel102",2,5100,"straight-ahead",-1,"(Jan 08 2015 21:22:35)",3,36,"exposure",TRUE,FALSE,4,"first",11,-1,"include","no-social",NA,0,NA,5100
"Jan 08 2015","21:22:35",8,"Live","Three",4,"Chrome","          ","No-socialFirst",3,"Same",0,"Novel24",2,"Novel24",2,4278,"straight-ahead",-1,"(Jan 08 2015 21:22:35)",3,36,"exposure",TRUE,FALSE,4,"first",11,-1,"include","no-social",NA,0,NA,4278
"Jan 08 2015","21:22:35",9,"Live","Three",4,"Chrome","          ","No-socialFirst",0,"Switch",1,"Novel63",0,"Novel63",0,3165,"straight-ahead",-1,"(Jan 08 2015 21:22:35)",3,36,"test",TRUE,TRUE,4,"first",11,-1,"include","no-social",TRUE,0,NA,4218
"Jan 08 2015","21:22:35",10,"Live","Three",4,"Chrome","          ","No-socialFirst",1,"Same",0,"Novel131",1,"Novel131",3,2455,"straight-ahead",-1,"(Jan 08 2015 21:22:35)",3,36,"test",TRUE,FALSE,4,"first",11,-1,"include","no-social",TRUE,0,NA,4276
"Jan 08 2015","21:22:35",11,"Live","Three",4,"Chrome","          ","No-socialFirst",2,"Switch",0,"Novel102",3,"Novel102",2,2045,"straight-ahead",-1,"(Jan 08 2015 21:22:35)",3,36,"test",TRUE,FALSE,4,"first",11,-1,"include","no-social",TRUE,0,NA,5100
"Jan 08 2015","21:22:35",12,"Live","Three",4,"Chrome","          ","No-socialFirst",3,"Same",0,"Novel24",0,"Novel24",2,4220,"straight-ahead",-1,"(Jan 08 2015 21:22:35)",3,36,"test",TRUE,FALSE,4,"first",11,-1,"include","no-social",TRUE,0,NA,4278
"Jan 08 2015","21:22:35",13,"Live","Three",4,"Chrome","          ","No-socialFirst",4,"Switch",0,"Novel2",1,"Novel39",0,1263,"straight-ahead",-1,"(Jan 08 2015 21:22:35)",3,36,"exposure",TRUE,FALSE,4,"first",11,-1,"include","no-social",NA,0,NA,1263
"Jan 08 2015","21:22:35",14,"Live","Three",4,"Chrome","          ","No-socialFirst",5,"Same",1,"Novel42",2,"Novel42",2,3226,"straight-ahead",-1,"(Jan 08 2015 21:22:35)",3,36,"exposure",TRUE,FALSE,4,"first",11,-1,"include","no-social",NA,0,NA,3226
"Jan 08 2015","21:22:35",15,"Live","Three",4,"Chrome","          ","No-socialFirst",6,"Switch",1,"Novel88",2,"Novel129",1,4582,"straight-ahead",-1,"(Jan 08 2015 21:22:35)",3,36,"exposure",TRUE,FALSE,4,"first",11,-1,"include","no-social",NA,0,NA,4582
"Jan 08 2015","21:22:35",16,"Live","Three",4,"Chrome","          ","No-socialFirst",7,"Same",1,"Novel34",0,"Novel34",0,1730,"straight-ahead",-1,"(Jan 08 2015 21:22:35)",3,36,"exposure",TRUE,FALSE,4,"first",11,-1,"include","no-social",NA,0,NA,1730
"Jan 08 2015","21:22:35",17,"Live","Three",4,"Chrome","          ","No-socialFirst",4,"Switch",0,"Novel103",1,"Novel39",0,2055,"straight-ahead",-1,"(Jan 08 2015 21:22:35)",3,36,"test",TRUE,FALSE,4,"first",11,-1,"include","no-social",FALSE,0,NA,1263
"Jan 08 2015","21:22:35",18,"Live","Three",4,"Chrome","          ","No-socialFirst",5,"Same",1,"Novel42",2,"Novel42",2,660,"straight-ahead",-1,"(Jan 08 2015 21:22:35)",3,36,"test",TRUE,FALSE,4,"first",11,-1,"include","no-social",TRUE,0,NA,3226
"Jan 08 2015","21:22:35",19,"Live","Three",4,"Chrome","          ","No-socialFirst",6,"Switch",1,"Novel129",1,"Novel129",1,2835,"straight-ahead",-1,"(Jan 08 2015 21:22:35)",3,36,"test",TRUE,FALSE,4,"first",11,-1,"include","no-social",TRUE,0,NA,4582
"Jan 08 2015","21:22:35",20,"Live","Three",4,"Chrome","          ","No-socialFirst",7,"Same",1,"Novel34",0,"Novel34",0,1886,"straight-ahead",-1,"(Jan 08 2015 21:22:35)",3,36,"test",TRUE,FALSE,4,"first",11,-1,"include","no-social",TRUE,0,NA,1730
"Jan 08 2015","21:22:35",21,"Live","Three",4,"Chrome","          ","No-socialFirst",8,"Switch",1,"Novel11",0,"Novel59",1,4624,"up-right-4sec",3,"(Jan 08 2015 21:22:35)",3,36,"exposure",TRUE,FALSE,4,"second",11,1,"include","social",FALSE,0,FALSE,4624
"Jan 08 2015","21:22:35",22,"Live","Three",4,"Chrome","          ","No-socialFirst",9,"Same",0,"Novel6",3,"Novel6",3,1553,"up-left-4sec",1,"(Jan 08 2015 21:22:35)",3,36,"exposure",TRUE,FALSE,4,"second",11,0,"include","social",FALSE,0,FALSE,1553
"Jan 08 2015","21:22:35",23,"Live","Three",4,"Chrome","          ","No-socialFirst",10,"Switch",0,"Novel31",0,"Novel134",3,4690,"down-left-4sec",0,"(Jan 08 2015 21:22:35)",3,36,"exposure",TRUE,FALSE,4,"second",11,2,"include","social",FALSE,0,FALSE,4690
"Jan 08 2015","21:22:35",24,"Live","Three",4,"Chrome","          ","No-socialFirst",11,"Same",0,"Novel93",3,"Novel93",3,1520,"down-left-4sec",0,"(Jan 08 2015 21:22:35)",3,36,"exposure",TRUE,FALSE,4,"second",11,2,"include","social",FALSE,0,FALSE,1520
"Jan 08 2015","21:22:35",25,"Live","Three",4,"Chrome","          ","No-socialFirst",8,"Switch",1,"Novel59",1,"Novel59",1,858,"straight-ahead",-1,"(Jan 08 2015 21:22:35)",3,36,"test",TRUE,FALSE,4,"second",11,-1,"include","social",TRUE,0,FALSE,4624
