"","subid","submit.date","submit.time","trial.num","gazeLength","condition","interval","numPic","browser","itemNum","trialType","samePos","chosen","chosenIdx","kept","keptIdx","rt","face","faceIdx","exposureTrial","testTrial","exampleTrial","day.and.time","intervalNum","include","first.trial","numPicN","correct"
"1","A1015EI76K26I3","Jul 13 2014","10:08:47",1,"Medium","Social","Zero",4,"Chrome",0,"Switch",1,"squirrel",0,"",0,784,"straightahead",-1,0,0,1,(Jul 13 2014 10:08:47),0,TRUE,FALSE,4,FALSE
"2","A1015EI76K26I3","Jul 13 2014","10:08:47",2,"Medium","Social","Zero",4,"Chrome",0,"Switch",1,"squirrel",0,"",0,1890,"straightahead",-1,0,0,1,(Jul 13 2014 10:08:47),0,TRUE,FALSE,4,FALSE
"3","A1015EI76K26I3","Jul 13 2014","10:08:47",3,"Medium","Social","Zero",4,"Chrome",0,"Switch",1,"tomato",1,"",0,128,"straightahead",-1,0,0,1,(Jul 13 2014 10:08:47),0,TRUE,FALSE,4,FALSE
"4","A1015EI76K26I3","Jul 13 2014","10:08:47",4,"Medium","Social","Zero",4,"Chrome",0,"Switch",1,"tomato",2,"",0,1769,"straightahead",-1,0,0,1,(Jul 13 2014 10:08:47),0,TRUE,FALSE,4,FALSE
"5","A1015EI76K26I3","Jul 13 2014","10:08:47",5,"Medium","Social","Zero",4,"Chrome",0,"Switch",1,"Novel101",2,"Novel30",3,190,"silentLDmedium",0,1,0,0,(Jul 13 2014 10:08:47),0,TRUE,FALSE,4,FALSE
"6","A1015EI76K26I3","Jul 13 2014","10:08:47",6,"Medium","Social","Zero",4,"Chrome",0,"Switch",1,"Novel115",1,"Novel30",3,3543,"straightahead",-1,0,1,0,(Jul 13 2014 10:08:47),0,TRUE,TRUE,4,FALSE
"7","A1015EI76K26I3","Jul 13 2014","10:08:47",7,"Medium","Social","Zero",4,"Chrome",1,"Same",1,"Novel86",1,"Novel86",1,146,"silentRUmedium",3,1,0,0,(Jul 13 2014 10:08:47),0,TRUE,FALSE,4,TRUE
"8","A1015EI76K26I3","Jul 13 2014","10:08:47",8,"Medium","Social","Zero",4,"Chrome",1,"Same",1,"Novel86",1,"Novel86",1,381,"straightahead",-1,0,1,0,(Jul 13 2014 10:08:47),0,TRUE,FALSE,4,TRUE
"9","A1015EI76K26I3","Jul 13 2014","10:08:47",9,"Medium","Social","Zero",4,"Chrome",2,"Switch",1,"Novel95",2,"Novel28",3,1969,"silentLDmedium",0,1,0,0,(Jul 13 2014 10:08:47),0,TRUE,FALSE,4,FALSE
"10","A1015EI76K26I3","Jul 13 2014","10:08:47",10,"Medium","Social","Zero",4,"Chrome",2,"Switch",1,"Novel28",3,"Novel28",3,1967,"straightahead",-1,0,1,0,(Jul 13 2014 10:08:47),0,TRUE,FALSE,4,TRUE
"11","A1015EI76K26I3","Jul 13 2014","10:08:47",11,"Medium","Social","Zero",4,"Chrome",3,"Same",0,"Novel57",1,"Novel57",1,607,"silentRUmedium",3,1,0,0,(Jul 13 2014 10:08:47),0,TRUE,FALSE,4,TRUE
"12","A1015EI76K26I3","Jul 13 2014","10:08:47",12,"Medium","Social","Zero",4,"Chrome",3,"Same",0,"Novel57",2,"Novel57",1,498,"straightahead",-1,0,1,0,(Jul 13 2014 10:08:47),0,TRUE,FALSE,4,TRUE
"13","A1015EI76K26I3","Jul 13 2014","10:08:47",13,"Medium","Social","Zero",4,"Chrome",4,"Switch",0,"Novel108",0,"Novel107",1,322,"silentLUmedium",1,1,0,0,(Jul 13 2014 10:08:47),0,TRUE,FALSE,4,FALSE
"14","A1015EI76K26I3","Jul 13 2014","10:08:47",14,"Medium","Social","Zero",4,"Chrome",4,"Switch",0,"Novel91",3,"Novel107",1,3055,"straightahead",-1,0,1,0,(Jul 13 2014 10:08:47),0,TRUE,FALSE,4,FALSE
"15","A1015EI76K26I3","Jul 13 2014","10:08:47",15,"Medium","Social","Zero",4,"Chrome",5,"Same",1,"Novel131",2,"Novel131",2,393,"silentLDmedium",0,1,0,0,(Jul 13 2014 10:08:47),0,TRUE,FALSE,4,TRUE
"16","A1015EI76K26I3","Jul 13 2014","10:08:47",16,"Medium","Social","Zero",4,"Chrome",5,"Same",1,"Novel131",2,"Novel131",2,2367,"straightahead",-1,0,1,0,(Jul 13 2014 10:08:47),0,TRUE,FALSE,4,TRUE
"17","A1015EI76K26I3","Jul 13 2014","10:08:47",17,"Medium","Social","Zero",4,"Chrome",6,"Switch",0,"Novel92",1,"Novel100",2,52,"silentRUmedium",3,1,0,0,(Jul 13 2014 10:08:47),0,TRUE,FALSE,4,FALSE
"18","A1015EI76K26I3","Jul 13 2014","10:08:47",18,"Medium","Social","Zero",4,"Chrome",6,"Switch",0,"Novel100",0,"Novel100",2,197,"straightahead",-1,0,1,0,(Jul 13 2014 10:08:47),0,TRUE,FALSE,4,TRUE
"19","A1015EI76K26I3","Jul 13 2014","10:08:47",19,"Medium","Social","Zero",4,"Chrome",7,"Same",0,"Novel12",3,"Novel12",3,586,"silentRDmedium",2,1,0,0,(Jul 13 2014 10:08:47),0,TRUE,FALSE,4,TRUE
"20","A1015EI76K26I3","Jul 13 2014","10:08:47",20,"Medium","Social","Zero",4,"Chrome",7,"Same",0,"Novel12",2,"Novel12",3,142,"straightahead",-1,0,1,0,(Jul 13 2014 10:08:47),0,TRUE,FALSE,4,TRUE
"21","A10XEV4PQKUC2C","Jul 13 2014","10:17:35",1,"Long","Social","Zero",4,"Chrome",0,"Switch",1,"squirrel",0,"",0,3977,"straightahead",-1,0,0,1,(Jul 13 2014 10:17:35),0,TRUE,FALSE,4,FALSE
"22","A10XEV4PQKUC2C","Jul 13 2014","10:17:35",2,"Long","Social","Zero",4,"Chrome",0,"Switch",1,"squirrel",0,"",0,907,"straightahead",-1,0,0,1,(Jul 13 2014 10:17:35),0,TRUE,FALSE,4,FALSE
"23","A10XEV4PQKUC2C","Jul 13 2014","10:17:35",3,"Long","Social","Zero",4,"Chrome",0,"Switch",1,"tomato",1,"",0,173,"straightahead",-1,0,0,1,(Jul 13 2014 10:17:35),0,TRUE,FALSE,4,FALSE
"24","A10XEV4PQKUC2C","Jul 13 2014","10:17:35",4,"Long","Social","Zero",4,"Chrome",0,"Switch",1,"tomato",2,"",0,311,"straightahead",-1,0,0,1,(Jul 13 2014 10:17:35),0,TRUE,FALSE,4,FALSE
"25","A10XEV4PQKUC2C","Jul 13 2014","10:17:35",5,"Long","Social","Zero",4,"Chrome",0,"Switch",1,"Novel3",3,"Novel120",0,216,"silentRDlong",2,1,0,0,(Jul 13 2014 10:17:35),0,TRUE,FALSE,4,FALSE
"26","A10XEV4PQKUC2C","Jul 13 2014","10:17:35",6,"Long","Social","Zero",4,"Chrome",0,"Switch",1,"Novel120",0,"Novel120",0,3392,"straightahead",-1,0,1,0,(Jul 13 2014 10:17:35),0,TRUE,TRUE,4,TRUE
"27","A10XEV4PQKUC2C","Jul 13 2014","10:17:35",7,"Long","Social","Zero",4,"Chrome",1,"Same",1,"Novel32",2,"Novel32",2,1437,"silentLDlong",0,1,0,0,(Jul 13 2014 10:17:35),0,TRUE,FALSE,4,TRUE
"28","A10XEV4PQKUC2C","Jul 13 2014","10:17:35",8,"Long","Social","Zero",4,"Chrome",1,"Same",1,"Novel32",2,"Novel32",2,296,"straightahead",-1,0,1,0,(Jul 13 2014 10:17:35),0,TRUE,FALSE,4,TRUE
"29","A10XEV4PQKUC2C","Jul 13 2014","10:17:35",9,"Long","Social","Zero",4,"Chrome",2,"Switch",1,"Novel62",3,"Novel100",0,630,"silentRDlong",2,1,0,0,(Jul 13 2014 10:17:35),0,TRUE,FALSE,4,FALSE
"30","A10XEV4PQKUC2C","Jul 13 2014","10:17:35",10,"Long","Social","Zero",4,"Chrome",2,"Switch",1,"Novel100",0,"Novel100",0,1185,"straightahead",-1,0,1,0,(Jul 13 2014 10:17:35),0,TRUE,FALSE,4,TRUE
"31","A10XEV4PQKUC2C","Jul 13 2014","10:17:35",11,"Long","Social","Zero",4,"Chrome",3,"Same",0,"Novel57",3,"Novel57",3,1086,"silentRDlong",2,1,0,0,(Jul 13 2014 10:17:35),0,TRUE,FALSE,4,TRUE
"32","A10XEV4PQKUC2C","Jul 13 2014","10:17:35",12,"Long","Social","Zero",4,"Chrome",3,"Same",0,"Novel57",2,"Novel57",3,725,"straightahead",-1,0,1,0,(Jul 13 2014 10:17:35),0,TRUE,FALSE,4,TRUE
"33","A10XEV4PQKUC2C","Jul 13 2014","10:17:35",13,"Long","Social","Zero",4,"Chrome",4,"Switch",0,"Novel90",1,"Novel56",3,458,"silentRUlong",3,1,0,0,(Jul 13 2014 10:17:35),0,TRUE,FALSE,4,FALSE
"34","A10XEV4PQKUC2C","Jul 13 2014","10:17:35",14,"Long","Social","Zero",4,"Chrome",4,"Switch",0,"Novel93",0,"Novel56",3,1565,"straightahead",-1,0,1,0,(Jul 13 2014 10:17:35),0,TRUE,FALSE,4,FALSE
"35","A10XEV4PQKUC2C","Jul 13 2014","10:17:35",15,"Long","Social","Zero",4,"Chrome",5,"Same",0,"Novel119",1,"Novel119",1,952,"silentRUlong",3,1,0,0,(Jul 13 2014 10:17:35),0,TRUE,FALSE,4,TRUE
"36","A10XEV4PQKUC2C","Jul 13 2014","10:17:35",16,"Long","Social","Zero",4,"Chrome",5,"Same",0,"Novel119",2,"Novel119",1,944,"straightahead",-1,0,1,0,(Jul 13 2014 10:17:35),0,TRUE,FALSE,4,TRUE
"37","A10XEV4PQKUC2C","Jul 13 2014","10:17:35",17,"Long","Social","Zero",4,"Chrome",6,"Switch",0,"Novel16",2,"Novel45",3,864,"silentLDlong",0,1,0,0,(Jul 13 2014 10:17:35),0,TRUE,FALSE,4,FALSE
"38","A10XEV4PQKUC2C","Jul 13 2014","10:17:35",18,"Long","Social","Zero",4,"Chrome",6,"Switch",0,"Novel127",3,"Novel45",3,791,"straightahead",-1,0,1,0,(Jul 13 2014 10:17:35),0,TRUE,FALSE,4,FALSE
"39","A10XEV4PQKUC2C","Jul 13 2014","10:17:35",19,"Long","Social","Zero",4,"Chrome",7,"Same",1,"Novel21",0,"Novel21",0,613,"silentLUlong",1,1,0,0,(Jul 13 2014 10:17:35),0,TRUE,FALSE,4,TRUE
"40","A10XEV4PQKUC2C","Jul 13 2014","10:17:35",20,"Long","Social","Zero",4,"Chrome",7,"Same",1,"Novel21",0,"Novel21",0,339,"straightahead",-1,0,1,0,(Jul 13 2014 10:17:35),0,TRUE,FALSE,4,TRUE
"41","A13VCOMTXGM8OJ","Jul 13 2014","10:10:03",1,"Medium","Social","Zero",4,"Chrome",0,"Same",1,"squirrel",0,"",0,1228,"straightahead",-1,0,0,1,(Jul 13 2014 10:10:03),0,TRUE,FALSE,4,FALSE
"42","A13VCOMTXGM8OJ","Jul 13 2014","10:10:03",2,"Medium","Social","Zero",4,"Chrome",0,"Same",1,"squirrel",0,"",0,809,"straightahead",-1,0,0,1,(Jul 13 2014 10:10:03),0,TRUE,FALSE,4,FALSE
"43","A13VCOMTXGM8OJ","Jul 13 2014","10:10:03",3,"Medium","Social","Zero",4,"Chrome",0,"Same",1,"tomato",1,"",0,60,"straightahead",-1,0,0,1,(Jul 13 2014 10:10:03),0,TRUE,FALSE,4,FALSE
"44","A13VCOMTXGM8OJ","Jul 13 2014","10:10:03",4,"Medium","Social","Zero",4,"Chrome",0,"Same",1,"tomato",2,"",0,1055,"straightahead",-1,0,0,1,(Jul 13 2014 10:10:03),0,TRUE,FALSE,4,FALSE
"45","A13VCOMTXGM8OJ","Jul 13 2014","10:10:03",5,"Medium","Social","Zero",4,"Chrome",0,"Same",1,"Novel139",3,"Novel139",3,1924,"silentRUmedium",3,1,0,0,(Jul 13 2014 10:10:03),0,TRUE,FALSE,4,TRUE
"46","A13VCOMTXGM8OJ","Jul 13 2014","10:10:03",6,"Medium","Social","Zero",4,"Chrome",0,"Same",1,"Novel139",3,"Novel139",3,1497,"straightahead",-1,0,1,0,(Jul 13 2014 10:10:03),0,TRUE,TRUE,4,TRUE
"47","A13VCOMTXGM8OJ","Jul 13 2014","10:10:03",7,"Medium","Social","Zero",4,"Chrome",1,"Switch",1,"Novel131",0,"Novel122",1,3207,"silentLDmedium",0,1,0,0,(Jul 13 2014 10:10:03),0,TRUE,FALSE,4,FALSE
"48","A13VCOMTXGM8OJ","Jul 13 2014","10:10:03",8,"Medium","Social","Zero",4,"Chrome",1,"Switch",1,"Novel23",3,"Novel122",1,556,"straightahead",-1,0,1,0,(Jul 13 2014 10:10:03),0,TRUE,FALSE,4,FALSE
"49","A13VCOMTXGM8OJ","Jul 13 2014","10:10:03",9,"Medium","Social","Zero",4,"Chrome",2,"Same",0,"Novel24",1,"Novel24",1,2974,"silentRUmedium",3,1,0,0,(Jul 13 2014 10:10:03),0,TRUE,FALSE,4,TRUE
"50","A13VCOMTXGM8OJ","Jul 13 2014","10:10:03",10,"Medium","Social","Zero",4,"Chrome",2,"Same",0,"Novel24",2,"Novel24",1,2608,"straightahead",-1,0,1,0,(Jul 13 2014 10:10:03),0,TRUE,FALSE,4,TRUE
"51","A13VCOMTXGM8OJ","Jul 13 2014","10:10:03",11,"Medium","Social","Zero",4,"Chrome",3,"Switch",1,"Novel42",1,"Novel106",0,7039,"silentRDmedium",2,1,0,0,(Jul 13 2014 10:10:03),0,TRUE,FALSE,4,FALSE
"52","A13VCOMTXGM8OJ","Jul 13 2014","10:10:03",12,"Medium","Social","Zero",4,"Chrome",3,"Switch",1,"Novel106",0,"Novel106",0,1053,"straightahead",-1,0,1,0,(Jul 13 2014 10:10:03),0,TRUE,FALSE,4,TRUE
"53","A13VCOMTXGM8OJ","Jul 13 2014","10:10:03",13,"Medium","Social","Zero",4,"Chrome",4,"Same",0,"Novel9",1,"Novel9",1,5948,"silentLUmedium",1,1,0,0,(Jul 13 2014 10:10:03),0,TRUE,FALSE,4,TRUE
"54","A13VCOMTXGM8OJ","Jul 13 2014","10:10:03",14,"Medium","Social","Zero",4,"Chrome",4,"Same",0,"Novel9",0,"Novel9",1,598,"straightahead",-1,0,1,0,(Jul 13 2014 10:10:03),0,TRUE,FALSE,4,TRUE
"55","A13VCOMTXGM8OJ","Jul 13 2014","10:10:03",15,"Medium","Social","Zero",4,"Chrome",5,"Switch",0,"Novel51",0,"Novel32",3,25902,"silentLUmedium",1,1,0,0,(Jul 13 2014 10:10:03),0,TRUE,FALSE,4,FALSE
"56","A13VCOMTXGM8OJ","Jul 13 2014","10:10:03",16,"Medium","Social","Zero",4,"Chrome",5,"Switch",0,"Novel47",2,"Novel32",3,3594,"straightahead",-1,0,1,0,(Jul 13 2014 10:10:03),0,TRUE,FALSE,4,FALSE
"57","A13VCOMTXGM8OJ","Jul 13 2014","10:10:03",17,"Medium","Social","Zero",4,"Chrome",6,"Same",1,"Novel80",1,"Novel80",1,983,"silentRDmedium",2,1,0,0,(Jul 13 2014 10:10:03),0,TRUE,FALSE,4,TRUE
"58","A13VCOMTXGM8OJ","Jul 13 2014","10:10:03",18,"Medium","Social","Zero",4,"Chrome",6,"Same",1,"Novel80",1,"Novel80",1,914,"straightahead",-1,0,1,0,(Jul 13 2014 10:10:03),0,TRUE,FALSE,4,TRUE
"59","A13VCOMTXGM8OJ","Jul 13 2014","10:10:03",19,"Medium","Social","Zero",4,"Chrome",7,"Switch",0,"Novel121",2,"Novel25",3,1553,"silentLUmedium",1,1,0,0,(Jul 13 2014 10:10:03),0,TRUE,FALSE,4,FALSE
"60","A13VCOMTXGM8OJ","Jul 13 2014","10:10:03",20,"Medium","Social","Zero",4,"Chrome",7,"Switch",0,"Novel7",3,"Novel25",3,1201,"straightahead",-1,0,1,0,(Jul 13 2014 10:10:03),0,TRUE,FALSE,4,FALSE
"61","A140JKRQOG93BA","Jul 13 2014","09:45:57",1,"Short","Social","Zero",4,"Chrome",0,"Switch",1,"squirrel",0,"",0,7025,"straightahead",-1,0,0,1,(Jul 13 2014 09:45:57),0,TRUE,FALSE,4,FALSE
"62","A140JKRQOG93BA","Jul 13 2014","09:45:57",2,"Short","Social","Zero",4,"Chrome",0,"Switch",1,"squirrel",0,"",0,818,"straightahead",-1,0,0,1,(Jul 13 2014 09:45:57),0,TRUE,FALSE,4,FALSE
"63","A140JKRQOG93BA","Jul 13 2014","09:45:57",3,"Short","Social","Zero",4,"Chrome",0,"Switch",1,"tomato",1,"",0,71,"straightahead",-1,0,0,1,(Jul 13 2014 09:45:57),0,TRUE,FALSE,4,FALSE
"64","A140JKRQOG93BA","Jul 13 2014","09:45:57",4,"Short","Social","Zero",4,"Chrome",0,"Switch",1,"tomato",2,"",0,267,"straightahead",-1,0,0,1,(Jul 13 2014 09:45:57),0,TRUE,FALSE,4,FALSE
"65","A140JKRQOG93BA","Jul 13 2014","09:45:57",5,"Short","Social","Zero",4,"Chrome",0,"Switch",1,"Novel58",0,"Novel57",2,2357,"silentRDshort",2,1,0,0,(Jul 13 2014 09:45:57),0,TRUE,FALSE,4,FALSE
"66","A140JKRQOG93BA","Jul 13 2014","09:45:57",6,"Short","Social","Zero",4,"Chrome",0,"Switch",1,"Novel5",0,"Novel57",2,472,"straightahead",-1,0,1,0,(Jul 13 2014 09:45:57),0,TRUE,TRUE,4,FALSE
"67","A140JKRQOG93BA","Jul 13 2014","09:45:57",7,"Short","Social","Zero",4,"Chrome",1,"Same",1,"Novel115",1,"Novel115",1,211,"silentRDshort",2,1,0,0,(Jul 13 2014 09:45:57),0,TRUE,FALSE,4,TRUE
"68","A140JKRQOG93BA","Jul 13 2014","09:45:57",8,"Short","Social","Zero",4,"Chrome",1,"Same",1,"Novel115",1,"Novel115",1,1238,"straightahead",-1,0,1,0,(Jul 13 2014 09:45:57),0,TRUE,FALSE,4,TRUE
"69","A140JKRQOG93BA","Jul 13 2014","09:45:57",9,"Short","Social","Zero",4,"Chrome",2,"Switch",0,"Novel62",2,"Novel22",0,131,"silentRUshort",3,1,0,0,(Jul 13 2014 09:45:57),0,TRUE,FALSE,4,FALSE
"70","A140JKRQOG93BA","Jul 13 2014","09:45:57",10,"Short","Social","Zero",4,"Chrome",2,"Switch",0,"Novel22",3,"Novel22",0,7121,"straightahead",-1,0,1,0,(Jul 13 2014 09:45:57),0,TRUE,FALSE,4,TRUE
"71","A140JKRQOG93BA","Jul 13 2014","09:45:57",11,"Short","Social","Zero",4,"Chrome",3,"Same",0,"Novel84",3,"Novel84",3,42,"silentRUshort",3,1,0,0,(Jul 13 2014 09:45:57),0,TRUE,FALSE,4,TRUE
"72","A140JKRQOG93BA","Jul 13 2014","09:45:57",12,"Short","Social","Zero",4,"Chrome",3,"Same",0,"Novel84",0,"Novel84",3,1369,"straightahead",-1,0,1,0,(Jul 13 2014 09:45:57),0,TRUE,FALSE,4,TRUE
"73","A140JKRQOG93BA","Jul 13 2014","09:45:57",13,"Short","Social","Zero",4,"Chrome",4,"Switch",0,"Novel71",0,"Novel28",2,1985,"silentLUshort",1,1,0,0,(Jul 13 2014 09:45:57),0,TRUE,FALSE,4,FALSE
"74","A140JKRQOG93BA","Jul 13 2014","09:45:57",14,"Short","Social","Zero",4,"Chrome",4,"Switch",0,"Novel28",1,"Novel28",2,8,"straightahead",-1,0,1,0,(Jul 13 2014 09:45:57),0,TRUE,FALSE,4,TRUE
"75","A140JKRQOG93BA","Jul 13 2014","09:45:57",15,"Short","Social","Zero",4,"Chrome",5,"Same",1,"Novel112",2,"Novel112",2,948,"silentLUshort",1,1,0,0,(Jul 13 2014 09:45:57),0,TRUE,FALSE,4,TRUE
"76","A140JKRQOG93BA","Jul 13 2014","09:45:57",16,"Short","Social","Zero",4,"Chrome",5,"Same",1,"Novel112",2,"Novel112",2,194,"straightahead",-1,0,1,0,(Jul 13 2014 09:45:57),0,TRUE,FALSE,4,TRUE
"77","A140JKRQOG93BA","Jul 13 2014","09:45:57",17,"Short","Social","Zero",4,"Chrome",6,"Switch",1,"Novel16",3,"Novel102",2,90,"silentRDshort",2,1,0,0,(Jul 13 2014 09:45:57),0,TRUE,FALSE,4,FALSE
"78","A140JKRQOG93BA","Jul 13 2014","09:45:57",18,"Short","Social","Zero",4,"Chrome",6,"Switch",1,"Novel35",0,"Novel102",2,89,"straightahead",-1,0,1,0,(Jul 13 2014 09:45:57),0,TRUE,FALSE,4,FALSE
"79","A140JKRQOG93BA","Jul 13 2014","09:45:57",19,"Short","Social","Zero",4,"Chrome",7,"Same",0,"Novel92",1,"Novel92",1,1151,"silentLDshort",0,1,0,0,(Jul 13 2014 09:45:57),0,TRUE,FALSE,4,TRUE
"80","A140JKRQOG93BA","Jul 13 2014","09:45:57",20,"Short","Social","Zero",4,"Chrome",7,"Same",0,"Novel92",3,"Novel92",1,155,"straightahead",-1,0,1,0,(Jul 13 2014 09:45:57),0,TRUE,FALSE,4,TRUE
"81","A15UWGADIRZ04I","Jul 13 2014","09:16:20",1,"Medium","Social","Zero",4,"Chrome",0,"Same",1,"squirrel",0,"",0,6328,"straightahead",-1,0,0,1,(Jul 13 2014 09:16:20),0,TRUE,FALSE,4,FALSE
"82","A15UWGADIRZ04I","Jul 13 2014","09:16:20",2,"Medium","Social","Zero",4,"Chrome",0,"Same",1,"squirrel",0,"",0,173,"straightahead",-1,0,0,1,(Jul 13 2014 09:16:20),0,TRUE,FALSE,4,FALSE
"83","A15UWGADIRZ04I","Jul 13 2014","09:16:20",3,"Medium","Social","Zero",4,"Chrome",0,"Same",1,"tomato",1,"",0,142,"straightahead",-1,0,0,1,(Jul 13 2014 09:16:20),0,TRUE,FALSE,4,FALSE
"84","A15UWGADIRZ04I","Jul 13 2014","09:16:20",4,"Medium","Social","Zero",4,"Chrome",0,"Same",1,"tomato",2,"",0,1814,"straightahead",-1,0,0,1,(Jul 13 2014 09:16:20),0,TRUE,FALSE,4,FALSE
"85","A15UWGADIRZ04I","Jul 13 2014","09:16:20",5,"Medium","Social","Zero",4,"Chrome",0,"Same",1,"Novel127",1,"Novel127",1,1440,"silentRUmedium",3,1,0,0,(Jul 13 2014 09:16:20),0,TRUE,FALSE,4,TRUE
"86","A15UWGADIRZ04I","Jul 13 2014","09:16:20",6,"Medium","Social","Zero",4,"Chrome",0,"Same",1,"Novel127",1,"Novel127",1,989,"straightahead",-1,0,1,0,(Jul 13 2014 09:16:20),0,TRUE,TRUE,4,TRUE
"87","A15UWGADIRZ04I","Jul 13 2014","09:16:20",7,"Medium","Social","Zero",4,"Chrome",1,"Switch",1,"Novel46",2,"Novel32",3,891,"silentLDmedium",0,1,0,0,(Jul 13 2014 09:16:20),0,TRUE,FALSE,4,FALSE
"88","A15UWGADIRZ04I","Jul 13 2014","09:16:20",8,"Medium","Social","Zero",4,"Chrome",1,"Switch",1,"Novel4",1,"Novel32",3,2874,"straightahead",-1,0,1,0,(Jul 13 2014 09:16:20),0,TRUE,FALSE,4,FALSE
"89","A15UWGADIRZ04I","Jul 13 2014","09:16:20",9,"Medium","Social","Zero",4,"Chrome",2,"Same",0,"Novel28",2,"Novel28",2,1086,"silentLDmedium",0,1,0,0,(Jul 13 2014 09:16:20),0,TRUE,FALSE,4,TRUE
"90","A15UWGADIRZ04I","Jul 13 2014","09:16:20",10,"Medium","Social","Zero",4,"Chrome",2,"Same",0,"Novel28",1,"Novel28",2,523,"straightahead",-1,0,1,0,(Jul 13 2014 09:16:20),0,TRUE,FALSE,4,TRUE
"91","A15UWGADIRZ04I","Jul 13 2014","09:16:20",11,"Medium","Social","Zero",4,"Chrome",3,"Switch",0,"Novel6",3,"Novel2",0,624,"silentRDmedium",2,1,0,0,(Jul 13 2014 09:16:20),0,TRUE,FALSE,4,FALSE
"92","A15UWGADIRZ04I","Jul 13 2014","09:16:20",12,"Medium","Social","Zero",4,"Chrome",3,"Switch",0,"Novel120",2,"Novel2",0,498,"straightahead",-1,0,1,0,(Jul 13 2014 09:16:20),0,TRUE,FALSE,4,FALSE
"93","A15UWGADIRZ04I","Jul 13 2014","09:16:20",13,"Medium","Social","Zero",4,"Chrome",4,"Same",0,"Novel79",2,"Novel79",2,433,"silentLDmedium",0,1,0,0,(Jul 13 2014 09:16:20),0,TRUE,FALSE,4,TRUE
"94","A15UWGADIRZ04I","Jul 13 2014","09:16:20",14,"Medium","Social","Zero",4,"Chrome",4,"Same",0,"Novel79",0,"Novel79",2,714,"straightahead",-1,0,1,0,(Jul 13 2014 09:16:20),0,TRUE,FALSE,4,TRUE
"95","A15UWGADIRZ04I","Jul 13 2014","09:16:20",15,"Medium","Social","Zero",4,"Chrome",5,"Switch",1,"Novel45",3,"Novel26",2,413,"silentRDmedium",2,1,0,0,(Jul 13 2014 09:16:20),0,TRUE,FALSE,4,FALSE
"96","A15UWGADIRZ04I","Jul 13 2014","09:16:20",16,"Medium","Social","Zero",4,"Chrome",5,"Switch",1,"Novel13",1,"Novel26",2,3512,"straightahead",-1,0,1,0,(Jul 13 2014 09:16:20),0,TRUE,FALSE,4,FALSE
"97","A15UWGADIRZ04I","Jul 13 2014","09:16:20",17,"Medium","Social","Zero",4,"Chrome",6,"Same",1,"Novel38",3,"Novel38",3,1163,"silentRDmedium",2,1,0,0,(Jul 13 2014 09:16:20),0,TRUE,FALSE,4,TRUE
"98","A15UWGADIRZ04I","Jul 13 2014","09:16:20",18,"Medium","Social","Zero",4,"Chrome",6,"Same",1,"Novel38",3,"Novel38",3,119,"straightahead",-1,0,1,0,(Jul 13 2014 09:16:20),0,TRUE,FALSE,4,TRUE
"99","A15UWGADIRZ04I","Jul 13 2014","09:16:20",19,"Medium","Social","Zero",4,"Chrome",7,"Switch",0,"Novel91",0,"Novel52",1,759,"silentLUmedium",1,1,0,0,(Jul 13 2014 09:16:20),0,TRUE,FALSE,4,FALSE
"100","A15UWGADIRZ04I","Jul 13 2014","09:16:20",20,"Medium","Social","Zero",4,"Chrome",7,"Switch",0,"Novel57",1,"Novel52",1,4112,"straightahead",-1,0,1,0,(Jul 13 2014 09:16:20),0,TRUE,FALSE,4,FALSE
"101","A16NPGA6IGAIL0","Jul 13 2014","08:58:06",1,"Short","Social","Zero",4,"Safari",0,"Same",1,"squirrel",0,"",0,4436,"straightahead",-1,0,0,1,(Jul 13 2014 08:58:06),0,TRUE,FALSE,4,FALSE
"102","A16NPGA6IGAIL0","Jul 13 2014","08:58:06",2,"Short","Social","Zero",4,"Safari",0,"Same",1,"squirrel",0,"",0,643,"straightahead",-1,0,0,1,(Jul 13 2014 08:58:06),0,TRUE,FALSE,4,FALSE
"103","A16NPGA6IGAIL0","Jul 13 2014","08:58:06",3,"Short","Social","Zero",4,"Safari",0,"Same",1,"tomato",1,"",0,798,"straightahead",-1,0,0,1,(Jul 13 2014 08:58:06),0,TRUE,FALSE,4,FALSE
"104","A16NPGA6IGAIL0","Jul 13 2014","08:58:06",4,"Short","Social","Zero",4,"Safari",0,"Same",1,"tomato",2,"",0,2451,"straightahead",-1,0,0,1,(Jul 13 2014 08:58:06),0,TRUE,FALSE,4,FALSE
"105","A16NPGA6IGAIL0","Jul 13 2014","08:58:06",5,"Short","Social","Zero",4,"Safari",0,"Same",1,"Novel22",1,"Novel22",1,2530,"silentLUshort",1,1,0,0,(Jul 13 2014 08:58:06),0,TRUE,FALSE,4,TRUE
"106","A16NPGA6IGAIL0","Jul 13 2014","08:58:06",6,"Short","Social","Zero",4,"Safari",0,"Same",1,"Novel22",1,"Novel22",1,4087,"straightahead",-1,0,1,0,(Jul 13 2014 08:58:06),0,TRUE,TRUE,4,TRUE
"107","A16NPGA6IGAIL0","Jul 13 2014","08:58:06",7,"Short","Social","Zero",4,"Safari",1,"Switch",1,"Novel95",1,"Novel131",0,58,"silentLDshort",0,1,0,0,(Jul 13 2014 08:58:06),0,TRUE,FALSE,4,FALSE
"108","A16NPGA6IGAIL0","Jul 13 2014","08:58:06",8,"Short","Social","Zero",4,"Safari",1,"Switch",1,"Novel131",0,"Novel131",0,502,"straightahead",-1,0,1,0,(Jul 13 2014 08:58:06),0,TRUE,FALSE,4,TRUE
"109","A16NPGA6IGAIL0","Jul 13 2014","08:58:06",9,"Short","Social","Zero",4,"Safari",2,"Same",0,"Novel24",3,"Novel24",3,1363,"silentLDshort",0,1,0,0,(Jul 13 2014 08:58:06),0,TRUE,FALSE,4,TRUE
"110","A16NPGA6IGAIL0","Jul 13 2014","08:58:06",10,"Short","Social","Zero",4,"Safari",2,"Same",0,"Novel24",2,"Novel24",3,780,"straightahead",-1,0,1,0,(Jul 13 2014 08:58:06),0,TRUE,FALSE,4,TRUE
"111","A16NPGA6IGAIL0","Jul 13 2014","08:58:06",11,"Short","Social","Zero",4,"Safari",3,"Switch",0,"Novel73",3,"Novel63",0,1218,"silentRDshort",2,1,0,0,(Jul 13 2014 08:58:06),0,TRUE,FALSE,4,FALSE
"112","A16NPGA6IGAIL0","Jul 13 2014","08:58:06",12,"Short","Social","Zero",4,"Safari",3,"Switch",0,"Novel63",2,"Novel63",0,719,"straightahead",-1,0,1,0,(Jul 13 2014 08:58:06),0,TRUE,FALSE,4,TRUE
"113","A16NPGA6IGAIL0","Jul 13 2014","08:58:06",13,"Short","Social","Zero",4,"Safari",4,"Same",0,"Novel106",1,"Novel106",1,1187,"silentRUshort",3,1,0,0,(Jul 13 2014 08:58:06),0,TRUE,FALSE,4,TRUE
"114","A16NPGA6IGAIL0","Jul 13 2014","08:58:06",14,"Short","Social","Zero",4,"Safari",4,"Same",0,"Novel106",2,"Novel106",1,2597,"straightahead",-1,0,1,0,(Jul 13 2014 08:58:06),0,TRUE,FALSE,4,TRUE
"115","A16NPGA6IGAIL0","Jul 13 2014","08:58:06",15,"Short","Social","Zero",4,"Safari",5,"Switch",1,"Novel45",3,"Novel21",1,2768,"silentLDshort",0,1,0,0,(Jul 13 2014 08:58:06),0,TRUE,FALSE,4,FALSE
"116","A16NPGA6IGAIL0","Jul 13 2014","08:58:06",16,"Short","Social","Zero",4,"Safari",5,"Switch",1,"Novel21",1,"Novel21",1,1217,"straightahead",-1,0,1,0,(Jul 13 2014 08:58:06),0,TRUE,FALSE,4,TRUE
"117","A16NPGA6IGAIL0","Jul 13 2014","08:58:06",17,"Short","Social","Zero",4,"Safari",6,"Same",1,"Novel5",3,"Novel5",3,387,"silentLUshort",1,1,0,0,(Jul 13 2014 08:58:06),0,TRUE,FALSE,4,TRUE
"118","A16NPGA6IGAIL0","Jul 13 2014","08:58:06",18,"Short","Social","Zero",4,"Safari",6,"Same",1,"Novel5",3,"Novel5",3,429,"straightahead",-1,0,1,0,(Jul 13 2014 08:58:06),0,TRUE,FALSE,4,TRUE
"119","A16NPGA6IGAIL0","Jul 13 2014","08:58:06",19,"Short","Social","Zero",4,"Safari",7,"Switch",0,"Novel18",3,"Novel93",2,3377,"silentRUshort",3,1,0,0,(Jul 13 2014 08:58:06),0,TRUE,FALSE,4,FALSE
"120","A16NPGA6IGAIL0","Jul 13 2014","08:58:06",20,"Short","Social","Zero",4,"Safari",7,"Switch",0,"Novel58",3,"Novel93",2,1529,"straightahead",-1,0,1,0,(Jul 13 2014 08:58:06),0,TRUE,FALSE,4,FALSE
"121","A16WTL2DOIQ5SV","Jul 13 2014","09:22:10",1,"Short","Social","Zero",4,"Chrome",0,"Same",1,"squirrel",0,"",0,418,"straightahead",-1,0,0,1,(Jul 13 2014 09:22:10),0,TRUE,FALSE,4,FALSE
"122","A16WTL2DOIQ5SV","Jul 13 2014","09:22:10",2,"Short","Social","Zero",4,"Chrome",0,"Same",1,"squirrel",0,"",0,1568,"straightahead",-1,0,0,1,(Jul 13 2014 09:22:10),0,TRUE,FALSE,4,FALSE
"123","A16WTL2DOIQ5SV","Jul 13 2014","09:22:10",3,"Short","Social","Zero",4,"Chrome",0,"Same",1,"tomato",1,"",0,6,"straightahead",-1,0,0,1,(Jul 13 2014 09:22:10),0,TRUE,FALSE,4,FALSE
"124","A16WTL2DOIQ5SV","Jul 13 2014","09:22:10",4,"Short","Social","Zero",4,"Chrome",0,"Same",1,"tomato",2,"",0,624,"straightahead",-1,0,0,1,(Jul 13 2014 09:22:10),0,TRUE,FALSE,4,FALSE
"125","A16WTL2DOIQ5SV","Jul 13 2014","09:22:10",5,"Short","Social","Zero",4,"Chrome",0,"Same",1,"Novel140",3,"Novel140",3,354,"silentRDshort",2,1,0,0,(Jul 13 2014 09:22:10),0,TRUE,FALSE,4,TRUE
"126","A16WTL2DOIQ5SV","Jul 13 2014","09:22:10",6,"Short","Social","Zero",4,"Chrome",0,"Same",1,"Novel140",3,"Novel140",3,179,"straightahead",-1,0,1,0,(Jul 13 2014 09:22:10),0,TRUE,TRUE,4,TRUE
"127","A16WTL2DOIQ5SV","Jul 13 2014","09:22:10",7,"Short","Social","Zero",4,"Chrome",1,"Switch",1,"Novel38",0,"Novel110",2,189,"silentLUshort",1,1,0,0,(Jul 13 2014 09:22:10),0,TRUE,FALSE,4,FALSE
"128","A16WTL2DOIQ5SV","Jul 13 2014","09:22:10",8,"Short","Social","Zero",4,"Chrome",1,"Switch",1,"Novel110",2,"Novel110",2,71,"straightahead",-1,0,1,0,(Jul 13 2014 09:22:10),0,TRUE,FALSE,4,TRUE
"129","A16WTL2DOIQ5SV","Jul 13 2014","09:22:10",9,"Short","Social","Zero",4,"Chrome",2,"Same",0,"Novel98",3,"Novel98",3,345,"silentRDshort",2,1,0,0,(Jul 13 2014 09:22:10),0,TRUE,FALSE,4,TRUE
"130","A16WTL2DOIQ5SV","Jul 13 2014","09:22:10",10,"Short","Social","Zero",4,"Chrome",2,"Same",0,"Novel98",0,"Novel98",3,750,"straightahead",-1,0,1,0,(Jul 13 2014 09:22:10),0,TRUE,FALSE,4,TRUE
"131","A16WTL2DOIQ5SV","Jul 13 2014","09:22:10",11,"Short","Social","Zero",4,"Chrome",3,"Switch",0,"Novel2",3,"Novel77",1,565,"silentRDshort",2,1,0,0,(Jul 13 2014 09:22:10),0,TRUE,FALSE,4,FALSE
"132","A16WTL2DOIQ5SV","Jul 13 2014","09:22:10",12,"Short","Social","Zero",4,"Chrome",3,"Switch",0,"Novel77",2,"Novel77",1,629,"straightahead",-1,0,1,0,(Jul 13 2014 09:22:10),0,TRUE,FALSE,4,TRUE
"133","A16WTL2DOIQ5SV","Jul 13 2014","09:22:10",13,"Short","Social","Zero",4,"Chrome",4,"Same",1,"Novel23",3,"Novel23",3,298,"silentRDshort",2,1,0,0,(Jul 13 2014 09:22:10),0,TRUE,FALSE,4,TRUE
"134","A16WTL2DOIQ5SV","Jul 13 2014","09:22:10",14,"Short","Social","Zero",4,"Chrome",4,"Same",1,"Novel23",3,"Novel23",3,86,"straightahead",-1,0,1,0,(Jul 13 2014 09:22:10),0,TRUE,FALSE,4,TRUE
"135","A16WTL2DOIQ5SV","Jul 13 2014","09:22:10",15,"Short","Social","Zero",4,"Chrome",5,"Switch",1,"Novel75",1,"Novel40",2,330,"silentRUshort",3,1,0,0,(Jul 13 2014 09:22:10),0,TRUE,FALSE,4,FALSE
"136","A16WTL2DOIQ5SV","Jul 13 2014","09:22:10",16,"Short","Social","Zero",4,"Chrome",5,"Switch",1,"Novel33",3,"Novel40",2,8,"straightahead",-1,0,1,0,(Jul 13 2014 09:22:10),0,TRUE,FALSE,4,FALSE
"137","A16WTL2DOIQ5SV","Jul 13 2014","09:22:10",17,"Short","Social","Zero",4,"Chrome",6,"Same",0,"Novel131",1,"Novel131",1,2405,"silentRUshort",3,1,0,0,(Jul 13 2014 09:22:10),0,TRUE,FALSE,4,TRUE
"138","A16WTL2DOIQ5SV","Jul 13 2014","09:22:10",18,"Short","Social","Zero",4,"Chrome",6,"Same",0,"Novel131",0,"Novel131",1,254,"straightahead",-1,0,1,0,(Jul 13 2014 09:22:10),0,TRUE,FALSE,4,TRUE
"139","A16WTL2DOIQ5SV","Jul 13 2014","09:22:10",19,"Short","Social","Zero",4,"Chrome",7,"Switch",0,"Novel103",1,"Novel111",2,142,"silentRUshort",3,1,0,0,(Jul 13 2014 09:22:10),0,TRUE,FALSE,4,FALSE
"140","A16WTL2DOIQ5SV","Jul 13 2014","09:22:10",20,"Short","Social","Zero",4,"Chrome",7,"Switch",0,"Novel111",1,"Novel111",2,29,"straightahead",-1,0,1,0,(Jul 13 2014 09:22:10),0,TRUE,FALSE,4,TRUE
"141","A17135L9ZGEYKJ","Jul 13 2014","09:59:51",1,"Short","Social","Zero",4,"Chrome",0,"Switch",0,"squirrel",0,"",0,2790,"straightahead",-1,0,0,1,(Jul 13 2014 09:59:51),0,TRUE,FALSE,4,FALSE
"142","A17135L9ZGEYKJ","Jul 13 2014","09:59:51",2,"Short","Social","Zero",4,"Chrome",0,"Switch",0,"squirrel",0,"",0,3573,"straightahead",-1,0,0,1,(Jul 13 2014 09:59:51),0,TRUE,FALSE,4,FALSE
"143","A17135L9ZGEYKJ","Jul 13 2014","09:59:51",3,"Short","Social","Zero",4,"Chrome",0,"Switch",0,"tomato",1,"",0,763,"straightahead",-1,0,0,1,(Jul 13 2014 09:59:51),0,TRUE,FALSE,4,FALSE
"144","A17135L9ZGEYKJ","Jul 13 2014","09:59:51",4,"Short","Social","Zero",4,"Chrome",0,"Switch",0,"tomato",2,"",0,441,"straightahead",-1,0,0,1,(Jul 13 2014 09:59:51),0,TRUE,FALSE,4,FALSE
"145","A17135L9ZGEYKJ","Jul 13 2014","09:59:51",5,"Short","Social","Zero",4,"Chrome",0,"Switch",0,"Novel128",1,"Novel1",2,200,"silentRUshort",3,1,0,0,(Jul 13 2014 09:59:51),0,TRUE,FALSE,4,FALSE
"146","A17135L9ZGEYKJ","Jul 13 2014","09:59:51",6,"Short","Social","Zero",4,"Chrome",0,"Switch",0,"Novel1",0,"Novel1",2,5934,"straightahead",-1,0,1,0,(Jul 13 2014 09:59:51),0,TRUE,TRUE,4,TRUE
"147","A17135L9ZGEYKJ","Jul 13 2014","09:59:51",7,"Short","Social","Zero",4,"Chrome",1,"Same",1,"Novel18",3,"Novel18",3,2084,"silentRDshort",2,1,0,0,(Jul 13 2014 09:59:51),0,TRUE,FALSE,4,TRUE
"148","A17135L9ZGEYKJ","Jul 13 2014","09:59:51",8,"Short","Social","Zero",4,"Chrome",1,"Same",1,"Novel18",3,"Novel18",3,1234,"straightahead",-1,0,1,0,(Jul 13 2014 09:59:51),0,TRUE,FALSE,4,TRUE
"149","A17135L9ZGEYKJ","Jul 13 2014","09:59:51",9,"Short","Social","Zero",4,"Chrome",2,"Switch",1,"Novel99",0,"Novel5",1,1006,"silentLUshort",1,1,0,0,(Jul 13 2014 09:59:51),0,TRUE,FALSE,4,FALSE
"150","A17135L9ZGEYKJ","Jul 13 2014","09:59:51",10,"Short","Social","Zero",4,"Chrome",2,"Switch",1,"Novel5",1,"Novel5",1,69,"straightahead",-1,0,1,0,(Jul 13 2014 09:59:51),0,TRUE,FALSE,4,TRUE
"151","A17135L9ZGEYKJ","Jul 13 2014","09:59:51",11,"Short","Social","Zero",4,"Chrome",3,"Same",0,"Novel25",1,"Novel25",1,1662,"silentRUshort",3,1,0,0,(Jul 13 2014 09:59:51),0,TRUE,FALSE,4,TRUE
"152","A17135L9ZGEYKJ","Jul 13 2014","09:59:51",12,"Short","Social","Zero",4,"Chrome",3,"Same",0,"Novel25",0,"Novel25",1,997,"straightahead",-1,0,1,0,(Jul 13 2014 09:59:51),0,TRUE,FALSE,4,TRUE
"153","A17135L9ZGEYKJ","Jul 13 2014","09:59:51",13,"Short","Social","Zero",4,"Chrome",4,"Switch",1,"Novel78",2,"Novel113",0,2285,"silentRUshort",3,1,0,0,(Jul 13 2014 09:59:51),0,TRUE,FALSE,4,FALSE
"154","A17135L9ZGEYKJ","Jul 13 2014","09:59:51",14,"Short","Social","Zero",4,"Chrome",4,"Switch",1,"Novel113",0,"Novel113",0,1508,"straightahead",-1,0,1,0,(Jul 13 2014 09:59:51),0,TRUE,FALSE,4,TRUE
"155","A17135L9ZGEYKJ","Jul 13 2014","09:59:51",15,"Short","Social","Zero",4,"Chrome",5,"Same",1,"Novel71",3,"Novel71",3,1081,"silentRDshort",2,1,0,0,(Jul 13 2014 09:59:51),0,TRUE,FALSE,4,TRUE
"156","A17135L9ZGEYKJ","Jul 13 2014","09:59:51",16,"Short","Social","Zero",4,"Chrome",5,"Same",1,"Novel71",3,"Novel71",3,487,"straightahead",-1,0,1,0,(Jul 13 2014 09:59:51),0,TRUE,FALSE,4,TRUE
"157","A17135L9ZGEYKJ","Jul 13 2014","09:59:51",17,"Short","Social","Zero",4,"Chrome",6,"Switch",0,"Novel119",3,"Novel94",0,1590,"silentRDshort",2,1,0,0,(Jul 13 2014 09:59:51),0,TRUE,FALSE,4,FALSE
"158","A17135L9ZGEYKJ","Jul 13 2014","09:59:51",18,"Short","Social","Zero",4,"Chrome",6,"Switch",0,"Novel94",1,"Novel94",0,2005,"straightahead",-1,0,1,0,(Jul 13 2014 09:59:51),0,TRUE,FALSE,4,TRUE
"159","A17135L9ZGEYKJ","Jul 13 2014","09:59:51",19,"Short","Social","Zero",4,"Chrome",7,"Same",0,"Novel72",2,"Novel72",2,214,"silentLDshort",0,1,0,0,(Jul 13 2014 09:59:51),0,TRUE,FALSE,4,TRUE
"160","A17135L9ZGEYKJ","Jul 13 2014","09:59:51",20,"Short","Social","Zero",4,"Chrome",7,"Same",0,"Novel72",3,"Novel72",2,694,"straightahead",-1,0,1,0,(Jul 13 2014 09:59:51),0,TRUE,FALSE,4,TRUE
"161","A171UMOFDHIO58","Jul 13 2014","10:17:06",1,"Long","Social","Zero",4,"Chrome",0,"Switch",0,"squirrel",0,"",0,3707,"straightahead",-1,0,0,1,(Jul 13 2014 10:17:06),0,TRUE,FALSE,4,FALSE
"162","A171UMOFDHIO58","Jul 13 2014","10:17:06",2,"Long","Social","Zero",4,"Chrome",0,"Switch",0,"squirrel",0,"",0,25,"straightahead",-1,0,0,1,(Jul 13 2014 10:17:06),0,TRUE,FALSE,4,FALSE
"163","A171UMOFDHIO58","Jul 13 2014","10:17:06",3,"Long","Social","Zero",4,"Chrome",0,"Switch",0,"tomato",1,"",0,1724,"straightahead",-1,0,0,1,(Jul 13 2014 10:17:06),0,TRUE,FALSE,4,FALSE
"164","A171UMOFDHIO58","Jul 13 2014","10:17:06",4,"Long","Social","Zero",4,"Chrome",0,"Switch",0,"tomato",2,"",0,685,"straightahead",-1,0,0,1,(Jul 13 2014 10:17:06),0,TRUE,FALSE,4,FALSE
"165","A171UMOFDHIO58","Jul 13 2014","10:17:06",5,"Long","Social","Zero",4,"Chrome",0,"Switch",0,"Novel109",2,"Novel63",1,109,"silentLDlong",0,1,0,0,(Jul 13 2014 10:17:06),0,TRUE,FALSE,4,FALSE
"166","A171UMOFDHIO58","Jul 13 2014","10:17:06",6,"Long","Social","Zero",4,"Chrome",0,"Switch",0,"Novel82",2,"Novel63",1,4570,"straightahead",-1,0,1,0,(Jul 13 2014 10:17:06),0,TRUE,TRUE,4,FALSE
"167","A171UMOFDHIO58","Jul 13 2014","10:17:06",7,"Long","Social","Zero",4,"Chrome",1,"Same",1,"Novel132",1,"Novel132",1,646,"silentRUlong",3,1,0,0,(Jul 13 2014 10:17:06),0,TRUE,FALSE,4,TRUE
"168","A171UMOFDHIO58","Jul 13 2014","10:17:06",8,"Long","Social","Zero",4,"Chrome",1,"Same",1,"Novel132",1,"Novel132",1,653,"straightahead",-1,0,1,0,(Jul 13 2014 10:17:06),0,TRUE,FALSE,4,TRUE
"169","A171UMOFDHIO58","Jul 13 2014","10:17:06",9,"Long","Social","Zero",4,"Chrome",2,"Switch",1,"Novel80",1,"Novel32",3,628,"silentRUlong",3,1,0,0,(Jul 13 2014 10:17:06),0,TRUE,FALSE,4,FALSE
"170","A171UMOFDHIO58","Jul 13 2014","10:17:06",10,"Long","Social","Zero",4,"Chrome",2,"Switch",1,"Novel51",1,"Novel32",3,540,"straightahead",-1,0,1,0,(Jul 13 2014 10:17:06),0,TRUE,FALSE,4,FALSE
"171","A171UMOFDHIO58","Jul 13 2014","10:17:06",11,"Long","Social","Zero",4,"Chrome",3,"Same",1,"Novel89",0,"Novel89",0,1063,"silentLUlong",1,1,0,0,(Jul 13 2014 10:17:06),0,TRUE,FALSE,4,TRUE
"172","A171UMOFDHIO58","Jul 13 2014","10:17:06",12,"Long","Social","Zero",4,"Chrome",3,"Same",1,"Novel89",0,"Novel89",0,759,"straightahead",-1,0,1,0,(Jul 13 2014 10:17:06),0,TRUE,FALSE,4,TRUE
"173","A171UMOFDHIO58","Jul 13 2014","10:17:06",13,"Long","Social","Zero",4,"Chrome",4,"Switch",0,"Novel29",0,"Novel11",3,525,"silentLUlong",1,1,0,0,(Jul 13 2014 10:17:06),0,TRUE,FALSE,4,FALSE
"174","A171UMOFDHIO58","Jul 13 2014","10:17:06",14,"Long","Social","Zero",4,"Chrome",4,"Switch",0,"Novel116",0,"Novel11",3,673,"straightahead",-1,0,1,0,(Jul 13 2014 10:17:06),0,TRUE,FALSE,4,FALSE
"175","A171UMOFDHIO58","Jul 13 2014","10:17:06",15,"Long","Social","Zero",4,"Chrome",5,"Same",0,"Novel129",0,"Novel129",0,424,"silentLUlong",1,1,0,0,(Jul 13 2014 10:17:06),0,TRUE,FALSE,4,TRUE
"176","A171UMOFDHIO58","Jul 13 2014","10:17:06",16,"Long","Social","Zero",4,"Chrome",5,"Same",0,"Novel129",2,"Novel129",0,460,"straightahead",-1,0,1,0,(Jul 13 2014 10:17:06),0,TRUE,FALSE,4,TRUE
"177","A171UMOFDHIO58","Jul 13 2014","10:17:06",17,"Long","Social","Zero",4,"Chrome",6,"Switch",1,"Novel6",0,"Novel131",3,462,"silentLUlong",1,1,0,0,(Jul 13 2014 10:17:06),0,TRUE,FALSE,4,FALSE
"178","A171UMOFDHIO58","Jul 13 2014","10:17:06",18,"Long","Social","Zero",4,"Chrome",6,"Switch",1,"Novel44",2,"Novel131",3,350,"straightahead",-1,0,1,0,(Jul 13 2014 10:17:06),0,TRUE,FALSE,4,FALSE
"179","A171UMOFDHIO58","Jul 13 2014","10:17:06",19,"Long","Social","Zero",4,"Chrome",7,"Same",0,"Novel76",3,"Novel76",3,974,"silentRDlong",2,1,0,0,(Jul 13 2014 10:17:06),0,TRUE,FALSE,4,TRUE
"180","A171UMOFDHIO58","Jul 13 2014","10:17:06",20,"Long","Social","Zero",4,"Chrome",7,"Same",0,"Novel76",2,"Novel76",3,488,"straightahead",-1,0,1,0,(Jul 13 2014 10:17:06),0,TRUE,FALSE,4,TRUE
"181","A188NND2Q40151","Jul 13 2014","10:42:49",1,"Short","Social","Zero",4,"Chrome",0,"Switch",0,"squirrel",0,"",0,1673,"straightahead",-1,0,0,1,(Jul 13 2014 10:42:49),0,TRUE,FALSE,4,FALSE
"182","A188NND2Q40151","Jul 13 2014","10:42:49",2,"Short","Social","Zero",4,"Chrome",0,"Switch",0,"squirrel",0,"",0,227,"straightahead",-1,0,0,1,(Jul 13 2014 10:42:49),0,TRUE,FALSE,4,FALSE
"183","A188NND2Q40151","Jul 13 2014","10:42:49",3,"Short","Social","Zero",4,"Chrome",0,"Switch",0,"tomato",1,"",0,227,"straightahead",-1,0,0,1,(Jul 13 2014 10:42:49),0,TRUE,FALSE,4,FALSE
"184","A188NND2Q40151","Jul 13 2014","10:42:49",4,"Short","Social","Zero",4,"Chrome",0,"Switch",0,"tomato",2,"",0,4,"straightahead",-1,0,0,1,(Jul 13 2014 10:42:49),0,TRUE,FALSE,4,FALSE
"185","A188NND2Q40151","Jul 13 2014","10:42:49",5,"Short","Social","Zero",4,"Chrome",0,"Switch",0,"Novel116",2,"Novel48",3,4419,"silentRUshort",3,1,0,0,(Jul 13 2014 10:42:49),0,TRUE,FALSE,4,FALSE
"186","A188NND2Q40151","Jul 13 2014","10:42:49",6,"Short","Social","Zero",4,"Chrome",0,"Switch",0,"Novel48",1,"Novel48",3,1182,"straightahead",-1,0,1,0,(Jul 13 2014 10:42:49),0,TRUE,TRUE,4,TRUE
"187","A188NND2Q40151","Jul 13 2014","10:42:49",7,"Short","Social","Zero",4,"Chrome",1,"Same",0,"Novel92",1,"Novel92",1,256,"silentRDshort",2,1,0,0,(Jul 13 2014 10:42:49),0,TRUE,FALSE,4,TRUE
"188","A188NND2Q40151","Jul 13 2014","10:42:49",8,"Short","Social","Zero",4,"Chrome",1,"Same",0,"Novel80",1,"Novel92",1,200,"straightahead",-1,0,1,0,(Jul 13 2014 10:42:49),0,TRUE,FALSE,4,FALSE
"189","A188NND2Q40151","Jul 13 2014","10:42:49",9,"Short","Social","Zero",4,"Chrome",2,"Switch",1,"Novel60",0,"Novel50",3,741,"silentRDshort",2,1,0,0,(Jul 13 2014 10:42:49),0,TRUE,FALSE,4,FALSE
"190","A188NND2Q40151","Jul 13 2014","10:42:49",10,"Short","Social","Zero",4,"Chrome",2,"Switch",1,"Novel82",0,"Novel50",3,139,"straightahead",-1,0,1,0,(Jul 13 2014 10:42:49),0,TRUE,FALSE,4,FALSE
"191","A188NND2Q40151","Jul 13 2014","10:42:49",11,"Short","Social","Zero",4,"Chrome",3,"Same",1,"Novel95",1,"Novel95",1,1188,"silentLUshort",1,1,0,0,(Jul 13 2014 10:42:49),0,TRUE,FALSE,4,TRUE
"192","A188NND2Q40151","Jul 13 2014","10:42:49",12,"Short","Social","Zero",4,"Chrome",3,"Same",1,"Novel95",1,"Novel95",1,2496,"straightahead",-1,0,1,0,(Jul 13 2014 10:42:49),0,TRUE,FALSE,4,TRUE
"193","A188NND2Q40151","Jul 13 2014","10:42:49",13,"Short","Social","Zero",4,"Chrome",4,"Switch",0,"Novel43",3,"Novel47",1,893,"silentRDshort",2,1,0,0,(Jul 13 2014 10:42:49),0,TRUE,FALSE,4,FALSE
"194","A188NND2Q40151","Jul 13 2014","10:42:49",14,"Short","Social","Zero",4,"Chrome",4,"Switch",0,"Novel106",0,"Novel47",1,1456,"straightahead",-1,0,1,0,(Jul 13 2014 10:42:49),0,TRUE,FALSE,4,FALSE
"195","A188NND2Q40151","Jul 13 2014","10:42:49",15,"Short","Social","Zero",4,"Chrome",5,"Same",0,"Novel136",1,"Novel136",1,2008,"silentRDshort",2,1,0,0,(Jul 13 2014 10:42:49),0,TRUE,FALSE,4,TRUE
"196","A188NND2Q40151","Jul 13 2014","10:42:49",16,"Short","Social","Zero",4,"Chrome",5,"Same",0,"Novel125",2,"Novel136",1,150,"straightahead",-1,0,1,0,(Jul 13 2014 10:42:49),0,TRUE,FALSE,4,FALSE
"197","A188NND2Q40151","Jul 13 2014","10:42:49",17,"Short","Social","Zero",4,"Chrome",6,"Switch",1,"Novel127",1,"Novel12",3,130,"silentRUshort",3,1,0,0,(Jul 13 2014 10:42:49),0,TRUE,FALSE,4,FALSE
"198","A188NND2Q40151","Jul 13 2014","10:42:49",18,"Short","Social","Zero",4,"Chrome",6,"Switch",1,"Novel12",3,"Novel12",3,44,"straightahead",-1,0,1,0,(Jul 13 2014 10:42:49),0,TRUE,FALSE,4,TRUE
"199","A188NND2Q40151","Jul 13 2014","10:42:49",19,"Short","Social","Zero",4,"Chrome",7,"Same",1,"Novel99",2,"Novel99",2,1464,"silentLUshort",1,1,0,0,(Jul 13 2014 10:42:49),0,TRUE,FALSE,4,TRUE
"200","A188NND2Q40151","Jul 13 2014","10:42:49",20,"Short","Social","Zero",4,"Chrome",7,"Same",1,"Novel54",3,"Novel99",2,709,"straightahead",-1,0,1,0,(Jul 13 2014 10:42:49),0,TRUE,FALSE,4,FALSE
"201","A18DKL63PB77JH","Jul 13 2014","09:28:23",1,"Medium","Social","Zero",4,"Chrome",0,"Switch",1,"squirrel",0,"",0,2464,"straightahead",-1,0,0,1,(Jul 13 2014 09:28:23),0,TRUE,FALSE,4,FALSE
"202","A18DKL63PB77JH","Jul 13 2014","09:28:23",2,"Medium","Social","Zero",4,"Chrome",0,"Switch",1,"squirrel",0,"",0,1220,"straightahead",-1,0,0,1,(Jul 13 2014 09:28:23),0,TRUE,FALSE,4,FALSE
"203","A18DKL63PB77JH","Jul 13 2014","09:28:23",3,"Medium","Social","Zero",4,"Chrome",0,"Switch",1,"tomato",1,"",0,235,"straightahead",-1,0,0,1,(Jul 13 2014 09:28:23),0,TRUE,FALSE,4,FALSE
"204","A18DKL63PB77JH","Jul 13 2014","09:28:23",4,"Medium","Social","Zero",4,"Chrome",0,"Switch",1,"tomato",2,"",0,201,"straightahead",-1,0,0,1,(Jul 13 2014 09:28:23),0,TRUE,FALSE,4,FALSE
"205","A18DKL63PB77JH","Jul 13 2014","09:28:23",5,"Medium","Social","Zero",4,"Chrome",0,"Switch",1,"Novel119",1,"Novel113",2,3092,"silentLUmedium",1,1,0,0,(Jul 13 2014 09:28:23),0,TRUE,FALSE,4,FALSE
"206","A18DKL63PB77JH","Jul 13 2014","09:28:23",6,"Medium","Social","Zero",4,"Chrome",0,"Switch",1,"Novel113",2,"Novel113",2,473,"straightahead",-1,0,1,0,(Jul 13 2014 09:28:23),0,TRUE,TRUE,4,TRUE
"207","A18DKL63PB77JH","Jul 13 2014","09:28:23",7,"Medium","Social","Zero",4,"Chrome",1,"Same",0,"Novel50",0,"Novel50",0,140,"silentLUmedium",1,1,0,0,(Jul 13 2014 09:28:23),0,TRUE,FALSE,4,TRUE
"208","A18DKL63PB77JH","Jul 13 2014","09:28:23",8,"Medium","Social","Zero",4,"Chrome",1,"Same",0,"Novel50",2,"Novel50",0,616,"straightahead",-1,0,1,0,(Jul 13 2014 09:28:23),0,TRUE,FALSE,4,TRUE
"209","A18DKL63PB77JH","Jul 13 2014","09:28:23",9,"Medium","Social","Zero",4,"Chrome",2,"Switch",1,"Novel59",0,"Novel70",2,248,"silentLUmedium",1,1,0,0,(Jul 13 2014 09:28:23),0,TRUE,FALSE,4,FALSE
"210","A18DKL63PB77JH","Jul 13 2014","09:28:23",10,"Medium","Social","Zero",4,"Chrome",2,"Switch",1,"Novel70",2,"Novel70",2,224,"straightahead",-1,0,1,0,(Jul 13 2014 09:28:23),0,TRUE,FALSE,4,TRUE
"211","A18DKL63PB77JH","Jul 13 2014","09:28:23",11,"Medium","Social","Zero",4,"Chrome",3,"Same",1,"Novel126",2,"Novel126",2,2160,"silentRDmedium",2,1,0,0,(Jul 13 2014 09:28:23),0,TRUE,FALSE,4,TRUE
"212","A18DKL63PB77JH","Jul 13 2014","09:28:23",12,"Medium","Social","Zero",4,"Chrome",3,"Same",1,"Novel126",2,"Novel126",2,636,"straightahead",-1,0,1,0,(Jul 13 2014 09:28:23),0,TRUE,FALSE,4,TRUE
"213","A18DKL63PB77JH","Jul 13 2014","09:28:23",13,"Medium","Social","Zero",4,"Chrome",4,"Switch",0,"Novel137",0,"Novel46",1,705,"silentLUmedium",1,1,0,0,(Jul 13 2014 09:28:23),0,TRUE,FALSE,4,FALSE
"214","A18DKL63PB77JH","Jul 13 2014","09:28:23",14,"Medium","Social","Zero",4,"Chrome",4,"Switch",0,"Novel46",0,"Novel46",1,765,"straightahead",-1,0,1,0,(Jul 13 2014 09:28:23),0,TRUE,FALSE,4,TRUE
"215","A18DKL63PB77JH","Jul 13 2014","09:28:23",15,"Medium","Social","Zero",4,"Chrome",5,"Same",0,"Novel52",0,"Novel52",0,1174,"silentRDmedium",2,1,0,0,(Jul 13 2014 09:28:23),0,TRUE,FALSE,4,TRUE
"216","A18DKL63PB77JH","Jul 13 2014","09:28:23",16,"Medium","Social","Zero",4,"Chrome",5,"Same",0,"Novel52",2,"Novel52",0,376,"straightahead",-1,0,1,0,(Jul 13 2014 09:28:23),0,TRUE,FALSE,4,TRUE
"217","A18DKL63PB77JH","Jul 13 2014","09:28:23",17,"Medium","Social","Zero",4,"Chrome",6,"Switch",0,"Novel101",1,"Novel94",2,816,"silentRUmedium",3,1,0,0,(Jul 13 2014 09:28:23),0,TRUE,FALSE,4,FALSE
"218","A18DKL63PB77JH","Jul 13 2014","09:28:23",18,"Medium","Social","Zero",4,"Chrome",6,"Switch",0,"Novel94",1,"Novel94",2,147,"straightahead",-1,0,1,0,(Jul 13 2014 09:28:23),0,TRUE,FALSE,4,TRUE
"219","A18DKL63PB77JH","Jul 13 2014","09:28:23",19,"Medium","Social","Zero",4,"Chrome",7,"Same",1,"Novel37",2,"Novel37",2,1108,"silentRUmedium",3,1,0,0,(Jul 13 2014 09:28:23),0,TRUE,FALSE,4,TRUE
"220","A18DKL63PB77JH","Jul 13 2014","09:28:23",20,"Medium","Social","Zero",4,"Chrome",7,"Same",1,"Novel37",2,"Novel37",2,909,"straightahead",-1,0,1,0,(Jul 13 2014 09:28:23),0,TRUE,FALSE,4,TRUE
"221","A191AQFVYJLQBI","Jul 13 2014","09:34:34",1,"Long","Social","Zero",4,"Chrome",0,"Same",0,"squirrel",0,"",0,1532,"straightahead",-1,0,0,1,(Jul 13 2014 09:34:34),0,TRUE,FALSE,4,FALSE
"222","A191AQFVYJLQBI","Jul 13 2014","09:34:34",2,"Long","Social","Zero",4,"Chrome",0,"Same",0,"squirrel",0,"",0,50,"straightahead",-1,0,0,1,(Jul 13 2014 09:34:34),0,TRUE,FALSE,4,FALSE
"223","A191AQFVYJLQBI","Jul 13 2014","09:34:34",3,"Long","Social","Zero",4,"Chrome",0,"Same",0,"tomato",1,"",0,620,"straightahead",-1,0,0,1,(Jul 13 2014 09:34:34),0,TRUE,FALSE,4,FALSE
"224","A191AQFVYJLQBI","Jul 13 2014","09:34:34",4,"Long","Social","Zero",4,"Chrome",0,"Same",0,"tomato",2,"",0,659,"straightahead",-1,0,0,1,(Jul 13 2014 09:34:34),0,TRUE,FALSE,4,FALSE
"225","A191AQFVYJLQBI","Jul 13 2014","09:34:34",5,"Long","Social","Zero",4,"Chrome",0,"Same",0,"Novel32",1,"Novel32",1,291,"silentRUlong",3,1,0,0,(Jul 13 2014 09:34:34),0,TRUE,FALSE,4,TRUE
"226","A191AQFVYJLQBI","Jul 13 2014","09:34:34",6,"Long","Social","Zero",4,"Chrome",0,"Same",0,"Novel32",3,"Novel32",1,997,"straightahead",-1,0,1,0,(Jul 13 2014 09:34:34),0,TRUE,TRUE,4,TRUE
"227","A191AQFVYJLQBI","Jul 13 2014","09:34:34",7,"Long","Social","Zero",4,"Chrome",1,"Switch",1,"Novel55",1,"Novel71",3,1206,"silentRUlong",3,1,0,0,(Jul 13 2014 09:34:34),0,TRUE,FALSE,4,FALSE
"228","A191AQFVYJLQBI","Jul 13 2014","09:34:34",8,"Long","Social","Zero",4,"Chrome",1,"Switch",1,"Novel100",0,"Novel71",3,2524,"straightahead",-1,0,1,0,(Jul 13 2014 09:34:34),0,TRUE,FALSE,4,FALSE
"229","A191AQFVYJLQBI","Jul 13 2014","09:34:34",9,"Long","Social","Zero",4,"Chrome",2,"Same",1,"Novel61",3,"Novel61",3,1078,"silentRDlong",2,1,0,0,(Jul 13 2014 09:34:34),0,TRUE,FALSE,4,TRUE
"230","A191AQFVYJLQBI","Jul 13 2014","09:34:34",10,"Long","Social","Zero",4,"Chrome",2,"Same",1,"Novel61",3,"Novel61",3,147,"straightahead",-1,0,1,0,(Jul 13 2014 09:34:34),0,TRUE,FALSE,4,TRUE
"231","A191AQFVYJLQBI","Jul 13 2014","09:34:34",11,"Long","Social","Zero",4,"Chrome",3,"Switch",0,"Novel98",0,"Novel114",2,1549,"silentLUlong",1,1,0,0,(Jul 13 2014 09:34:34),0,TRUE,FALSE,4,FALSE
"232","A191AQFVYJLQBI","Jul 13 2014","09:34:34",12,"Long","Social","Zero",4,"Chrome",3,"Switch",0,"Novel6",1,"Novel114",2,3861,"straightahead",-1,0,1,0,(Jul 13 2014 09:34:34),0,TRUE,FALSE,4,FALSE
"233","A191AQFVYJLQBI","Jul 13 2014","09:34:34",13,"Long","Social","Zero",4,"Chrome",4,"Same",1,"Novel42",2,"Novel42",2,1020,"silentLDlong",0,1,0,0,(Jul 13 2014 09:34:34),0,TRUE,FALSE,4,TRUE
"234","A191AQFVYJLQBI","Jul 13 2014","09:34:34",14,"Long","Social","Zero",4,"Chrome",4,"Same",1,"Novel42",2,"Novel42",2,71,"straightahead",-1,0,1,0,(Jul 13 2014 09:34:34),0,TRUE,FALSE,4,TRUE
"235","A191AQFVYJLQBI","Jul 13 2014","09:34:34",15,"Long","Social","Zero",4,"Chrome",5,"Switch",0,"Novel16",0,"Novel92",3,693,"silentLUlong",1,1,0,0,(Jul 13 2014 09:34:34),0,TRUE,FALSE,4,FALSE
"236","A191AQFVYJLQBI","Jul 13 2014","09:34:34",16,"Long","Social","Zero",4,"Chrome",5,"Switch",0,"Novel92",1,"Novel92",3,164,"straightahead",-1,0,1,0,(Jul 13 2014 09:34:34),0,TRUE,FALSE,4,TRUE
"237","A191AQFVYJLQBI","Jul 13 2014","09:34:34",17,"Long","Social","Zero",4,"Chrome",6,"Same",0,"Novel50",0,"Novel50",0,54,"silentLUlong",1,1,0,0,(Jul 13 2014 09:34:34),0,TRUE,FALSE,4,TRUE
"238","A191AQFVYJLQBI","Jul 13 2014","09:34:34",18,"Long","Social","Zero",4,"Chrome",6,"Same",0,"Novel50",3,"Novel50",0,668,"straightahead",-1,0,1,0,(Jul 13 2014 09:34:34),0,TRUE,FALSE,4,TRUE
"239","A191AQFVYJLQBI","Jul 13 2014","09:34:34",19,"Long","Social","Zero",4,"Chrome",7,"Switch",1,"Novel18",3,"Novel46",2,604,"silentRDlong",2,1,0,0,(Jul 13 2014 09:34:34),0,TRUE,FALSE,4,FALSE
"240","A191AQFVYJLQBI","Jul 13 2014","09:34:34",20,"Long","Social","Zero",4,"Chrome",7,"Switch",1,"Novel56",3,"Novel46",2,806,"straightahead",-1,0,1,0,(Jul 13 2014 09:34:34),0,TRUE,FALSE,4,FALSE
"241","A1A8ZDCJ32AP7O","Jul 13 2014","09:12:59",1,"Long","Social","Zero",4,"Chrome",0,"Switch",1,"squirrel",0,"",0,2825,"straightahead",-1,0,0,1,(Jul 13 2014 09:12:59),0,TRUE,FALSE,4,FALSE
"242","A1A8ZDCJ32AP7O","Jul 13 2014","09:12:59",2,"Long","Social","Zero",4,"Chrome",0,"Switch",1,"squirrel",0,"",0,2050,"straightahead",-1,0,0,1,(Jul 13 2014 09:12:59),0,TRUE,FALSE,4,FALSE
"243","A1A8ZDCJ32AP7O","Jul 13 2014","09:12:59",3,"Long","Social","Zero",4,"Chrome",0,"Switch",1,"tomato",1,"",0,600,"straightahead",-1,0,0,1,(Jul 13 2014 09:12:59),0,TRUE,FALSE,4,FALSE
"244","A1A8ZDCJ32AP7O","Jul 13 2014","09:12:59",4,"Long","Social","Zero",4,"Chrome",0,"Switch",1,"tomato",2,"",0,101,"straightahead",-1,0,0,1,(Jul 13 2014 09:12:59),0,TRUE,FALSE,4,FALSE
"245","A1A8ZDCJ32AP7O","Jul 13 2014","09:12:59",5,"Long","Social","Zero",4,"Chrome",0,"Switch",1,"Novel16",0,"Novel14",1,1553,"silentLUlong",1,1,0,0,(Jul 13 2014 09:12:59),0,TRUE,FALSE,4,FALSE
"246","A1A8ZDCJ32AP7O","Jul 13 2014","09:12:59",6,"Long","Social","Zero",4,"Chrome",0,"Switch",1,"Novel14",1,"Novel14",1,2374,"straightahead",-1,0,1,0,(Jul 13 2014 09:12:59),0,TRUE,TRUE,4,TRUE
"247","A1A8ZDCJ32AP7O","Jul 13 2014","09:12:59",7,"Long","Social","Zero",4,"Chrome",1,"Same",0,"Novel66",2,"Novel66",2,790,"silentRDlong",2,1,0,0,(Jul 13 2014 09:12:59),0,TRUE,FALSE,4,TRUE
"248","A1A8ZDCJ32AP7O","Jul 13 2014","09:12:59",8,"Long","Social","Zero",4,"Chrome",1,"Same",0,"Novel66",0,"Novel66",2,178,"straightahead",-1,0,1,0,(Jul 13 2014 09:12:59),0,TRUE,FALSE,4,TRUE
"249","A1A8ZDCJ32AP7O","Jul 13 2014","09:12:59",9,"Long","Social","Zero",4,"Chrome",2,"Switch",1,"Novel33",0,"Novel49",1,743,"silentLDlong",0,1,0,0,(Jul 13 2014 09:12:59),0,TRUE,FALSE,4,FALSE
"250","A1A8ZDCJ32AP7O","Jul 13 2014","09:12:59",10,"Long","Social","Zero",4,"Chrome",2,"Switch",1,"Novel49",1,"Novel49",1,727,"straightahead",-1,0,1,0,(Jul 13 2014 09:12:59),0,TRUE,FALSE,4,TRUE
"251","A1A8ZDCJ32AP7O","Jul 13 2014","09:12:59",11,"Long","Social","Zero",4,"Chrome",3,"Same",0,"Novel65",3,"Novel65",3,942,"silentLDlong",0,1,0,0,(Jul 13 2014 09:12:59),0,TRUE,FALSE,4,TRUE
"252","A1A8ZDCJ32AP7O","Jul 13 2014","09:12:59",12,"Long","Social","Zero",4,"Chrome",3,"Same",0,"Novel65",1,"Novel65",3,918,"straightahead",-1,0,1,0,(Jul 13 2014 09:12:59),0,TRUE,FALSE,4,TRUE
"253","A1A8ZDCJ32AP7O","Jul 13 2014","09:12:59",13,"Long","Social","Zero",4,"Chrome",4,"Switch",0,"Novel128",0,"Novel23",3,585,"silentLUlong",1,1,0,0,(Jul 13 2014 09:12:59),0,TRUE,FALSE,4,FALSE
"254","A1A8ZDCJ32AP7O","Jul 13 2014","09:12:59",14,"Long","Social","Zero",4,"Chrome",4,"Switch",0,"Novel23",2,"Novel23",3,3093,"straightahead",-1,0,1,0,(Jul 13 2014 09:12:59),0,TRUE,FALSE,4,TRUE
"255","A1A8ZDCJ32AP7O","Jul 13 2014","09:12:59",15,"Long","Social","Zero",4,"Chrome",5,"Same",1,"Novel116",1,"Novel116",1,1264,"silentLDlong",0,1,0,0,(Jul 13 2014 09:12:59),0,TRUE,FALSE,4,TRUE
"256","A1A8ZDCJ32AP7O","Jul 13 2014","09:12:59",16,"Long","Social","Zero",4,"Chrome",5,"Same",1,"Novel116",1,"Novel116",1,48,"straightahead",-1,0,1,0,(Jul 13 2014 09:12:59),0,TRUE,FALSE,4,TRUE
"257","A1A8ZDCJ32AP7O","Jul 13 2014","09:12:59",17,"Long","Social","Zero",4,"Chrome",6,"Switch",0,"Novel43",3,"Novel5",1,1439,"silentLDlong",0,1,0,0,(Jul 13 2014 09:12:59),0,TRUE,FALSE,4,FALSE
"258","A1A8ZDCJ32AP7O","Jul 13 2014","09:12:59",18,"Long","Social","Zero",4,"Chrome",6,"Switch",0,"Novel5",2,"Novel5",1,1187,"straightahead",-1,0,1,0,(Jul 13 2014 09:12:59),0,TRUE,FALSE,4,TRUE
"259","A1A8ZDCJ32AP7O","Jul 13 2014","09:12:59",19,"Long","Social","Zero",4,"Chrome",7,"Same",1,"Novel80",0,"Novel80",0,166,"silentLUlong",1,1,0,0,(Jul 13 2014 09:12:59),0,TRUE,FALSE,4,TRUE
"260","A1A8ZDCJ32AP7O","Jul 13 2014","09:12:59",20,"Long","Social","Zero",4,"Chrome",7,"Same",1,"Novel80",0,"Novel80",0,649,"straightahead",-1,0,1,0,(Jul 13 2014 09:12:59),0,TRUE,FALSE,4,TRUE
"261","A1A9S22C890BX9","Jul 13 2014","08:24:40",1,"Long","Social","Zero",4,"Chrome",0,"Switch",1,"squirrel",0,"",0,7721,"straightahead",-1,0,0,1,(Jul 13 2014 08:24:40),0,TRUE,FALSE,4,FALSE
"262","A1A9S22C890BX9","Jul 13 2014","08:24:40",2,"Long","Social","Zero",4,"Chrome",0,"Switch",1,"squirrel",0,"",0,1965,"straightahead",-1,0,0,1,(Jul 13 2014 08:24:40),0,TRUE,FALSE,4,FALSE
"263","A1A9S22C890BX9","Jul 13 2014","08:24:40",3,"Long","Social","Zero",4,"Chrome",0,"Switch",1,"tomato",1,"",0,403,"straightahead",-1,0,0,1,(Jul 13 2014 08:24:40),0,TRUE,FALSE,4,FALSE
"264","A1A9S22C890BX9","Jul 13 2014","08:24:40",4,"Long","Social","Zero",4,"Chrome",0,"Switch",1,"tomato",2,"",0,984,"straightahead",-1,0,0,1,(Jul 13 2014 08:24:40),0,TRUE,FALSE,4,FALSE
"265","A1A9S22C890BX9","Jul 13 2014","08:24:40",5,"Long","Social","Zero",4,"Chrome",0,"Switch",1,"Novel9",1,"Novel139",0,1551,"silentRUlong",3,1,0,0,(Jul 13 2014 08:24:40),0,TRUE,FALSE,4,FALSE
"266","A1A9S22C890BX9","Jul 13 2014","08:24:40",6,"Long","Social","Zero",4,"Chrome",0,"Switch",1,"Novel106",3,"Novel139",0,7399,"straightahead",-1,0,1,0,(Jul 13 2014 08:24:40),0,TRUE,TRUE,4,FALSE
"267","A1A9S22C890BX9","Jul 13 2014","08:24:40",7,"Long","Social","Zero",4,"Chrome",1,"Same",1,"Novel33",3,"Novel33",3,228,"silentRDlong",2,1,0,0,(Jul 13 2014 08:24:40),0,TRUE,FALSE,4,TRUE
"268","A1A9S22C890BX9","Jul 13 2014","08:24:40",8,"Long","Social","Zero",4,"Chrome",1,"Same",1,"Novel33",3,"Novel33",3,405,"straightahead",-1,0,1,0,(Jul 13 2014 08:24:40),0,TRUE,FALSE,4,TRUE
"269","A1A9S22C890BX9","Jul 13 2014","08:24:40",9,"Long","Social","Zero",4,"Chrome",2,"Switch",0,"Novel49",3,"Novel108",1,495,"silentRDlong",2,1,0,0,(Jul 13 2014 08:24:40),0,TRUE,FALSE,4,FALSE
"270","A1A9S22C890BX9","Jul 13 2014","08:24:40",10,"Long","Social","Zero",4,"Chrome",2,"Switch",0,"Novel34",1,"Novel108",1,956,"straightahead",-1,0,1,0,(Jul 13 2014 08:24:40),0,TRUE,FALSE,4,FALSE
"271","A1A9S22C890BX9","Jul 13 2014","08:24:40",11,"Long","Social","Zero",4,"Chrome",3,"Same",0,"Novel126",1,"Novel126",1,679,"silentRUlong",3,1,0,0,(Jul 13 2014 08:24:40),0,TRUE,FALSE,4,TRUE
"272","A1A9S22C890BX9","Jul 13 2014","08:24:40",12,"Long","Social","Zero",4,"Chrome",3,"Same",0,"Novel15",0,"Novel126",1,417,"straightahead",-1,0,1,0,(Jul 13 2014 08:24:40),0,TRUE,FALSE,4,FALSE
"273","A1A9S22C890BX9","Jul 13 2014","08:24:40",13,"Long","Social","Zero",4,"Chrome",4,"Switch",0,"Novel47",0,"Novel94",3,422,"silentLUlong",1,1,0,0,(Jul 13 2014 08:24:40),0,TRUE,FALSE,4,FALSE
"274","A1A9S22C890BX9","Jul 13 2014","08:24:40",14,"Long","Social","Zero",4,"Chrome",4,"Switch",0,"Novel14",3,"Novel94",3,303,"straightahead",-1,0,1,0,(Jul 13 2014 08:24:40),0,TRUE,FALSE,4,FALSE
"275","A1A9S22C890BX9","Jul 13 2014","08:24:40",15,"Long","Social","Zero",4,"Chrome",5,"Same",1,"Novel43",2,"Novel43",2,402,"silentLDlong",0,1,0,0,(Jul 13 2014 08:24:40),0,TRUE,FALSE,4,TRUE
"276","A1A9S22C890BX9","Jul 13 2014","08:24:40",16,"Long","Social","Zero",4,"Chrome",5,"Same",1,"Novel5",0,"Novel43",2,415,"straightahead",-1,0,1,0,(Jul 13 2014 08:24:40),0,TRUE,FALSE,4,FALSE
"277","A1A9S22C890BX9","Jul 13 2014","08:24:40",17,"Long","Social","Zero",4,"Chrome",6,"Switch",1,"Novel38",3,"Novel16",2,178,"silentRDlong",2,1,0,0,(Jul 13 2014 08:24:40),0,TRUE,FALSE,4,FALSE
"278","A1A9S22C890BX9","Jul 13 2014","08:24:40",18,"Long","Social","Zero",4,"Chrome",6,"Switch",1,"Novel125",1,"Novel16",2,1114,"straightahead",-1,0,1,0,(Jul 13 2014 08:24:40),0,TRUE,FALSE,4,FALSE
"279","A1A9S22C890BX9","Jul 13 2014","08:24:40",19,"Long","Social","Zero",4,"Chrome",7,"Same",0,"Novel81",3,"Novel81",3,241,"silentRDlong",2,1,0,0,(Jul 13 2014 08:24:40),0,TRUE,FALSE,4,TRUE
"280","A1A9S22C890BX9","Jul 13 2014","08:24:40",20,"Long","Social","Zero",4,"Chrome",7,"Same",0,"Novel81",1,"Novel81",3,977,"straightahead",-1,0,1,0,(Jul 13 2014 08:24:40),0,TRUE,FALSE,4,TRUE
"281","A1BHSDEGEI5GUD","Jul 13 2014","10:28:15",1,"Medium","Social","Zero",4,"Chrome",0,"Same",1,"squirrel",0,"",0,3127,"straightahead",-1,0,0,1,(Jul 13 2014 10:28:15),0,TRUE,FALSE,4,FALSE
"282","A1BHSDEGEI5GUD","Jul 13 2014","10:28:15",2,"Medium","Social","Zero",4,"Chrome",0,"Same",1,"squirrel",0,"",0,1284,"straightahead",-1,0,0,1,(Jul 13 2014 10:28:15),0,TRUE,FALSE,4,FALSE
"283","A1BHSDEGEI5GUD","Jul 13 2014","10:28:15",3,"Medium","Social","Zero",4,"Chrome",0,"Same",1,"tomato",1,"",0,166,"straightahead",-1,0,0,1,(Jul 13 2014 10:28:15),0,TRUE,FALSE,4,FALSE
"284","A1BHSDEGEI5GUD","Jul 13 2014","10:28:15",4,"Medium","Social","Zero",4,"Chrome",0,"Same",1,"tomato",2,"",0,800,"straightahead",-1,0,0,1,(Jul 13 2014 10:28:15),0,TRUE,FALSE,4,FALSE
"285","A1BHSDEGEI5GUD","Jul 13 2014","10:28:15",5,"Medium","Social","Zero",4,"Chrome",0,"Same",1,"Novel104",3,"Novel104",3,4504,"silentLDmedium",0,1,0,0,(Jul 13 2014 10:28:15),0,TRUE,FALSE,4,TRUE
"286","A1BHSDEGEI5GUD","Jul 13 2014","10:28:15",6,"Medium","Social","Zero",4,"Chrome",0,"Same",1,"Novel104",3,"Novel104",3,1205,"straightahead",-1,0,1,0,(Jul 13 2014 10:28:15),0,TRUE,TRUE,4,TRUE
"287","A1BHSDEGEI5GUD","Jul 13 2014","10:28:15",7,"Medium","Social","Zero",4,"Chrome",1,"Switch",1,"Novel33",1,"Novel25",0,2870,"silentRDmedium",2,1,0,0,(Jul 13 2014 10:28:15),0,TRUE,FALSE,4,FALSE
"288","A1BHSDEGEI5GUD","Jul 13 2014","10:28:15",8,"Medium","Social","Zero",4,"Chrome",1,"Switch",1,"Novel25",0,"Novel25",0,484,"straightahead",-1,0,1,0,(Jul 13 2014 10:28:15),0,TRUE,FALSE,4,TRUE
"289","A1BHSDEGEI5GUD","Jul 13 2014","10:28:15",9,"Medium","Social","Zero",4,"Chrome",2,"Same",0,"Novel44",1,"Novel44",1,2374,"silentLDmedium",0,1,0,0,(Jul 13 2014 10:28:15),0,TRUE,FALSE,4,TRUE
"290","A1BHSDEGEI5GUD","Jul 13 2014","10:28:15",10,"Medium","Social","Zero",4,"Chrome",2,"Same",0,"Novel44",2,"Novel44",1,328,"straightahead",-1,0,1,0,(Jul 13 2014 10:28:15),0,TRUE,FALSE,4,TRUE
"291","A1BHSDEGEI5GUD","Jul 13 2014","10:28:15",11,"Medium","Social","Zero",4,"Chrome",3,"Switch",1,"Novel35",0,"Novel92",3,1605,"silentRUmedium",3,1,0,0,(Jul 13 2014 10:28:15),0,TRUE,FALSE,4,FALSE
"292","A1BHSDEGEI5GUD","Jul 13 2014","10:28:15",12,"Medium","Social","Zero",4,"Chrome",3,"Switch",1,"Novel99",0,"Novel92",3,840,"straightahead",-1,0,1,0,(Jul 13 2014 10:28:15),0,TRUE,FALSE,4,FALSE
"293","A1BHSDEGEI5GUD","Jul 13 2014","10:28:15",13,"Medium","Social","Zero",4,"Chrome",4,"Same",1,"Novel80",0,"Novel80",0,349,"silentLUmedium",1,1,0,0,(Jul 13 2014 10:28:15),0,TRUE,FALSE,4,TRUE
"294","A1BHSDEGEI5GUD","Jul 13 2014","10:28:15",14,"Medium","Social","Zero",4,"Chrome",4,"Same",1,"Novel80",0,"Novel80",0,325,"straightahead",-1,0,1,0,(Jul 13 2014 10:28:15),0,TRUE,FALSE,4,TRUE
"295","A1BHSDEGEI5GUD","Jul 13 2014","10:28:15",15,"Medium","Social","Zero",4,"Chrome",5,"Switch",0,"Novel20",2,"Novel81",0,2071,"silentRDmedium",2,1,0,0,(Jul 13 2014 10:28:15),0,TRUE,FALSE,4,FALSE
"296","A1BHSDEGEI5GUD","Jul 13 2014","10:28:15",16,"Medium","Social","Zero",4,"Chrome",5,"Switch",0,"Novel81",2,"Novel81",0,541,"straightahead",-1,0,1,0,(Jul 13 2014 10:28:15),0,TRUE,FALSE,4,TRUE
"297","A1BHSDEGEI5GUD","Jul 13 2014","10:28:15",17,"Medium","Social","Zero",4,"Chrome",6,"Same",0,"Novel14",3,"Novel14",3,478,"silentLDmedium",0,1,0,0,(Jul 13 2014 10:28:15),0,TRUE,FALSE,4,TRUE
"298","A1BHSDEGEI5GUD","Jul 13 2014","10:28:15",18,"Medium","Social","Zero",4,"Chrome",6,"Same",0,"Novel14",2,"Novel14",3,262,"straightahead",-1,0,1,0,(Jul 13 2014 10:28:15),0,TRUE,FALSE,4,TRUE
"299","A1BHSDEGEI5GUD","Jul 13 2014","10:28:15",19,"Medium","Social","Zero",4,"Chrome",7,"Switch",0,"Novel43",1,"Novel57",3,837,"silentRUmedium",3,1,0,0,(Jul 13 2014 10:28:15),0,TRUE,FALSE,4,FALSE
"300","A1BHSDEGEI5GUD","Jul 13 2014","10:28:15",20,"Medium","Social","Zero",4,"Chrome",7,"Switch",0,"Novel24",3,"Novel57",3,1998,"straightahead",-1,0,1,0,(Jul 13 2014 10:28:15),0,TRUE,FALSE,4,FALSE
"321","A1DLRYK94PT0LP","Jul 13 2014","10:27:07",1,"Short","Social","Zero",4,"Safari",0,"Same",0,"squirrel",0,"",0,13153,"straightahead",-1,0,0,1,(Jul 13 2014 10:27:07),0,TRUE,FALSE,4,FALSE
"322","A1DLRYK94PT0LP","Jul 13 2014","10:27:07",2,"Short","Social","Zero",4,"Safari",0,"Same",0,"squirrel",0,"",0,408,"straightahead",-1,0,0,1,(Jul 13 2014 10:27:07),0,TRUE,FALSE,4,FALSE
"323","A1DLRYK94PT0LP","Jul 13 2014","10:27:07",3,"Short","Social","Zero",4,"Safari",0,"Same",0,"tomato",1,"",0,2384,"straightahead",-1,0,0,1,(Jul 13 2014 10:27:07),0,TRUE,FALSE,4,FALSE
"324","A1DLRYK94PT0LP","Jul 13 2014","10:27:07",4,"Short","Social","Zero",4,"Safari",0,"Same",0,"tomato",2,"",0,377,"straightahead",-1,0,0,1,(Jul 13 2014 10:27:07),0,TRUE,FALSE,4,FALSE
"325","A1DLRYK94PT0LP","Jul 13 2014","10:27:07",5,"Short","Social","Zero",4,"Safari",0,"Same",0,"Novel26",2,"Novel26",2,1770,"silentLDshort",0,1,0,0,(Jul 13 2014 10:27:07),0,TRUE,FALSE,4,TRUE
"326","A1DLRYK94PT0LP","Jul 13 2014","10:27:07",6,"Short","Social","Zero",4,"Safari",0,"Same",0,"Novel26",1,"Novel26",2,2081,"straightahead",-1,0,1,0,(Jul 13 2014 10:27:07),0,TRUE,TRUE,4,TRUE
"327","A1DLRYK94PT0LP","Jul 13 2014","10:27:07",7,"Short","Social","Zero",4,"Safari",1,"Switch",1,"Novel65",0,"Novel117",2,735,"silentLUshort",1,1,0,0,(Jul 13 2014 10:27:07),0,TRUE,FALSE,4,FALSE
"328","A1DLRYK94PT0LP","Jul 13 2014","10:27:07",8,"Short","Social","Zero",4,"Safari",1,"Switch",1,"Novel103",3,"Novel117",2,266,"straightahead",-1,0,1,0,(Jul 13 2014 10:27:07),0,TRUE,FALSE,4,FALSE
"329","A1DLRYK94PT0LP","Jul 13 2014","10:27:07",9,"Short","Social","Zero",4,"Safari",2,"Same",1,"Novel111",1,"Novel111",1,567,"silentRUshort",3,1,0,0,(Jul 13 2014 10:27:07),0,TRUE,FALSE,4,TRUE
"330","A1DLRYK94PT0LP","Jul 13 2014","10:27:07",10,"Short","Social","Zero",4,"Safari",2,"Same",1,"Novel111",1,"Novel111",1,950,"straightahead",-1,0,1,0,(Jul 13 2014 10:27:07),0,TRUE,FALSE,4,TRUE
"331","A1DLRYK94PT0LP","Jul 13 2014","10:27:07",11,"Short","Social","Zero",4,"Safari",3,"Switch",0,"Novel22",3,"Novel77",2,14,"silentRDshort",2,1,0,0,(Jul 13 2014 10:27:07),0,TRUE,FALSE,4,FALSE
"332","A1DLRYK94PT0LP","Jul 13 2014","10:27:07",12,"Short","Social","Zero",4,"Safari",3,"Switch",0,"Novel77",3,"Novel77",2,836,"straightahead",-1,0,1,0,(Jul 13 2014 10:27:07),0,TRUE,FALSE,4,TRUE
"333","A1DLRYK94PT0LP","Jul 13 2014","10:27:07",13,"Short","Social","Zero",4,"Safari",4,"Same",0,"Novel97",0,"Novel97",0,773,"silentLUshort",1,1,0,0,(Jul 13 2014 10:27:07),0,TRUE,FALSE,4,TRUE
"334","A1DLRYK94PT0LP","Jul 13 2014","10:27:07",14,"Short","Social","Zero",4,"Safari",4,"Same",0,"Novel97",2,"Novel97",0,232,"straightahead",-1,0,1,0,(Jul 13 2014 10:27:07),0,TRUE,FALSE,4,TRUE
"335","A1DLRYK94PT0LP","Jul 13 2014","10:27:07",15,"Short","Social","Zero",4,"Safari",5,"Switch",1,"Novel78",1,"Novel66",0,714,"silentRUshort",3,1,0,0,(Jul 13 2014 10:27:07),0,TRUE,FALSE,4,FALSE
"336","A1DLRYK94PT0LP","Jul 13 2014","10:27:07",16,"Short","Social","Zero",4,"Safari",5,"Switch",1,"Novel66",0,"Novel66",0,852,"straightahead",-1,0,1,0,(Jul 13 2014 10:27:07),0,TRUE,FALSE,4,TRUE
"337","A1DLRYK94PT0LP","Jul 13 2014","10:27:07",17,"Short","Social","Zero",4,"Safari",6,"Same",1,"Novel72",2,"Novel72",2,523,"silentLDshort",0,1,0,0,(Jul 13 2014 10:27:07),0,TRUE,FALSE,4,TRUE
"338","A1DLRYK94PT0LP","Jul 13 2014","10:27:07",18,"Short","Social","Zero",4,"Safari",6,"Same",1,"Novel72",2,"Novel72",2,230,"straightahead",-1,0,1,0,(Jul 13 2014 10:27:07),0,TRUE,FALSE,4,TRUE
"339","A1DLRYK94PT0LP","Jul 13 2014","10:27:07",19,"Short","Social","Zero",4,"Safari",7,"Switch",0,"Novel125",2,"Novel129",0,1093,"silentLDshort",0,1,0,0,(Jul 13 2014 10:27:07),0,TRUE,FALSE,4,FALSE
"340","A1DLRYK94PT0LP","Jul 13 2014","10:27:07",20,"Short","Social","Zero",4,"Safari",7,"Switch",0,"Novel129",2,"Novel129",0,279,"straightahead",-1,0,1,0,(Jul 13 2014 10:27:07),0,TRUE,FALSE,4,TRUE
"341","A1EDUAP3LASBJO","Jul 13 2014","09:45:00",1,"Short","Social","Zero",4,"Chrome",0,"Same",0,"squirrel",0,"",0,8300,"straightahead",-1,0,0,1,(Jul 13 2014 09:45:00),0,TRUE,FALSE,4,FALSE
"342","A1EDUAP3LASBJO","Jul 13 2014","09:45:00",2,"Short","Social","Zero",4,"Chrome",0,"Same",0,"squirrel",0,"",0,2075,"straightahead",-1,0,0,1,(Jul 13 2014 09:45:00),0,TRUE,FALSE,4,FALSE
"343","A1EDUAP3LASBJO","Jul 13 2014","09:45:00",3,"Short","Social","Zero",4,"Chrome",0,"Same",0,"tomato",1,"",0,1045,"straightahead",-1,0,0,1,(Jul 13 2014 09:45:00),0,TRUE,FALSE,4,FALSE
"344","A1EDUAP3LASBJO","Jul 13 2014","09:45:00",4,"Short","Social","Zero",4,"Chrome",0,"Same",0,"tomato",2,"",0,1183,"straightahead",-1,0,0,1,(Jul 13 2014 09:45:00),0,TRUE,FALSE,4,FALSE
"345","A1EDUAP3LASBJO","Jul 13 2014","09:45:00",5,"Short","Social","Zero",4,"Chrome",0,"Same",0,"Novel120",0,"Novel120",0,3870,"silentLUshort",1,1,0,0,(Jul 13 2014 09:45:00),0,TRUE,FALSE,4,TRUE
"346","A1EDUAP3LASBJO","Jul 13 2014","09:45:00",6,"Short","Social","Zero",4,"Chrome",0,"Same",0,"Novel120",1,"Novel120",0,4628,"straightahead",-1,0,1,0,(Jul 13 2014 09:45:00),0,TRUE,TRUE,4,TRUE
"347","A1EDUAP3LASBJO","Jul 13 2014","09:45:00",7,"Short","Social","Zero",4,"Chrome",1,"Switch",0,"Novel113",3,"Novel40",0,8717,"silentLDshort",0,1,0,0,(Jul 13 2014 09:45:00),0,TRUE,FALSE,4,FALSE
"348","A1EDUAP3LASBJO","Jul 13 2014","09:45:00",8,"Short","Social","Zero",4,"Chrome",1,"Switch",0,"Novel40",1,"Novel40",0,2719,"straightahead",-1,0,1,0,(Jul 13 2014 09:45:00),0,TRUE,FALSE,4,TRUE
"349","A1EDUAP3LASBJO","Jul 13 2014","09:45:00",9,"Short","Social","Zero",4,"Chrome",2,"Same",1,"Novel90",1,"Novel90",1,1509,"silentRDshort",2,1,0,0,(Jul 13 2014 09:45:00),0,TRUE,FALSE,4,TRUE
"350","A1EDUAP3LASBJO","Jul 13 2014","09:45:00",10,"Short","Social","Zero",4,"Chrome",2,"Same",1,"Novel90",1,"Novel90",1,893,"straightahead",-1,0,1,0,(Jul 13 2014 09:45:00),0,TRUE,FALSE,4,TRUE
"351","A1EDUAP3LASBJO","Jul 13 2014","09:45:00",11,"Short","Social","Zero",4,"Chrome",3,"Switch",1,"Novel56",0,"Novel54",3,750,"silentRDshort",2,1,0,0,(Jul 13 2014 09:45:00),0,TRUE,FALSE,4,FALSE
"352","A1EDUAP3LASBJO","Jul 13 2014","09:45:00",12,"Short","Social","Zero",4,"Chrome",3,"Switch",1,"Novel54",3,"Novel54",3,1084,"straightahead",-1,0,1,0,(Jul 13 2014 09:45:00),0,TRUE,FALSE,4,TRUE
"353","A1EDUAP3LASBJO","Jul 13 2014","09:45:00",13,"Short","Social","Zero",4,"Chrome",4,"Same",1,"Novel82",1,"Novel82",1,3110,"silentRDshort",2,1,0,0,(Jul 13 2014 09:45:00),0,TRUE,FALSE,4,TRUE
"354","A1EDUAP3LASBJO","Jul 13 2014","09:45:00",14,"Short","Social","Zero",4,"Chrome",4,"Same",1,"Novel82",1,"Novel82",1,637,"straightahead",-1,0,1,0,(Jul 13 2014 09:45:00),0,TRUE,FALSE,4,TRUE
"355","A1EDUAP3LASBJO","Jul 13 2014","09:45:00",15,"Short","Social","Zero",4,"Chrome",5,"Switch",0,"Novel64",2,"Novel8",3,975,"silentLDshort",0,1,0,0,(Jul 13 2014 09:45:00),0,TRUE,FALSE,4,FALSE
"356","A1EDUAP3LASBJO","Jul 13 2014","09:45:00",16,"Short","Social","Zero",4,"Chrome",5,"Switch",0,"Novel58",3,"Novel8",3,1708,"straightahead",-1,0,1,0,(Jul 13 2014 09:45:00),0,TRUE,FALSE,4,FALSE
"357","A1EDUAP3LASBJO","Jul 13 2014","09:45:00",17,"Short","Social","Zero",4,"Chrome",6,"Same",0,"Novel62",1,"Novel62",1,2549,"silentLUshort",1,1,0,0,(Jul 13 2014 09:45:00),0,TRUE,FALSE,4,TRUE
"358","A1EDUAP3LASBJO","Jul 13 2014","09:45:00",18,"Short","Social","Zero",4,"Chrome",6,"Same",0,"Novel62",2,"Novel62",1,750,"straightahead",-1,0,1,0,(Jul 13 2014 09:45:00),0,TRUE,FALSE,4,TRUE
"359","A1EDUAP3LASBJO","Jul 13 2014","09:45:00",19,"Short","Social","Zero",4,"Chrome",7,"Switch",1,"Novel36",2,"Novel108",1,5197,"silentRUshort",3,1,0,0,(Jul 13 2014 09:45:00),0,TRUE,FALSE,4,FALSE
"360","A1EDUAP3LASBJO","Jul 13 2014","09:45:00",20,"Short","Social","Zero",4,"Chrome",7,"Switch",1,"Novel108",1,"Novel108",1,125,"straightahead",-1,0,1,0,(Jul 13 2014 09:45:00),0,TRUE,FALSE,4,TRUE
"361","A1F163UE3EVGG8","Jul 13 2014","03:58:33",1,"Medium","Social","Zero",4,"Chrome",0,"Switch",0,"squirrel",0,"",0,155,"straightahead",-1,0,0,1,(Jul 13 2014 03:58:33),0,TRUE,FALSE,4,FALSE
"362","A1F163UE3EVGG8","Jul 13 2014","03:58:33",2,"Medium","Social","Zero",4,"Chrome",0,"Switch",0,"squirrel",0,"",0,1673,"straightahead",-1,0,0,1,(Jul 13 2014 03:58:33),0,TRUE,FALSE,4,FALSE
"363","A1F163UE3EVGG8","Jul 13 2014","03:58:33",3,"Medium","Social","Zero",4,"Chrome",0,"Switch",0,"tomato",1,"",0,1732,"straightahead",-1,0,0,1,(Jul 13 2014 03:58:33),0,TRUE,FALSE,4,FALSE
"364","A1F163UE3EVGG8","Jul 13 2014","03:58:33",4,"Medium","Social","Zero",4,"Chrome",0,"Switch",0,"tomato",2,"",0,241,"straightahead",-1,0,0,1,(Jul 13 2014 03:58:33),0,TRUE,FALSE,4,FALSE
"365","A1F163UE3EVGG8","Jul 13 2014","03:58:33",5,"Medium","Social","Zero",4,"Chrome",0,"Switch",0,"Novel75",2,"Novel87",0,587,"silentLDmedium",0,1,0,0,(Jul 13 2014 03:58:33),0,TRUE,FALSE,4,FALSE
"366","A1F163UE3EVGG8","Jul 13 2014","03:58:33",6,"Medium","Social","Zero",4,"Chrome",0,"Switch",0,"Novel58",1,"Novel87",0,2319,"straightahead",-1,0,1,0,(Jul 13 2014 03:58:33),0,TRUE,TRUE,4,FALSE
"367","A1F163UE3EVGG8","Jul 13 2014","03:58:33",7,"Medium","Social","Zero",4,"Chrome",1,"Same",0,"Novel45",0,"Novel45",0,418,"silentLUmedium",1,1,0,0,(Jul 13 2014 03:58:33),0,TRUE,FALSE,4,TRUE
"368","A1F163UE3EVGG8","Jul 13 2014","03:58:33",8,"Medium","Social","Zero",4,"Chrome",1,"Same",0,"Novel45",1,"Novel45",0,956,"straightahead",-1,0,1,0,(Jul 13 2014 03:58:33),0,TRUE,FALSE,4,TRUE
"369","A1F163UE3EVGG8","Jul 13 2014","03:58:33",9,"Medium","Social","Zero",4,"Chrome",2,"Switch",1,"Novel110",1,"Novel14",2,1437,"silentRUmedium",3,1,0,0,(Jul 13 2014 03:58:33),0,TRUE,FALSE,4,FALSE
"370","A1F163UE3EVGG8","Jul 13 2014","03:58:33",10,"Medium","Social","Zero",4,"Chrome",2,"Switch",1,"Novel134",1,"Novel14",2,5811,"straightahead",-1,0,1,0,(Jul 13 2014 03:58:33),0,TRUE,FALSE,4,FALSE
"371","A1F163UE3EVGG8","Jul 13 2014","03:58:33",11,"Medium","Social","Zero",4,"Chrome",3,"Same",1,"Novel41",2,"Novel41",2,216,"silentLDmedium",0,1,0,0,(Jul 13 2014 03:58:33),0,TRUE,FALSE,4,TRUE
"372","A1F163UE3EVGG8","Jul 13 2014","03:58:33",12,"Medium","Social","Zero",4,"Chrome",3,"Same",1,"Novel41",2,"Novel41",2,877,"straightahead",-1,0,1,0,(Jul 13 2014 03:58:33),0,TRUE,FALSE,4,TRUE
"373","A1F163UE3EVGG8","Jul 13 2014","03:58:33",13,"Medium","Social","Zero",4,"Chrome",4,"Switch",1,"Novel19",0,"Novel68",2,814,"silentLUmedium",1,1,0,0,(Jul 13 2014 03:58:33),0,TRUE,FALSE,4,FALSE
"374","A1F163UE3EVGG8","Jul 13 2014","03:58:33",14,"Medium","Social","Zero",4,"Chrome",4,"Switch",1,"Novel114",1,"Novel68",2,110,"straightahead",-1,0,1,0,(Jul 13 2014 03:58:33),0,TRUE,FALSE,4,FALSE
"375","A1F163UE3EVGG8","Jul 13 2014","03:58:33",15,"Medium","Social","Zero",4,"Chrome",5,"Same",1,"Novel135",1,"Novel135",1,225,"silentRUmedium",3,1,0,0,(Jul 13 2014 03:58:33),0,TRUE,FALSE,4,TRUE
"376","A1F163UE3EVGG8","Jul 13 2014","03:58:33",16,"Medium","Social","Zero",4,"Chrome",5,"Same",1,"Novel135",1,"Novel135",1,423,"straightahead",-1,0,1,0,(Jul 13 2014 03:58:33),0,TRUE,FALSE,4,TRUE
"377","A1F163UE3EVGG8","Jul 13 2014","03:58:33",17,"Medium","Social","Zero",4,"Chrome",6,"Switch",0,"Novel6",0,"Novel28",3,392,"silentLUmedium",1,1,0,0,(Jul 13 2014 03:58:33),0,TRUE,FALSE,4,FALSE
"378","A1F163UE3EVGG8","Jul 13 2014","03:58:33",18,"Medium","Social","Zero",4,"Chrome",6,"Switch",0,"Novel53",0,"Novel28",3,389,"straightahead",-1,0,1,0,(Jul 13 2014 03:58:33),0,TRUE,FALSE,4,FALSE
"379","A1F163UE3EVGG8","Jul 13 2014","03:58:33",19,"Medium","Social","Zero",4,"Chrome",7,"Same",0,"Novel60",0,"Novel60",0,175,"silentLUmedium",1,1,0,0,(Jul 13 2014 03:58:33),0,TRUE,FALSE,4,TRUE
"380","A1F163UE3EVGG8","Jul 13 2014","03:58:33",20,"Medium","Social","Zero",4,"Chrome",7,"Same",0,"Novel60",1,"Novel60",0,36,"straightahead",-1,0,1,0,(Jul 13 2014 03:58:33),0,TRUE,FALSE,4,TRUE
"381","A1FBBY2JJYRMRI","Jul 13 2014","10:30:33",1,"Short","Social","Zero",4,"Chrome",0,"Same",1,"squirrel",0,"",0,1839,"straightahead",-1,0,0,1,(Jul 13 2014 10:30:33),0,TRUE,FALSE,4,FALSE
"382","A1FBBY2JJYRMRI","Jul 13 2014","10:30:33",2,"Short","Social","Zero",4,"Chrome",0,"Same",1,"squirrel",0,"",0,1303,"straightahead",-1,0,0,1,(Jul 13 2014 10:30:33),0,TRUE,FALSE,4,FALSE
"383","A1FBBY2JJYRMRI","Jul 13 2014","10:30:33",3,"Short","Social","Zero",4,"Chrome",0,"Same",1,"tomato",1,"",0,523,"straightahead",-1,0,0,1,(Jul 13 2014 10:30:33),0,TRUE,FALSE,4,FALSE
"384","A1FBBY2JJYRMRI","Jul 13 2014","10:30:33",4,"Short","Social","Zero",4,"Chrome",0,"Same",1,"tomato",2,"",0,1577,"straightahead",-1,0,0,1,(Jul 13 2014 10:30:33),0,TRUE,FALSE,4,FALSE
"385","A1FBBY2JJYRMRI","Jul 13 2014","10:30:33",5,"Short","Social","Zero",4,"Chrome",0,"Same",1,"Novel37",3,"Novel37",3,890,"silentLUshort",1,1,0,0,(Jul 13 2014 10:30:33),0,TRUE,FALSE,4,TRUE
"386","A1FBBY2JJYRMRI","Jul 13 2014","10:30:33",6,"Short","Social","Zero",4,"Chrome",0,"Same",1,"Novel37",3,"Novel37",3,357,"straightahead",-1,0,1,0,(Jul 13 2014 10:30:33),0,TRUE,TRUE,4,TRUE
"387","A1FBBY2JJYRMRI","Jul 13 2014","10:30:33",7,"Short","Social","Zero",4,"Chrome",1,"Switch",1,"Novel54",1,"Novel29",0,460,"silentLUshort",1,1,0,0,(Jul 13 2014 10:30:33),0,TRUE,FALSE,4,FALSE
"388","A1FBBY2JJYRMRI","Jul 13 2014","10:30:33",8,"Short","Social","Zero",4,"Chrome",1,"Switch",1,"Novel29",0,"Novel29",0,312,"straightahead",-1,0,1,0,(Jul 13 2014 10:30:33),0,TRUE,FALSE,4,TRUE
"389","A1FBBY2JJYRMRI","Jul 13 2014","10:30:33",9,"Short","Social","Zero",4,"Chrome",2,"Same",0,"Novel94",2,"Novel94",2,1091,"silentRUshort",3,1,0,0,(Jul 13 2014 10:30:33),0,TRUE,FALSE,4,TRUE
"390","A1FBBY2JJYRMRI","Jul 13 2014","10:30:33",10,"Short","Social","Zero",4,"Chrome",2,"Same",0,"Novel94",1,"Novel94",2,661,"straightahead",-1,0,1,0,(Jul 13 2014 10:30:33),0,TRUE,FALSE,4,TRUE
"391","A1FBBY2JJYRMRI","Jul 13 2014","10:30:33",11,"Short","Social","Zero",4,"Chrome",3,"Switch",1,"Novel78",1,"Novel30",3,847,"silentLUshort",1,1,0,0,(Jul 13 2014 10:30:33),0,TRUE,FALSE,4,FALSE
"392","A1FBBY2JJYRMRI","Jul 13 2014","10:30:33",12,"Short","Social","Zero",4,"Chrome",3,"Switch",1,"Novel30",3,"Novel30",3,346,"straightahead",-1,0,1,0,(Jul 13 2014 10:30:33),0,TRUE,FALSE,4,TRUE
"393","A1FBBY2JJYRMRI","Jul 13 2014","10:30:33",13,"Short","Social","Zero",4,"Chrome",4,"Same",1,"Novel97",2,"Novel97",2,21,"silentRDshort",2,1,0,0,(Jul 13 2014 10:30:33),0,TRUE,FALSE,4,TRUE
"394","A1FBBY2JJYRMRI","Jul 13 2014","10:30:33",14,"Short","Social","Zero",4,"Chrome",4,"Same",1,"Novel97",2,"Novel97",2,655,"straightahead",-1,0,1,0,(Jul 13 2014 10:30:33),0,TRUE,FALSE,4,TRUE
"395","A1FBBY2JJYRMRI","Jul 13 2014","10:30:33",15,"Short","Social","Zero",4,"Chrome",5,"Switch",0,"Novel79",3,"Novel96",2,613,"silentRDshort",2,1,0,0,(Jul 13 2014 10:30:33),0,TRUE,FALSE,4,FALSE
"396","A1FBBY2JJYRMRI","Jul 13 2014","10:30:33",16,"Short","Social","Zero",4,"Chrome",5,"Switch",0,"Novel35",3,"Novel96",2,1882,"straightahead",-1,0,1,0,(Jul 13 2014 10:30:33),0,TRUE,FALSE,4,FALSE
"397","A1FBBY2JJYRMRI","Jul 13 2014","10:30:33",17,"Short","Social","Zero",4,"Chrome",6,"Same",0,"Novel14",0,"Novel14",0,460,"silentLDshort",0,1,0,0,(Jul 13 2014 10:30:33),0,TRUE,FALSE,4,TRUE
"398","A1FBBY2JJYRMRI","Jul 13 2014","10:30:33",18,"Short","Social","Zero",4,"Chrome",6,"Same",0,"Novel14",1,"Novel14",0,173,"straightahead",-1,0,1,0,(Jul 13 2014 10:30:33),0,TRUE,FALSE,4,TRUE
"399","A1FBBY2JJYRMRI","Jul 13 2014","10:30:33",19,"Short","Social","Zero",4,"Chrome",7,"Switch",0,"Novel119",2,"Novel18",3,287,"silentRUshort",3,1,0,0,(Jul 13 2014 10:30:33),0,TRUE,FALSE,4,FALSE
"400","A1FBBY2JJYRMRI","Jul 13 2014","10:30:33",20,"Short","Social","Zero",4,"Chrome",7,"Switch",0,"Novel18",2,"Novel18",3,481,"straightahead",-1,0,1,0,(Jul 13 2014 10:30:33),0,TRUE,FALSE,4,TRUE
"401","A1GI69GPSRNZQV","Jul 13 2014","09:24:09",1,"Medium","Social","Zero",4,"Chrome",0,"Same",1,"squirrel",0,"",0,762,"straightahead",-1,0,0,1,(Jul 13 2014 09:24:09),0,TRUE,FALSE,4,FALSE
"402","A1GI69GPSRNZQV","Jul 13 2014","09:24:09",2,"Medium","Social","Zero",4,"Chrome",0,"Same",1,"squirrel",0,"",0,2361,"straightahead",-1,0,0,1,(Jul 13 2014 09:24:09),0,TRUE,FALSE,4,FALSE
"403","A1GI69GPSRNZQV","Jul 13 2014","09:24:09",3,"Medium","Social","Zero",4,"Chrome",0,"Same",1,"tomato",1,"",0,5,"straightahead",-1,0,0,1,(Jul 13 2014 09:24:09),0,TRUE,FALSE,4,FALSE
"404","A1GI69GPSRNZQV","Jul 13 2014","09:24:09",4,"Medium","Social","Zero",4,"Chrome",0,"Same",1,"tomato",2,"",0,16,"straightahead",-1,0,0,1,(Jul 13 2014 09:24:09),0,TRUE,FALSE,4,FALSE
"405","A1GI69GPSRNZQV","Jul 13 2014","09:24:09",5,"Medium","Social","Zero",4,"Chrome",0,"Same",1,"Novel89",3,"Novel89",3,56,"silentRDmedium",2,1,0,0,(Jul 13 2014 09:24:09),0,TRUE,FALSE,4,TRUE
"406","A1GI69GPSRNZQV","Jul 13 2014","09:24:09",6,"Medium","Social","Zero",4,"Chrome",0,"Same",1,"Novel89",3,"Novel89",3,114,"straightahead",-1,0,1,0,(Jul 13 2014 09:24:09),0,TRUE,TRUE,4,TRUE
"407","A1GI69GPSRNZQV","Jul 13 2014","09:24:09",7,"Medium","Social","Zero",4,"Chrome",1,"Switch",1,"Novel59",2,"Novel38",1,102,"silentLDmedium",0,1,0,0,(Jul 13 2014 09:24:09),0,TRUE,FALSE,4,FALSE
"408","A1GI69GPSRNZQV","Jul 13 2014","09:24:09",8,"Medium","Social","Zero",4,"Chrome",1,"Switch",1,"Novel38",1,"Novel38",1,2856,"straightahead",-1,0,1,0,(Jul 13 2014 09:24:09),0,TRUE,FALSE,4,TRUE
"409","A1GI69GPSRNZQV","Jul 13 2014","09:24:09",9,"Medium","Social","Zero",4,"Chrome",2,"Same",0,"Novel84",3,"Novel84",3,18,"silentRDmedium",2,1,0,0,(Jul 13 2014 09:24:09),0,TRUE,FALSE,4,TRUE
"410","A1GI69GPSRNZQV","Jul 13 2014","09:24:09",10,"Medium","Social","Zero",4,"Chrome",2,"Same",0,"Novel84",1,"Novel84",3,40,"straightahead",-1,0,1,0,(Jul 13 2014 09:24:09),0,TRUE,FALSE,4,TRUE
"411","A1GI69GPSRNZQV","Jul 13 2014","09:24:09",11,"Medium","Social","Zero",4,"Chrome",3,"Switch",0,"Novel115",3,"Novel29",0,115,"silentRDmedium",2,1,0,0,(Jul 13 2014 09:24:09),0,TRUE,FALSE,4,FALSE
"412","A1GI69GPSRNZQV","Jul 13 2014","09:24:09",12,"Medium","Social","Zero",4,"Chrome",3,"Switch",0,"Novel85",0,"Novel29",0,101,"straightahead",-1,0,1,0,(Jul 13 2014 09:24:09),0,TRUE,FALSE,4,FALSE
"413","A1GI69GPSRNZQV","Jul 13 2014","09:24:09",13,"Medium","Social","Zero",4,"Chrome",4,"Same",0,"Novel130",1,"Novel130",1,105,"silentRUmedium",3,1,0,0,(Jul 13 2014 09:24:09),0,TRUE,FALSE,4,TRUE
"414","A1GI69GPSRNZQV","Jul 13 2014","09:24:09",14,"Medium","Social","Zero",4,"Chrome",4,"Same",0,"Novel130",0,"Novel130",1,103,"straightahead",-1,0,1,0,(Jul 13 2014 09:24:09),0,TRUE,FALSE,4,TRUE
"415","A1GI69GPSRNZQV","Jul 13 2014","09:24:09",15,"Medium","Social","Zero",4,"Chrome",5,"Switch",1,"Novel73",1,"Novel16",3,270,"silentLDmedium",0,1,0,0,(Jul 13 2014 09:24:09),0,TRUE,FALSE,4,FALSE
"416","A1GI69GPSRNZQV","Jul 13 2014","09:24:09",16,"Medium","Social","Zero",4,"Chrome",5,"Switch",1,"Novel56",2,"Novel16",3,71,"straightahead",-1,0,1,0,(Jul 13 2014 09:24:09),0,TRUE,FALSE,4,FALSE
"417","A1GI69GPSRNZQV","Jul 13 2014","09:24:09",17,"Medium","Social","Zero",4,"Chrome",6,"Same",1,"Novel102",3,"Novel102",3,165,"silentRDmedium",2,1,0,0,(Jul 13 2014 09:24:09),0,TRUE,FALSE,4,TRUE
"418","A1GI69GPSRNZQV","Jul 13 2014","09:24:09",18,"Medium","Social","Zero",4,"Chrome",6,"Same",1,"Novel102",3,"Novel102",3,283,"straightahead",-1,0,1,0,(Jul 13 2014 09:24:09),0,TRUE,FALSE,4,TRUE
"419","A1GI69GPSRNZQV","Jul 13 2014","09:24:09",19,"Medium","Social","Zero",4,"Chrome",7,"Switch",0,"Novel63",3,"Novel53",1,131,"silentLDmedium",0,1,0,0,(Jul 13 2014 09:24:09),0,TRUE,FALSE,4,FALSE
"420","A1GI69GPSRNZQV","Jul 13 2014","09:24:09",20,"Medium","Social","Zero",4,"Chrome",7,"Switch",0,"Novel53",2,"Novel53",1,27,"straightahead",-1,0,1,0,(Jul 13 2014 09:24:09),0,TRUE,FALSE,4,TRUE
"421","A1GKTC682SWY23","Jul 13 2014","04:59:06",1,"Medium","Social","Zero",4,"Chrome",0,"Same",1,"squirrel",0,"",0,29,"straightahead",-1,0,0,1,(Jul 13 2014 04:59:06),0,TRUE,FALSE,4,FALSE
"422","A1GKTC682SWY23","Jul 13 2014","04:59:06",2,"Medium","Social","Zero",4,"Chrome",0,"Same",1,"squirrel",0,"",0,538,"straightahead",-1,0,0,1,(Jul 13 2014 04:59:06),0,TRUE,FALSE,4,FALSE
"423","A1GKTC682SWY23","Jul 13 2014","04:59:06",3,"Medium","Social","Zero",4,"Chrome",0,"Same",1,"tomato",1,"",0,731,"straightahead",-1,0,0,1,(Jul 13 2014 04:59:06),0,TRUE,FALSE,4,FALSE
"424","A1GKTC682SWY23","Jul 13 2014","04:59:06",4,"Medium","Social","Zero",4,"Chrome",0,"Same",1,"tomato",2,"",0,281,"straightahead",-1,0,0,1,(Jul 13 2014 04:59:06),0,TRUE,FALSE,4,FALSE
"425","A1GKTC682SWY23","Jul 13 2014","04:59:06",5,"Medium","Social","Zero",4,"Chrome",0,"Same",1,"Novel35",0,"Novel35",0,249,"silentLUmedium",1,1,0,0,(Jul 13 2014 04:59:06),0,TRUE,FALSE,4,TRUE
"426","A1GKTC682SWY23","Jul 13 2014","04:59:06",6,"Medium","Social","Zero",4,"Chrome",0,"Same",1,"Novel35",0,"Novel35",0,1793,"straightahead",-1,0,1,0,(Jul 13 2014 04:59:06),0,TRUE,TRUE,4,TRUE
"427","A1GKTC682SWY23","Jul 13 2014","04:59:06",7,"Medium","Social","Zero",4,"Chrome",1,"Switch",1,"Novel133",3,"Novel33",1,222,"silentRDmedium",2,1,0,0,(Jul 13 2014 04:59:06),0,TRUE,FALSE,4,FALSE
"428","A1GKTC682SWY23","Jul 13 2014","04:59:06",8,"Medium","Social","Zero",4,"Chrome",1,"Switch",1,"Novel120",3,"Novel33",1,633,"straightahead",-1,0,1,0,(Jul 13 2014 04:59:06),0,TRUE,FALSE,4,FALSE
"429","A1GKTC682SWY23","Jul 13 2014","04:59:06",9,"Medium","Social","Zero",4,"Chrome",2,"Same",0,"Novel18",1,"Novel18",1,620,"silentRUmedium",3,1,0,0,(Jul 13 2014 04:59:06),0,TRUE,FALSE,4,TRUE
"430","A1GKTC682SWY23","Jul 13 2014","04:59:06",10,"Medium","Social","Zero",4,"Chrome",2,"Same",0,"Novel58",1,"Novel18",1,219,"straightahead",-1,0,1,0,(Jul 13 2014 04:59:06),0,TRUE,FALSE,4,FALSE
"431","A1GKTC682SWY23","Jul 13 2014","04:59:06",11,"Medium","Social","Zero",4,"Chrome",3,"Switch",1,"Novel122",1,"Novel38",3,137,"silentRUmedium",3,1,0,0,(Jul 13 2014 04:59:06),0,TRUE,FALSE,4,FALSE
"432","A1GKTC682SWY23","Jul 13 2014","04:59:06",12,"Medium","Social","Zero",4,"Chrome",3,"Switch",1,"Novel86",2,"Novel38",3,372,"straightahead",-1,0,1,0,(Jul 13 2014 04:59:06),0,TRUE,FALSE,4,FALSE
"433","A1GKTC682SWY23","Jul 13 2014","04:59:06",13,"Medium","Social","Zero",4,"Chrome",4,"Same",0,"Novel6",0,"Novel6",0,377,"silentLUmedium",1,1,0,0,(Jul 13 2014 04:59:06),0,TRUE,FALSE,4,TRUE
"434","A1GKTC682SWY23","Jul 13 2014","04:59:06",14,"Medium","Social","Zero",4,"Chrome",4,"Same",0,"Novel6",1,"Novel6",0,337,"straightahead",-1,0,1,0,(Jul 13 2014 04:59:06),0,TRUE,FALSE,4,TRUE
"435","A1GKTC682SWY23","Jul 13 2014","04:59:06",15,"Medium","Social","Zero",4,"Chrome",5,"Switch",0,"Novel44",1,"Novel28",2,587,"silentRUmedium",3,1,0,0,(Jul 13 2014 04:59:06),0,TRUE,FALSE,4,FALSE
"436","A1GKTC682SWY23","Jul 13 2014","04:59:06",16,"Medium","Social","Zero",4,"Chrome",5,"Switch",0,"Novel100",2,"Novel28",2,494,"straightahead",-1,0,1,0,(Jul 13 2014 04:59:06),0,TRUE,FALSE,4,FALSE
"437","A1GKTC682SWY23","Jul 13 2014","04:59:06",17,"Medium","Social","Zero",4,"Chrome",6,"Same",1,"Novel91",1,"Novel91",1,775,"silentRUmedium",3,1,0,0,(Jul 13 2014 04:59:06),0,TRUE,FALSE,4,TRUE
"438","A1GKTC682SWY23","Jul 13 2014","04:59:06",18,"Medium","Social","Zero",4,"Chrome",6,"Same",1,"Novel91",1,"Novel91",1,102,"straightahead",-1,0,1,0,(Jul 13 2014 04:59:06),0,TRUE,FALSE,4,TRUE
"439","A1GKTC682SWY23","Jul 13 2014","04:59:06",19,"Medium","Social","Zero",4,"Chrome",7,"Switch",0,"Novel34",2,"Novel70",0,601,"silentLDmedium",0,1,0,0,(Jul 13 2014 04:59:06),0,TRUE,FALSE,4,FALSE
"440","A1GKTC682SWY23","Jul 13 2014","04:59:06",20,"Medium","Social","Zero",4,"Chrome",7,"Switch",0,"Novel116",2,"Novel70",0,635,"straightahead",-1,0,1,0,(Jul 13 2014 04:59:06),0,TRUE,FALSE,4,FALSE
"441","A1GQAD69JTXC9C","Jul 13 2014","09:50:18",1,"Long","Social","Zero",4,"Chrome",0,"Same",1,"squirrel",0,"",0,5078,"straightahead",-1,0,0,1,(Jul 13 2014 09:50:18),0,TRUE,FALSE,4,FALSE
"442","A1GQAD69JTXC9C","Jul 13 2014","09:50:18",2,"Long","Social","Zero",4,"Chrome",0,"Same",1,"squirrel",0,"",0,3275,"straightahead",-1,0,0,1,(Jul 13 2014 09:50:18),0,TRUE,FALSE,4,FALSE
"443","A1GQAD69JTXC9C","Jul 13 2014","09:50:18",3,"Long","Social","Zero",4,"Chrome",0,"Same",1,"tomato",1,"",0,768,"straightahead",-1,0,0,1,(Jul 13 2014 09:50:18),0,TRUE,FALSE,4,FALSE
"444","A1GQAD69JTXC9C","Jul 13 2014","09:50:18",4,"Long","Social","Zero",4,"Chrome",0,"Same",1,"tomato",2,"",0,7634,"straightahead",-1,0,0,1,(Jul 13 2014 09:50:18),0,TRUE,FALSE,4,FALSE
"445","A1GQAD69JTXC9C","Jul 13 2014","09:50:18",5,"Long","Social","Zero",4,"Chrome",0,"Same",1,"Novel18",1,"Novel18",1,6198,"silentRUlong",3,1,0,0,(Jul 13 2014 09:50:18),0,TRUE,FALSE,4,TRUE
"446","A1GQAD69JTXC9C","Jul 13 2014","09:50:18",6,"Long","Social","Zero",4,"Chrome",0,"Same",1,"Novel18",1,"Novel18",1,2387,"straightahead",-1,0,1,0,(Jul 13 2014 09:50:18),0,TRUE,TRUE,4,TRUE
"447","A1GQAD69JTXC9C","Jul 13 2014","09:50:18",7,"Long","Social","Zero",4,"Chrome",1,"Switch",0,"Novel138",0,"Novel38",1,286,"silentLUlong",1,1,0,0,(Jul 13 2014 09:50:18),0,TRUE,FALSE,4,FALSE
"448","A1GQAD69JTXC9C","Jul 13 2014","09:50:18",8,"Long","Social","Zero",4,"Chrome",1,"Switch",0,"Novel72",1,"Novel38",1,4481,"straightahead",-1,0,1,0,(Jul 13 2014 09:50:18),0,TRUE,FALSE,4,FALSE
"449","A1GQAD69JTXC9C","Jul 13 2014","09:50:18",9,"Long","Social","Zero",4,"Chrome",2,"Same",0,"Novel139",1,"Novel139",1,1927,"silentLUlong",1,1,0,0,(Jul 13 2014 09:50:18),0,TRUE,FALSE,4,TRUE
"450","A1GQAD69JTXC9C","Jul 13 2014","09:50:18",10,"Long","Social","Zero",4,"Chrome",2,"Same",0,"Novel139",0,"Novel139",1,912,"straightahead",-1,0,1,0,(Jul 13 2014 09:50:18),0,TRUE,FALSE,4,TRUE
"451","A1GQAD69JTXC9C","Jul 13 2014","09:50:18",11,"Long","Social","Zero",4,"Chrome",3,"Switch",1,"Novel17",2,"Novel22",0,7948,"silentLUlong",1,1,0,0,(Jul 13 2014 09:50:18),0,TRUE,FALSE,4,FALSE
"452","A1GQAD69JTXC9C","Jul 13 2014","09:50:18",12,"Long","Social","Zero",4,"Chrome",3,"Switch",1,"Novel22",0,"Novel22",0,5906,"straightahead",-1,0,1,0,(Jul 13 2014 09:50:18),0,TRUE,FALSE,4,TRUE
"453","A1GQAD69JTXC9C","Jul 13 2014","09:50:18",13,"Long","Social","Zero",4,"Chrome",4,"Same",1,"Novel94",2,"Novel94",2,1955,"silentLUlong",1,1,0,0,(Jul 13 2014 09:50:18),0,TRUE,FALSE,4,TRUE
"454","A1GQAD69JTXC9C","Jul 13 2014","09:50:18",14,"Long","Social","Zero",4,"Chrome",4,"Same",1,"Novel94",2,"Novel94",2,684,"straightahead",-1,0,1,0,(Jul 13 2014 09:50:18),0,TRUE,FALSE,4,TRUE
"455","A1GQAD69JTXC9C","Jul 13 2014","09:50:18",15,"Long","Social","Zero",4,"Chrome",5,"Switch",0,"Novel14",2,"Novel3",1,2462,"silentRDlong",2,1,0,0,(Jul 13 2014 09:50:18),0,TRUE,FALSE,4,FALSE
"456","A1GQAD69JTXC9C","Jul 13 2014","09:50:18",16,"Long","Social","Zero",4,"Chrome",5,"Switch",0,"Novel3",2,"Novel3",1,976,"straightahead",-1,0,1,0,(Jul 13 2014 09:50:18),0,TRUE,FALSE,4,TRUE
"457","A1GQAD69JTXC9C","Jul 13 2014","09:50:18",17,"Long","Social","Zero",4,"Chrome",6,"Same",0,"Novel10",3,"Novel10",3,300,"silentRUlong",3,1,0,0,(Jul 13 2014 09:50:18),0,TRUE,FALSE,4,TRUE
"458","A1GQAD69JTXC9C","Jul 13 2014","09:50:18",18,"Long","Social","Zero",4,"Chrome",6,"Same",0,"Novel10",2,"Novel10",3,413,"straightahead",-1,0,1,0,(Jul 13 2014 09:50:18),0,TRUE,FALSE,4,TRUE
"459","A1GQAD69JTXC9C","Jul 13 2014","09:50:18",19,"Long","Social","Zero",4,"Chrome",7,"Switch",1,"Novel13",1,"Novel30",3,3764,"silentLUlong",1,1,0,0,(Jul 13 2014 09:50:18),0,TRUE,FALSE,4,FALSE
"460","A1GQAD69JTXC9C","Jul 13 2014","09:50:18",20,"Long","Social","Zero",4,"Chrome",7,"Switch",1,"Novel30",3,"Novel30",3,1594,"straightahead",-1,0,1,0,(Jul 13 2014 09:50:18),0,TRUE,FALSE,4,TRUE
"461","A1H11P4QSM08Y1","Jul 13 2014","09:43:41",1,"Medium","Social","Zero",4,"Chrome",0,"Switch",0,"squirrel",0,"",0,471,"straightahead",-1,0,0,1,(Jul 13 2014 09:43:41),0,TRUE,FALSE,4,FALSE
"462","A1H11P4QSM08Y1","Jul 13 2014","09:43:41",2,"Medium","Social","Zero",4,"Chrome",0,"Switch",0,"squirrel",0,"",0,2072,"straightahead",-1,0,0,1,(Jul 13 2014 09:43:41),0,TRUE,FALSE,4,FALSE
"463","A1H11P4QSM08Y1","Jul 13 2014","09:43:41",3,"Medium","Social","Zero",4,"Chrome",0,"Switch",0,"tomato",1,"",0,373,"straightahead",-1,0,0,1,(Jul 13 2014 09:43:41),0,TRUE,FALSE,4,FALSE
"464","A1H11P4QSM08Y1","Jul 13 2014","09:43:41",4,"Medium","Social","Zero",4,"Chrome",0,"Switch",0,"tomato",2,"",0,126,"straightahead",-1,0,0,1,(Jul 13 2014 09:43:41),0,TRUE,FALSE,4,FALSE
"465","A1H11P4QSM08Y1","Jul 13 2014","09:43:41",5,"Medium","Social","Zero",4,"Chrome",0,"Switch",0,"Novel100",1,"Novel26",3,372,"silentRUmedium",3,1,0,0,(Jul 13 2014 09:43:41),0,TRUE,FALSE,4,FALSE
"466","A1H11P4QSM08Y1","Jul 13 2014","09:43:41",6,"Medium","Social","Zero",4,"Chrome",0,"Switch",0,"Novel26",1,"Novel26",3,509,"straightahead",-1,0,1,0,(Jul 13 2014 09:43:41),0,TRUE,TRUE,4,TRUE
"467","A1H11P4QSM08Y1","Jul 13 2014","09:43:41",7,"Medium","Social","Zero",4,"Chrome",1,"Same",1,"Novel29",3,"Novel29",3,13,"silentRDmedium",2,1,0,0,(Jul 13 2014 09:43:41),0,TRUE,FALSE,4,TRUE
"468","A1H11P4QSM08Y1","Jul 13 2014","09:43:41",8,"Medium","Social","Zero",4,"Chrome",1,"Same",1,"Novel29",3,"Novel29",3,180,"straightahead",-1,0,1,0,(Jul 13 2014 09:43:41),0,TRUE,FALSE,4,TRUE
"469","A1H11P4QSM08Y1","Jul 13 2014","09:43:41",9,"Medium","Social","Zero",4,"Chrome",2,"Switch",0,"Novel6",3,"Novel61",2,69,"silentRDmedium",2,1,0,0,(Jul 13 2014 09:43:41),0,TRUE,FALSE,4,FALSE
"470","A1H11P4QSM08Y1","Jul 13 2014","09:43:41",10,"Medium","Social","Zero",4,"Chrome",2,"Switch",0,"Novel61",3,"Novel61",2,852,"straightahead",-1,0,1,0,(Jul 13 2014 09:43:41),0,TRUE,FALSE,4,TRUE
"471","A1H11P4QSM08Y1","Jul 13 2014","09:43:41",11,"Medium","Social","Zero",4,"Chrome",3,"Same",0,"Novel96",3,"Novel96",3,444,"silentRDmedium",2,1,0,0,(Jul 13 2014 09:43:41),0,TRUE,FALSE,4,TRUE
"472","A1H11P4QSM08Y1","Jul 13 2014","09:43:41",12,"Medium","Social","Zero",4,"Chrome",3,"Same",0,"Novel96",0,"Novel96",3,356,"straightahead",-1,0,1,0,(Jul 13 2014 09:43:41),0,TRUE,FALSE,4,TRUE
"473","A1H11P4QSM08Y1","Jul 13 2014","09:43:41",13,"Medium","Social","Zero",4,"Chrome",4,"Switch",1,"Novel17",0,"Novel106",2,902,"silentLUmedium",1,1,0,0,(Jul 13 2014 09:43:41),0,TRUE,FALSE,4,FALSE
"474","A1H11P4QSM08Y1","Jul 13 2014","09:43:41",14,"Medium","Social","Zero",4,"Chrome",4,"Switch",1,"Novel85",0,"Novel106",2,94,"straightahead",-1,0,1,0,(Jul 13 2014 09:43:41),0,TRUE,FALSE,4,FALSE
"475","A1H11P4QSM08Y1","Jul 13 2014","09:43:41",15,"Medium","Social","Zero",4,"Chrome",5,"Same",0,"Novel78",2,"Novel78",2,508,"silentLDmedium",0,1,0,0,(Jul 13 2014 09:43:41),0,TRUE,FALSE,4,TRUE
"476","A1H11P4QSM08Y1","Jul 13 2014","09:43:41",16,"Medium","Social","Zero",4,"Chrome",5,"Same",0,"Novel43",2,"Novel78",2,462,"straightahead",-1,0,1,0,(Jul 13 2014 09:43:41),0,TRUE,FALSE,4,FALSE
"477","A1H11P4QSM08Y1","Jul 13 2014","09:43:41",17,"Medium","Social","Zero",4,"Chrome",6,"Switch",1,"Novel66",3,"Novel31",0,213,"silentRDmedium",2,1,0,0,(Jul 13 2014 09:43:41),0,TRUE,FALSE,4,FALSE
"478","A1H11P4QSM08Y1","Jul 13 2014","09:43:41",18,"Medium","Social","Zero",4,"Chrome",6,"Switch",1,"Novel131",3,"Novel31",0,45,"straightahead",-1,0,1,0,(Jul 13 2014 09:43:41),0,TRUE,FALSE,4,FALSE
"479","A1H11P4QSM08Y1","Jul 13 2014","09:43:41",19,"Medium","Social","Zero",4,"Chrome",7,"Same",1,"Novel138",2,"Novel138",2,543,"silentLDmedium",0,1,0,0,(Jul 13 2014 09:43:41),0,TRUE,FALSE,4,TRUE
"480","A1H11P4QSM08Y1","Jul 13 2014","09:43:41",20,"Medium","Social","Zero",4,"Chrome",7,"Same",1,"Novel138",2,"Novel138",2,645,"straightahead",-1,0,1,0,(Jul 13 2014 09:43:41),0,TRUE,FALSE,4,TRUE
"481","A1J4MCCVJF9KFN","Jul 13 2014","09:21:07",1,"Short","Social","Zero",4,"Chrome",0,"Switch",0,"squirrel",0,"",0,2484,"straightahead",-1,0,0,1,(Jul 13 2014 09:21:07),0,TRUE,FALSE,4,FALSE
"482","A1J4MCCVJF9KFN","Jul 13 2014","09:21:07",2,"Short","Social","Zero",4,"Chrome",0,"Switch",0,"squirrel",0,"",0,1776,"straightahead",-1,0,0,1,(Jul 13 2014 09:21:07),0,TRUE,FALSE,4,FALSE
"483","A1J4MCCVJF9KFN","Jul 13 2014","09:21:07",3,"Short","Social","Zero",4,"Chrome",0,"Switch",0,"tomato",1,"",0,866,"straightahead",-1,0,0,1,(Jul 13 2014 09:21:07),0,TRUE,FALSE,4,FALSE
"484","A1J4MCCVJF9KFN","Jul 13 2014","09:21:07",4,"Short","Social","Zero",4,"Chrome",0,"Switch",0,"tomato",2,"",0,734,"straightahead",-1,0,0,1,(Jul 13 2014 09:21:07),0,TRUE,FALSE,4,FALSE
"485","A1J4MCCVJF9KFN","Jul 13 2014","09:21:07",5,"Short","Social","Zero",4,"Chrome",0,"Switch",0,"Novel128",0,"Novel24",1,1695,"silentLUshort",1,1,0,0,(Jul 13 2014 09:21:07),0,TRUE,FALSE,4,FALSE
"486","A1J4MCCVJF9KFN","Jul 13 2014","09:21:07",6,"Short","Social","Zero",4,"Chrome",0,"Switch",0,"Novel24",2,"Novel24",1,216,"straightahead",-1,0,1,0,(Jul 13 2014 09:21:07),0,TRUE,TRUE,4,TRUE
"487","A1J4MCCVJF9KFN","Jul 13 2014","09:21:07",7,"Short","Social","Zero",4,"Chrome",1,"Same",1,"Novel136",1,"Novel136",1,318,"silentRUshort",3,1,0,0,(Jul 13 2014 09:21:07),0,TRUE,FALSE,4,TRUE
"488","A1J4MCCVJF9KFN","Jul 13 2014","09:21:07",8,"Short","Social","Zero",4,"Chrome",1,"Same",1,"Novel136",1,"Novel136",1,462,"straightahead",-1,0,1,0,(Jul 13 2014 09:21:07),0,TRUE,FALSE,4,TRUE
"489","A1J4MCCVJF9KFN","Jul 13 2014","09:21:07",9,"Short","Social","Zero",4,"Chrome",2,"Switch",1,"Novel56",2,"Novel46",0,391,"silentLDshort",0,1,0,0,(Jul 13 2014 09:21:07),0,TRUE,FALSE,4,FALSE
"490","A1J4MCCVJF9KFN","Jul 13 2014","09:21:07",10,"Short","Social","Zero",4,"Chrome",2,"Switch",1,"Novel117",2,"Novel46",0,3304,"straightahead",-1,0,1,0,(Jul 13 2014 09:21:07),0,TRUE,FALSE,4,FALSE
"491","A1J4MCCVJF9KFN","Jul 13 2014","09:21:07",11,"Short","Social","Zero",4,"Chrome",3,"Same",1,"Novel88",2,"Novel88",2,685,"silentLDshort",0,1,0,0,(Jul 13 2014 09:21:07),0,TRUE,FALSE,4,TRUE
"492","A1J4MCCVJF9KFN","Jul 13 2014","09:21:07",12,"Short","Social","Zero",4,"Chrome",3,"Same",1,"Novel88",2,"Novel88",2,37,"straightahead",-1,0,1,0,(Jul 13 2014 09:21:07),0,TRUE,FALSE,4,TRUE
"493","A1J4MCCVJF9KFN","Jul 13 2014","09:21:07",13,"Short","Social","Zero",4,"Chrome",4,"Switch",0,"Novel82",2,"Novel65",1,474,"silentLDshort",0,1,0,0,(Jul 13 2014 09:21:07),0,TRUE,FALSE,4,FALSE
"494","A1J4MCCVJF9KFN","Jul 13 2014","09:21:07",14,"Short","Social","Zero",4,"Chrome",4,"Switch",0,"Novel54",2,"Novel65",1,1268,"straightahead",-1,0,1,0,(Jul 13 2014 09:21:07),0,TRUE,FALSE,4,FALSE
"495","A1J4MCCVJF9KFN","Jul 13 2014","09:21:07",15,"Short","Social","Zero",4,"Chrome",5,"Same",0,"Novel107",1,"Novel107",1,711,"silentRUshort",3,1,0,0,(Jul 13 2014 09:21:07),0,TRUE,FALSE,4,TRUE
"496","A1J4MCCVJF9KFN","Jul 13 2014","09:21:07",16,"Short","Social","Zero",4,"Chrome",5,"Same",0,"Novel107",2,"Novel107",1,882,"straightahead",-1,0,1,0,(Jul 13 2014 09:21:07),0,TRUE,FALSE,4,TRUE
"497","A1J4MCCVJF9KFN","Jul 13 2014","09:21:07",17,"Short","Social","Zero",4,"Chrome",6,"Switch",1,"Novel78",3,"Novel19",1,899,"silentRDshort",2,1,0,0,(Jul 13 2014 09:21:07),0,TRUE,FALSE,4,FALSE
"498","A1J4MCCVJF9KFN","Jul 13 2014","09:21:07",18,"Short","Social","Zero",4,"Chrome",6,"Switch",1,"Novel92",2,"Novel19",1,793,"straightahead",-1,0,1,0,(Jul 13 2014 09:21:07),0,TRUE,FALSE,4,FALSE
"499","A1J4MCCVJF9KFN","Jul 13 2014","09:21:07",19,"Short","Social","Zero",4,"Chrome",7,"Same",0,"Novel99",1,"Novel99",1,239,"silentRUshort",3,1,0,0,(Jul 13 2014 09:21:07),0,TRUE,FALSE,4,TRUE
"500","A1J4MCCVJF9KFN","Jul 13 2014","09:21:07",20,"Short","Social","Zero",4,"Chrome",7,"Same",0,"Novel99",2,"Novel99",1,407,"straightahead",-1,0,1,0,(Jul 13 2014 09:21:07),0,TRUE,FALSE,4,TRUE
"501","A1KS9OHP5553CF","Jul 13 2014","10:37:46",1,"Medium","Social","Zero",4,"Chrome",0,"Same",1,"squirrel",0,"",0,877,"straightahead",-1,0,0,1,(Jul 13 2014 10:37:46),0,TRUE,FALSE,4,FALSE
"502","A1KS9OHP5553CF","Jul 13 2014","10:37:46",2,"Medium","Social","Zero",4,"Chrome",0,"Same",1,"squirrel",0,"",0,1547,"straightahead",-1,0,0,1,(Jul 13 2014 10:37:46),0,TRUE,FALSE,4,FALSE
"503","A1KS9OHP5553CF","Jul 13 2014","10:37:46",3,"Medium","Social","Zero",4,"Chrome",0,"Same",1,"tomato",1,"",0,43,"straightahead",-1,0,0,1,(Jul 13 2014 10:37:46),0,TRUE,FALSE,4,FALSE
"504","A1KS9OHP5553CF","Jul 13 2014","10:37:46",4,"Medium","Social","Zero",4,"Chrome",0,"Same",1,"tomato",2,"",0,1578,"straightahead",-1,0,0,1,(Jul 13 2014 10:37:46),0,TRUE,FALSE,4,FALSE
"505","A1KS9OHP5553CF","Jul 13 2014","10:37:46",5,"Medium","Social","Zero",4,"Chrome",0,"Same",1,"Novel106",3,"Novel106",3,1626,"silentRDmedium",2,1,0,0,(Jul 13 2014 10:37:46),0,TRUE,FALSE,4,TRUE
"506","A1KS9OHP5553CF","Jul 13 2014","10:37:46",6,"Medium","Social","Zero",4,"Chrome",0,"Same",1,"Novel106",3,"Novel106",3,1205,"straightahead",-1,0,1,0,(Jul 13 2014 10:37:46),0,TRUE,TRUE,4,TRUE
"507","A1KS9OHP5553CF","Jul 13 2014","10:37:46",7,"Medium","Social","Zero",4,"Chrome",1,"Switch",0,"Novel6",2,"Novel138",1,1858,"silentRUmedium",3,1,0,0,(Jul 13 2014 10:37:46),0,TRUE,FALSE,4,FALSE
"508","A1KS9OHP5553CF","Jul 13 2014","10:37:46",8,"Medium","Social","Zero",4,"Chrome",1,"Switch",0,"Novel131",1,"Novel138",1,1695,"straightahead",-1,0,1,0,(Jul 13 2014 10:37:46),0,TRUE,FALSE,4,FALSE
"509","A1KS9OHP5553CF","Jul 13 2014","10:37:46",9,"Medium","Social","Zero",4,"Chrome",2,"Same",0,"Novel90",1,"Novel90",1,3427,"silentLUmedium",1,1,0,0,(Jul 13 2014 10:37:46),0,TRUE,FALSE,4,TRUE
"510","A1KS9OHP5553CF","Jul 13 2014","10:37:46",10,"Medium","Social","Zero",4,"Chrome",2,"Same",0,"Novel80",3,"Novel90",1,1727,"straightahead",-1,0,1,0,(Jul 13 2014 10:37:46),0,TRUE,FALSE,4,FALSE
"511","A1KS9OHP5553CF","Jul 13 2014","10:37:46",11,"Medium","Social","Zero",4,"Chrome",3,"Switch",0,"Novel134",1,"Novel31",0,519,"silentRUmedium",3,1,0,0,(Jul 13 2014 10:37:46),0,TRUE,FALSE,4,FALSE
"512","A1KS9OHP5553CF","Jul 13 2014","10:37:46",12,"Medium","Social","Zero",4,"Chrome",3,"Switch",0,"Novel34",0,"Novel31",0,500,"straightahead",-1,0,1,0,(Jul 13 2014 10:37:46),0,TRUE,FALSE,4,FALSE
"513","A1KS9OHP5553CF","Jul 13 2014","10:37:46",13,"Medium","Social","Zero",4,"Chrome",4,"Same",0,"Novel18",0,"Novel18",0,2131,"silentRUmedium",3,1,0,0,(Jul 13 2014 10:37:46),0,TRUE,FALSE,4,TRUE
"514","A1KS9OHP5553CF","Jul 13 2014","10:37:46",14,"Medium","Social","Zero",4,"Chrome",4,"Same",0,"Novel135",1,"Novel18",0,837,"straightahead",-1,0,1,0,(Jul 13 2014 10:37:46),0,TRUE,FALSE,4,FALSE
"515","A1KS9OHP5553CF","Jul 13 2014","10:37:46",15,"Medium","Social","Zero",4,"Chrome",5,"Switch",1,"Novel29",3,"Novel83",2,1286,"silentRUmedium",3,1,0,0,(Jul 13 2014 10:37:46),0,TRUE,FALSE,4,FALSE
"516","A1KS9OHP5553CF","Jul 13 2014","10:37:46",16,"Medium","Social","Zero",4,"Chrome",5,"Switch",1,"Novel1",1,"Novel83",2,573,"straightahead",-1,0,1,0,(Jul 13 2014 10:37:46),0,TRUE,FALSE,4,FALSE
"517","A1KS9OHP5553CF","Jul 13 2014","10:37:46",17,"Medium","Social","Zero",4,"Chrome",6,"Same",1,"Novel25",2,"Novel25",2,427,"silentLDmedium",0,1,0,0,(Jul 13 2014 10:37:46),0,TRUE,FALSE,4,TRUE
"518","A1KS9OHP5553CF","Jul 13 2014","10:37:46",18,"Medium","Social","Zero",4,"Chrome",6,"Same",1,"Novel72",3,"Novel25",2,391,"straightahead",-1,0,1,0,(Jul 13 2014 10:37:46),0,TRUE,FALSE,4,FALSE
"519","A1KS9OHP5553CF","Jul 13 2014","10:37:46",19,"Medium","Social","Zero",4,"Chrome",7,"Switch",1,"Novel136",2,"Novel93",1,525,"silentLUmedium",1,1,0,0,(Jul 13 2014 10:37:46),0,TRUE,FALSE,4,FALSE
"520","A1KS9OHP5553CF","Jul 13 2014","10:37:46",20,"Medium","Social","Zero",4,"Chrome",7,"Switch",1,"Novel93",1,"Novel93",1,488,"straightahead",-1,0,1,0,(Jul 13 2014 10:37:46),0,TRUE,FALSE,4,TRUE
"521","A1L9A3NZ4YBU9U","Jul 13 2014","10:41:17",1,"Long","Social","Zero",4,"Chrome",0,"Switch",0,"squirrel",0,"",0,433,"straightahead",-1,0,0,1,(Jul 13 2014 10:41:17),0,TRUE,FALSE,4,FALSE
"522","A1L9A3NZ4YBU9U","Jul 13 2014","10:41:17",2,"Long","Social","Zero",4,"Chrome",0,"Switch",0,"squirrel",0,"",0,393,"straightahead",-1,0,0,1,(Jul 13 2014 10:41:17),0,TRUE,FALSE,4,FALSE
"523","A1L9A3NZ4YBU9U","Jul 13 2014","10:41:17",3,"Long","Social","Zero",4,"Chrome",0,"Switch",0,"tomato",1,"",0,402,"straightahead",-1,0,0,1,(Jul 13 2014 10:41:17),0,TRUE,FALSE,4,FALSE
"524","A1L9A3NZ4YBU9U","Jul 13 2014","10:41:17",4,"Long","Social","Zero",4,"Chrome",0,"Switch",0,"tomato",2,"",0,197,"straightahead",-1,0,0,1,(Jul 13 2014 10:41:17),0,TRUE,FALSE,4,FALSE
"525","A1L9A3NZ4YBU9U","Jul 13 2014","10:41:17",5,"Long","Social","Zero",4,"Chrome",0,"Switch",0,"Novel128",2,"Novel47",3,42,"silentLDlong",0,1,0,0,(Jul 13 2014 10:41:17),0,TRUE,FALSE,4,FALSE
"526","A1L9A3NZ4YBU9U","Jul 13 2014","10:41:17",6,"Long","Social","Zero",4,"Chrome",0,"Switch",0,"Novel47",0,"Novel47",3,1503,"straightahead",-1,0,1,0,(Jul 13 2014 10:41:17),0,TRUE,TRUE,4,TRUE
"527","A1L9A3NZ4YBU9U","Jul 13 2014","10:41:17",7,"Long","Social","Zero",4,"Chrome",1,"Same",0,"Novel117",1,"Novel117",1,266,"silentRUlong",3,1,0,0,(Jul 13 2014 10:41:17),0,TRUE,FALSE,4,TRUE
"528","A1L9A3NZ4YBU9U","Jul 13 2014","10:41:17",8,"Long","Social","Zero",4,"Chrome",1,"Same",0,"Novel117",3,"Novel117",1,950,"straightahead",-1,0,1,0,(Jul 13 2014 10:41:17),0,TRUE,FALSE,4,TRUE
"529","A1L9A3NZ4YBU9U","Jul 13 2014","10:41:17",9,"Long","Social","Zero",4,"Chrome",2,"Switch",1,"Novel28",3,"Novel60",1,452,"silentRDlong",2,1,0,0,(Jul 13 2014 10:41:17),0,TRUE,FALSE,4,FALSE
"530","A1L9A3NZ4YBU9U","Jul 13 2014","10:41:17",10,"Long","Social","Zero",4,"Chrome",2,"Switch",1,"Novel65",2,"Novel60",1,1288,"straightahead",-1,0,1,0,(Jul 13 2014 10:41:17),0,TRUE,FALSE,4,FALSE
"531","A1L9A3NZ4YBU9U","Jul 13 2014","10:41:17",11,"Long","Social","Zero",4,"Chrome",3,"Same",1,"Novel45",0,"Novel45",0,402,"silentLUlong",1,1,0,0,(Jul 13 2014 10:41:17),0,TRUE,FALSE,4,TRUE
"532","A1L9A3NZ4YBU9U","Jul 13 2014","10:41:17",12,"Long","Social","Zero",4,"Chrome",3,"Same",1,"Novel45",0,"Novel45",0,6,"straightahead",-1,0,1,0,(Jul 13 2014 10:41:17),0,TRUE,FALSE,4,TRUE
"533","A1L9A3NZ4YBU9U","Jul 13 2014","10:41:17",13,"Long","Social","Zero",4,"Chrome",4,"Switch",0,"Novel116",3,"Novel119",0,586,"silentRDlong",2,1,0,0,(Jul 13 2014 10:41:17),0,TRUE,FALSE,4,FALSE
"534","A1L9A3NZ4YBU9U","Jul 13 2014","10:41:17",14,"Long","Social","Zero",4,"Chrome",4,"Switch",0,"Novel119",2,"Novel119",0,558,"straightahead",-1,0,1,0,(Jul 13 2014 10:41:17),0,TRUE,FALSE,4,TRUE
"535","A1L9A3NZ4YBU9U","Jul 13 2014","10:41:17",15,"Long","Social","Zero",4,"Chrome",5,"Same",0,"Novel21",3,"Novel21",3,228,"silentRDlong",2,1,0,0,(Jul 13 2014 10:41:17),0,TRUE,FALSE,4,TRUE
"536","A1L9A3NZ4YBU9U","Jul 13 2014","10:41:17",16,"Long","Social","Zero",4,"Chrome",5,"Same",0,"Novel21",2,"Novel21",3,587,"straightahead",-1,0,1,0,(Jul 13 2014 10:41:17),0,TRUE,FALSE,4,TRUE
"537","A1L9A3NZ4YBU9U","Jul 13 2014","10:41:17",17,"Long","Social","Zero",4,"Chrome",6,"Switch",1,"Novel93",2,"Novel132",1,1121,"silentLDlong",0,1,0,0,(Jul 13 2014 10:41:17),0,TRUE,FALSE,4,FALSE
