"subid","itemNum","X.1","X","submit.date","submit.time","trial.num","trialType","samePos","chosen","chosenIdx","kept","keptIdx","rt.x","numPic","interval","day.and.time","correct","include","first.trial","numPicN","intervalNum","condition","testTrial","dataset","face","faceIdx","exposureTrial","exampleTrial","choseSocial","rt.y"
"A00236363DL2ZN8A4FD78",0,1,9,"Apr 02 2013","16:25:45",6,"Switch",1,"Novel74",3,"Novel22",2,2010,8,0,"(Apr 02 2013 16:25:45)",FALSE,TRUE,TRUE,8,0,"No-Social",1,"dy",NA,NA,NA,NA,NA,NA
"A00236363DL2ZN8A4FD78",1,2,10,"Apr 02 2013","16:25:45",8,"Same",1,"Novel87",7,"Novel87",7,1991,8,0,"(Apr 02 2013 16:25:45)",TRUE,TRUE,FALSE,8,0,"No-Social",1,"dy",NA,NA,NA,NA,NA,NA
"A00236363DL2ZN8A4FD78",2,3,11,"Apr 02 2013","16:25:45",10,"Switch",0,"Novel139",1,"Novel98",0,7460,8,0,"(Apr 02 2013 16:25:45)",FALSE,TRUE,FALSE,8,0,"No-Social",1,"dy",NA,NA,NA,NA,NA,NA
"A00236363DL2ZN8A4FD78",3,4,12,"Apr 02 2013","16:25:45",12,"Same",1,"Novel53",6,"Novel53",6,1519,8,0,"(Apr 02 2013 16:25:45)",TRUE,TRUE,FALSE,8,0,"No-Social",1,"dy",NA,NA,NA,NA,NA,NA
"A00236363DL2ZN8A4FD78",4,5,13,"Apr 02 2013","16:25:45",14,"Switch",0,"Novel109",3,"Novel33",4,2751,8,0,"(Apr 02 2013 16:25:45)",FALSE,TRUE,FALSE,8,0,"No-Social",1,"dy",NA,NA,NA,NA,NA,NA
"A00236363DL2ZN8A4FD78",5,6,14,"Apr 02 2013","16:25:45",16,"Same",0,"Novel60",2,"Novel60",5,973,8,0,"(Apr 02 2013 16:25:45)",TRUE,TRUE,FALSE,8,0,"No-Social",1,"dy",NA,NA,NA,NA,NA,NA
"A00236363DL2ZN8A4FD78",6,7,15,"Apr 02 2013","16:25:45",18,"Switch",1,"Novel73",2,"Novel48",7,2898,8,0,"(Apr 02 2013 16:25:45)",FALSE,TRUE,FALSE,8,0,"No-Social",1,"dy",NA,NA,NA,NA,NA,NA
"A00236363DL2ZN8A4FD78",7,8,16,"Apr 02 2013","16:25:45",20,"Same",0,"Novel84",3,"Novel84",4,1120,8,0,"(Apr 02 2013 16:25:45)",TRUE,TRUE,FALSE,8,0,"No-Social",1,"dy",NA,NA,NA,NA,NA,NA
"A0607295133OZ2DIJW5P8",0,19561,13,"Apr 07 2014","02:37:40",13,"Same",0,"Novel5",3,"Novel5",2,5021,4,2,"(Apr 07 2014 02:37:40)",TRUE,TRUE,TRUE,4,7,"Social",1,"km","eyescenter",-1,0,0,TRUE,6364
"A0607295133OZ2DIJW5P8",1,19562,14,"Apr 07 2014","02:37:40",14,"Switch",0,"Novel130",2,"Novel70",2,3456,4,2,"(Apr 07 2014 02:37:40)",FALSE,TRUE,FALSE,4,7,"Social",1,"km","eyescenter",-1,0,0,TRUE,2782
"A0607295133OZ2DIJW5P8",2,19563,15,"Apr 07 2014","02:37:40",15,"Same",1,"Novel101",1,"Novel51",2,2721,4,2,"(Apr 07 2014 02:37:40)",FALSE,TRUE,FALSE,4,7,"Social",1,"km","eyescenter",-1,0,0,TRUE,2000
"A0607295133OZ2DIJW5P8",3,19564,16,"Apr 07 2014","02:37:40",16,"Switch",1,"Novel122",2,"Novel133",1,2339,4,2,"(Apr 07 2014 02:37:40)",FALSE,TRUE,FALSE,4,7,"Social",1,"km","eyescenter",-1,0,0,TRUE,1166
"A0607295133OZ2DIJW5P8",4,19565,17,"Apr 07 2014","02:37:40",17,"Same",1,"Novel16",1,"Novel49",2,2697,4,2,"(Apr 07 2014 02:37:40)",FALSE,TRUE,FALSE,4,7,"Social",1,"km","eyescenter",-1,0,0,TRUE,1051
"A0607295133OZ2DIJW5P8",5,19566,18,"Apr 07 2014","02:37:40",18,"Switch",0,"Novel54",3,"Novel52",1,2409,4,2,"(Apr 07 2014 02:37:40)",FALSE,TRUE,FALSE,4,7,"Social",1,"km","eyescenter",-1,0,0,TRUE,1672
"A0607295133OZ2DIJW5P8",6,19567,19,"Apr 07 2014","02:37:40",19,"Same",0,"Novel50",2,"Novel62",3,1387,4,2,"(Apr 07 2014 02:37:40)",FALSE,TRUE,FALSE,4,7,"Social",1,"km","eyescenter",-1,0,0,TRUE,973
"A0607295133OZ2DIJW5P8",7,19568,20,"Apr 07 2014","02:37:40",20,"Switch",1,"Novel119",3,"Novel88",2,1441,4,2,"(Apr 07 2014 02:37:40)",FALSE,TRUE,FALSE,4,7,"Social",1,"km","eyescenter",-1,0,0,TRUE,1107
"A07470353L7983ZPFPYV2",0,7181,13,"May 02 2014","13:17:43",13,"Switch",1,"Novel23",1,"Novel23",1,5680,2,2,"(May 02 2014 13:17:43)",TRUE,TRUE,TRUE,2,7,"No-Social",1,"km","eyescenter",-1,0,0,FALSE,4611
"A07470353L7983ZPFPYV2",1,7182,14,"May 02 2014","13:17:43",14,"Same",1,"Novel31",0,"Novel31",0,2835,2,2,"(May 02 2014 13:17:43)",TRUE,TRUE,FALSE,2,7,"No-Social",1,"km","eyescenter",-1,0,0,FALSE,6207
"A07470353L7983ZPFPYV2",2,7183,15,"May 02 2014","13:17:43",15,"Switch",0,"Novel6",1,"Novel6",0,3397,2,2,"(May 02 2014 13:17:43)",TRUE,TRUE,FALSE,2,7,"No-Social",1,"km","eyescenter",-1,0,0,FALSE,3623
"A07470353L7983ZPFPYV2",3,7184,16,"May 02 2014","13:17:43",16,"Same",0,"Novel134",1,"Novel134",0,2242,2,2,"(May 02 2014 13:17:43)",TRUE,TRUE,FALSE,2,7,"No-Social",1,"km","eyescenter",-1,0,0,FALSE,3006
"A07470353L7983ZPFPYV2",4,7185,17,"May 02 2014","13:17:43",17,"Switch",0,"Novel95",1,"Novel95",0,1798,2,2,"(May 02 2014 13:17:43)",TRUE,TRUE,FALSE,2,7,"No-Social",1,"km","eyescenter",-1,0,0,FALSE,4471
"A07470353L7983ZPFPYV2",5,7186,18,"May 02 2014","13:17:43",18,"Same",1,"Novel61",0,"Novel61",0,1387,2,2,"(May 02 2014 13:17:43)",TRUE,TRUE,FALSE,2,7,"No-Social",1,"km","eyescenter",-1,0,0,FALSE,4577
"A07470353L7983ZPFPYV2",6,7187,19,"May 02 2014","13:17:43",19,"Switch",1,"Novel44",1,"Novel44",1,2204,2,2,"(May 02 2014 13:17:43)",TRUE,TRUE,FALSE,2,7,"No-Social",1,"km","eyescenter",-1,0,0,FALSE,5004
"A07470353L7983ZPFPYV2",7,7188,20,"May 02 2014","13:17:43",20,"Same",0,"Novel68",1,"Novel68",0,1818,2,2,"(May 02 2014 13:17:43)",TRUE,TRUE,FALSE,2,7,"No-Social",1,"km","eyescenter",-1,0,0,FALSE,2961
"A0784745QMLL9WSFGA6H",0,7201,33,"May 02 2014","13:17:57",13,"Switch",0,"Novel89",0,"Novel89",1,1070,2,2,"(May 02 2014 13:17:57)",TRUE,TRUE,TRUE,2,7,"No-Social",1,"km","eyescenter",-1,0,0,FALSE,3325
"A0784745QMLL9WSFGA6H",1,7202,34,"May 02 2014","13:17:57",14,"Same",1,"Novel77",0,"Novel77",0,1208,2,2,"(May 02 2014 13:17:57)",TRUE,TRUE,FALSE,2,7,"No-Social",1,"km","eyescenter",-1,0,0,FALSE,3239
"A0784745QMLL9WSFGA6H",2,7203,35,"May 02 2014","13:17:57",15,"Switch",1,"Novel14",0,"Novel14",0,1802,2,2,"(May 02 2014 13:17:57)",TRUE,TRUE,FALSE,2,7,"No-Social",1,"km","eyescenter",-1,0,0,FALSE,1158
"A0784745QMLL9WSFGA6H",3,7204,36,"May 02 2014","13:17:57",16,"Same",0,"Novel125",1,"Novel125",0,1087,2,2,"(May 02 2014 13:17:57)",TRUE,TRUE,FALSE,2,7,"No-Social",1,"km","eyescenter",-1,0,0,FALSE,1451
"A0784745QMLL9WSFGA6H",4,7205,37,"May 02 2014","13:17:57",17,"Switch",1,"Novel57",1,"Novel57",1,893,2,2,"(May 02 2014 13:17:57)",TRUE,TRUE,FALSE,2,7,"No-Social",1,"km","eyescenter",-1,0,0,FALSE,3056
"A0784745QMLL9WSFGA6H",5,7206,38,"May 02 2014","13:17:57",18,"Same",1,"Novel104",0,"Novel104",0,1253,2,2,"(May 02 2014 13:17:57)",TRUE,TRUE,FALSE,2,7,"No-Social",1,"km","eyescenter",-1,0,0,FALSE,1586
"A0784745QMLL9WSFGA6H",6,7207,39,"May 02 2014","13:17:57",19,"Switch",0,"Novel97",1,"Novel97",0,1668,2,2,"(May 02 2014 13:17:57)",TRUE,TRUE,FALSE,2,7,"No-Social",1,"km","eyescenter",-1,0,0,FALSE,1269
"A0784745QMLL9WSFGA6H",7,7208,40,"May 02 2014","13:17:57",20,"Same",0,"Novel85",1,"Novel85",0,1245,2,2,"(May 02 2014 13:17:57)",TRUE,TRUE,FALSE,2,7,"No-Social",1,"km","eyescenter",-1,0,0,FALSE,1194
"A0877319FSQMNZX627BU",6,22787,19,"Apr 19 2014","15:22:08",19,"Same",0,"Novel109",3,"Novel109",2,2331,4,2,"(Apr 19 2014 15:22:08)",TRUE,TRUE,FALSE,4,7,"Social",1,"km","eyescenter",-1,0,0,TRUE,4593
"A09265903LS1OKAES4KAC",0,9,17,"Apr 03 2013","04:30:47",13,"Switch",0,"Novel75",1,"Novel75",7,3465,8,7,"(Apr 03 2013 04:30:47)",TRUE,TRUE,TRUE,8,7,"No-Social",1,"dy",NA,NA,NA,NA,NA,NA
"A09265903LS1OKAES4KAC",1,10,18,"Apr 03 2013","04:30:47",14,"Same",1,"Novel103",0,"Novel103",0,1865,8,7,"(Apr 03 2013 04:30:47)",TRUE,TRUE,FALSE,8,7,"No-Social",1,"dy",NA,NA,NA,NA,NA,NA
"A09265903LS1OKAES4KAC",2,11,19,"Apr 03 2013","04:30:47",15,"Switch",1,"Novel140",4,"Novel58",7,3474,8,7,"(Apr 03 2013 04:30:47)",FALSE,TRUE,FALSE,8,7,"No-Social",1,"dy",NA,NA,NA,NA,NA,NA
"A09265903LS1OKAES4KAC",3,12,20,"Apr 03 2013","04:30:47",16,"Same",0,"Novel138",0,"Novel138",1,1456,8,7,"(Apr 03 2013 04:30:47)",TRUE,TRUE,FALSE,8,7,"No-Social",1,"dy",NA,NA,NA,NA,NA,NA
"A09265903LS1OKAES4KAC",4,13,21,"Apr 03 2013","04:30:47",17,"Switch",1,"Novel65",3,"Novel35",2,4801,8,7,"(Apr 03 2013 04:30:47)",FALSE,TRUE,FALSE,8,7,"No-Social",1,"dy",NA,NA,NA,NA,NA,NA
"A09265903LS1OKAES4KAC",5,14,22,"Apr 03 2013","04:30:47",18,"Same",0,"Novel89",2,"Novel9",3,1737,8,7,"(Apr 03 2013 04:30:47)",FALSE,TRUE,FALSE,8,7,"No-Social",1,"dy",NA,NA,NA,NA,NA,NA
"A09265903LS1OKAES4KAC",6,15,23,"Apr 03 2013","04:30:47",19,"Switch",0,"Novel131",1,"Novel131",2,4294,8,7,"(Apr 03 2013 04:30:47)",TRUE,TRUE,FALSE,8,7,"No-Social",1,"dy",NA,NA,NA,NA,NA,NA
"A09265903LS1OKAES4KAC",7,16,24,"Apr 03 2013","04:30:47",20,"Same",1,"Novel15",0,"Novel109",4,2024,8,7,"(Apr 03 2013 04:30:47)",FALSE,TRUE,FALSE,8,7,"No-Social",1,"dy",NA,NA,NA,NA,NA,NA
"A0987913304TQJJ683IBA",0,17,25,"Aug 11 2013","13:11:47",6,"Switch",0,"Novel6",0,"Novel6",1,3225,2,0,"(Aug 11 2013 13:11:47)",TRUE,TRUE,TRUE,2,0,"No-Social",1,"dy",NA,NA,NA,NA,NA,NA
"A0987913304TQJJ683IBA",1,18,26,"Aug 11 2013","13:11:47",8,"Same",0,"Novel111",0,"Novel111",1,1496,2,0,"(Aug 11 2013 13:11:47)",TRUE,TRUE,FALSE,2,0,"No-Social",1,"dy",NA,NA,NA,NA,NA,NA
"A0987913304TQJJ683IBA",2,19,27,"Aug 11 2013","13:11:47",10,"Switch",1,"Novel5",0,"Novel103",1,827,2,0,"(Aug 11 2013 13:11:47)",FALSE,TRUE,FALSE,2,0,"No-Social",1,"dy",NA,NA,NA,NA,NA,NA
"A0987913304TQJJ683IBA",3,20,28,"Aug 11 2013","13:11:47",12,"Same",1,"Novel46",0,"Novel46",0,1105,2,0,"(Aug 11 2013 13:11:47)",TRUE,TRUE,FALSE,2,0,"No-Social",1,"dy",NA,NA,NA,NA,NA,NA
"A0987913304TQJJ683IBA",4,21,29,"Aug 11 2013","13:11:47",14,"Switch",1,"Novel94",1,"Novel2",0,1267,2,0,"(Aug 11 2013 13:11:47)",FALSE,TRUE,FALSE,2,0,"No-Social",1,"dy",NA,NA,NA,NA,NA,NA
"A0987913304TQJJ683IBA",5,22,30,"Aug 11 2013","13:11:47",16,"Same",0,"Novel134",0,"Novel134",1,905,2,0,"(Aug 11 2013 13:11:47)",TRUE,TRUE,FALSE,2,0,"No-Social",1,"dy",NA,NA,NA,NA,NA,NA
"A0987913304TQJJ683IBA",6,23,31,"Aug 11 2013","13:11:47",18,"Switch",0,"Novel137",1,"Novel137",0,3468,2,0,"(Aug 11 2013 13:11:47)",TRUE,TRUE,FALSE,2,0,"No-Social",1,"dy",NA,NA,NA,NA,NA,NA
"A0987913304TQJJ683IBA",7,24,32,"Aug 11 2013","13:11:47",20,"Same",1,"Novel36",1,"Novel36",1,1673,2,0,"(Aug 11 2013 13:11:47)",TRUE,TRUE,FALSE,2,0,"No-Social",1,"dy",NA,NA,NA,NA,NA,NA
"A1015EI76K26I3",0,25,33,"Aug 11 2013","12:40:04",13,"Switch",1,"Novel64",3,"Novel4",4,23659,8,7,"(Aug 11 2013 12:40:04)",NA,TRUE,TRUE,8,7,"No-Social",1,"dy",NA,NA,NA,NA,NA,NA
"A1015EI76K26I3",1,26,34,"Aug 11 2013","12:40:04",14,"Same",0,"Novel121",4,"Novel121",6,5525,8,7,"(Aug 11 2013 12:40:04)",TRUE,TRUE,FALSE,8,7,"No-Social",1,"dy",NA,NA,NA,NA,NA,NA
"A1015EI76K26I3",2,27,35,"Aug 11 2013","12:40:04",15,"Switch",0,"Novel19",7,"Novel16",2,2442,8,7,"(Aug 11 2013 12:40:04)",FALSE,TRUE,FALSE,8,7,"No-Social",1,"dy",NA,NA,NA,NA,NA,NA
"A1015EI76K26I3",3,28,36,"Aug 11 2013","12:40:04",16,"Same",1,"Novel63",5,"Novel65",7,1857,8,7,"(Aug 11 2013 12:40:04)",FALSE,TRUE,FALSE,8,7,"No-Social",1,"dy",NA,NA,NA,NA,NA,NA
"A1015EI76K26I3",4,29,37,"Aug 11 2013","12:40:04",17,"Switch",0,"Novel29",7,"Novel123",7,2011,8,7,"(Aug 11 2013 12:40:04)",FALSE,TRUE,FALSE,8,7,"No-Social",1,"dy",NA,NA,NA,NA,NA,NA
"A1015EI76K26I3",5,30,38,"Aug 11 2013","12:40:04",18,"Same",0,"Novel122",1,"Novel98",0,1453,8,7,"(Aug 11 2013 12:40:04)",FALSE,TRUE,FALSE,8,7,"No-Social",1,"dy",NA,NA,NA,NA,NA,NA
"A1015EI76K26I3",6,31,39,"Aug 11 2013","12:40:04",19,"Switch",1,"Novel77",4,"Novel44",6,1520,8,7,"(Aug 11 2013 12:40:04)",FALSE,TRUE,FALSE,8,7,"No-Social",1,"dy",NA,NA,NA,NA,NA,NA
"A1015EI76K26I3",7,32,40,"Aug 11 2013","12:40:04",20,"Same",1,"Novel37",4,"Novel105",0,1290,8,7,"(Aug 11 2013 12:40:04)",FALSE,TRUE,FALSE,8,7,"No-Social",1,"dy",NA,NA,NA,NA,NA,NA
"A101KWAN3V926J",0,33,41,"Aug 11 2013","23:57:47",6,"Switch",1,"Novel52",0,"Novel52",0,2526,2,0,"(Aug 11 2013 23:57:47)",TRUE,TRUE,TRUE,2,0,"No-Social",1,"dy",NA,NA,NA,NA,NA,NA
"A101KWAN3V926J",1,34,42,"Aug 11 2013","23:57:47",8,"Same",0,"Novel135",1,"Novel135",0,2523,2,0,"(Aug 11 2013 23:57:47)",TRUE,TRUE,FALSE,2,0,"No-Social",1,"dy",NA,NA,NA,NA,NA,NA
"A101KWAN3V926J",2,35,43,"Aug 11 2013","23:57:47",10,"Switch",1,"Novel45",0,"Novel45",0,1918,2,0,"(Aug 11 2013 23:57:47)",TRUE,TRUE,FALSE,2,0,"No-Social",1,"dy",NA,NA,NA,NA,NA,NA
"A101KWAN3V926J",3,36,44,"Aug 11 2013","23:57:47",12,"Same",1,"Novel73",0,"Novel73",0,1221,2,0,"(Aug 11 2013 23:57:47)",TRUE,TRUE,FALSE,2,0,"No-Social",1,"dy",NA,NA,NA,NA,NA,NA
"A101KWAN3V926J",4,37,45,"Aug 11 2013","23:57:47",14,"Switch",0,"Novel41",1,"Novel41",0,1271,2,0,"(Aug 11 2013 23:57:47)",TRUE,TRUE,FALSE,2,0,"No-Social",1,"dy",NA,NA,NA,NA,NA,NA
"A101KWAN3V926J",5,38,46,"Aug 11 2013","23:57:47",16,"Same",1,"Novel128",1,"Novel128",1,931,2,0,"(Aug 11 2013 23:57:47)",TRUE,TRUE,FALSE,2,0,"No-Social",1,"dy",NA,NA,NA,NA,NA,NA
"A101KWAN3V926J",6,39,47,"Aug 11 2013","23:57:47",18,"Switch",0,"Novel23",0,"Novel23",1,1200,2,0,"(Aug 11 2013 23:57:47)",TRUE,TRUE,FALSE,2,0,"No-Social",1,"dy",NA,NA,NA,NA,NA,NA
"A101KWAN3V926J",7,40,48,"Aug 11 2013","23:57:47",20,"Same",0,"Novel55",0,"Novel55",1,903,2,0,"(Aug 11 2013 23:57:47)",TRUE,TRUE,FALSE,2,0,"No-Social",1,"dy",NA,NA,NA,NA,NA,NA
"A102RC1Y60DUS4",0,41,49,"Aug 11 2013","18:22:51",7,"Same",1,"Novel44",1,"Novel49",0,5408,2,1,"(Aug 11 2013 18:22:51)",FALSE,TRUE,TRUE,2,1,"No-Social",1,"dy",NA,NA,NA,NA,NA,NA
"A102RC1Y60DUS4",1,42,50,"Aug 11 2013","18:22:51",8,"Switch",1,"Novel83",0,"Novel31",1,2306,2,1,"(Aug 11 2013 18:22:51)",FALSE,TRUE,FALSE,2,1,"No-Social",1,"dy",NA,NA,NA,NA,NA,NA
"A102RC1Y60DUS4",2,43,51,"Aug 11 2013","18:22:51",11,"Same",1,"Novel20",1,"Novel20",1,2365,2,1,"(Aug 11 2013 18:22:51)",TRUE,TRUE,FALSE,2,1,"No-Social",1,"dy",NA,NA,NA,NA,NA,NA
"A102RC1Y60DUS4",3,44,52,"Aug 11 2013","18:22:51",12,"Switch",0,"Novel130",1,"Novel130",0,4549,2,1,"(Aug 11 2013 18:22:51)",TRUE,TRUE,FALSE,2,1,"No-Social",1,"dy",NA,NA,NA,NA,NA,NA
"A102RC1Y60DUS4",4,45,53,"Aug 11 2013","18:22:51",15,"Same",0,"Novel5",0,"Novel5",1,1682,2,1,"(Aug 11 2013 18:22:51)",TRUE,TRUE,FALSE,2,1,"No-Social",1,"dy",NA,NA,NA,NA,NA,NA
"A102RC1Y60DUS4",5,46,54,"Aug 11 2013","18:22:51",16,"Switch",0,"Novel129",1,"Novel129",0,1732,2,1,"(Aug 11 2013 18:22:51)",TRUE,TRUE,FALSE,2,1,"No-Social",1,"dy",NA,NA,NA,NA,NA,NA
"A102RC1Y60DUS4",6,47,55,"Aug 11 2013","18:22:51",19,"Same",0,"Novel64",1,"Novel82",1,1809,2,1,"(Aug 11 2013 18:22:51)",FALSE,TRUE,FALSE,2,1,"No-Social",1,"dy",NA,NA,NA,NA,NA,NA
"A102RC1Y60DUS4",7,48,56,"Aug 11 2013","18:22:51",20,"Switch",1,"Novel7",1,"Novel7",1,2124,2,1,"(Aug 11 2013 18:22:51)",TRUE,TRUE,FALSE,2,1,"No-Social",1,"dy",NA,NA,NA,NA,NA,NA
"A102Z6M3FALPXT",0,49,57,"Aug 11 2013","23:01:20",9,"Same",0,"Novel82",2,"Novel82",1,1804,4,3,"(Aug 11 2013 23:01:20)",TRUE,TRUE,TRUE,4,3,"No-Social",1,"dy",NA,NA,NA,NA,NA,NA
"A102Z6M3FALPXT",1,50,58,"Aug 11 2013","23:01:20",10,"Switch",0,"Novel56",1,"Novel77",3,1864,4,3,"(Aug 11 2013 23:01:20)",FALSE,TRUE,FALSE,4,3,"No-Social",1,"dy",NA,NA,NA,NA,NA,NA
"A102Z6M3FALPXT",2,51,59,"Aug 11 2013","23:01:20",11,"Same",0,"Novel53",0,"Novel53",2,2412,4,3,"(Aug 11 2013 23:01:20)",TRUE,TRUE,FALSE,4,3,"No-Social",1,"dy",NA,NA,NA,NA,NA,NA
"A102Z6M3FALPXT",3,52,60,"Aug 11 2013","23:01:20",12,"Switch",1,"Novel133",2,"Novel99",1,1488,4,3,"(Aug 11 2013 23:01:20)",FALSE,TRUE,FALSE,4,3,"No-Social",1,"dy",NA,NA,NA,NA,NA,NA
"A102Z6M3FALPXT",4,53,61,"Aug 11 2013","23:01:20",17,"Same",1,"Novel83",2,"Novel68",1,1034,4,3,"(Aug 11 2013 23:01:20)",FALSE,TRUE,FALSE,4,3,"No-Social",1,"dy",NA,NA,NA,NA,NA,NA
"A102Z6M3FALPXT",5,54,62,"Aug 11 2013","23:01:20",18,"Switch",1,"Novel104",1,"Novel123",3,1052,4,3,"(Aug 11 2013 23:01:20)",FALSE,TRUE,FALSE,4,3,"No-Social",1,"dy",NA,NA,NA,NA,NA,NA
"A102Z6M3FALPXT",6,55,63,"Aug 11 2013","23:01:20",19,"Same",1,"Novel61",1,"Novel61",1,1422,4,3,"(Aug 11 2013 23:01:20)",TRUE,TRUE,FALSE,4,3,"No-Social",1,"dy",NA,NA,NA,NA,NA,NA
"A102Z6M3FALPXT",7,56,64,"Aug 11 2013","23:01:20",20,"Switch",0,"Novel7",2,"Novel59",2,1770,4,3,"(Aug 11 2013 23:01:20)",FALSE,TRUE,FALSE,4,3,"No-Social",1,"dy",NA,NA,NA,NA,NA,NA
"A104336318AW2NFOC4SE3",0,57,65,"Aug 11 2013","16:04:40",7,"Same",0,"Novel121",0,"Novel121",1,1885,2,1,"(Aug 11 2013 16:04:40)",TRUE,TRUE,TRUE,2,1,"No-Social",1,"dy",NA,NA,NA,NA,NA,NA
"A104336318AW2NFOC4SE3",1,58,66,"Aug 11 2013","16:04:40",8,"Switch",1,"Novel130",1,"Novel130",1,3804,2,1,"(Aug 11 2013 16:04:40)",TRUE,TRUE,FALSE,2,1,"No-Social",1,"dy",NA,NA,NA,NA,NA,NA
"A104336318AW2NFOC4SE3",2,59,67,"Aug 11 2013","16:04:40",11,"Same",0,"Novel17",0,"Novel17",1,1552,2,1,"(Aug 11 2013 16:04:40)",TRUE,TRUE,FALSE,2,1,"No-Social",1,"dy",NA,NA,NA,NA,NA,NA
"A104336318AW2NFOC4SE3",3,60,68,"Aug 11 2013","16:04:40",12,"Switch",1,"Novel76",0,"Novel76",0,1159,2,1,"(Aug 11 2013 16:04:40)",TRUE,TRUE,FALSE,2,1,"No-Social",1,"dy",NA,NA,NA,NA,NA,NA
"A104336318AW2NFOC4SE3",4,61,69,"Aug 11 2013","16:04:40",15,"Same",1,"Novel40",0,"Novel40",0,3401,2,1,"(Aug 11 2013 16:04:40)",TRUE,TRUE,FALSE,2,1,"No-Social",1,"dy",NA,NA,NA,NA,NA,NA
"A104336318AW2NFOC4SE3",5,62,70,"Aug 11 2013","16:04:40",16,"Switch",0,"Novel25",0,"Novel25",1,1084,2,1,"(Aug 11 2013 16:04:40)",TRUE,TRUE,FALSE,2,1,"No-Social",1,"dy",NA,NA,NA,NA,NA,NA
"A104336318AW2NFOC4SE3",6,63,71,"Aug 11 2013","16:04:40",19,"Same",1,"Novel67",1,"Novel67",1,3453,2,1,"(Aug 11 2013 16:04:40)",TRUE,TRUE,FALSE,2,1,"No-Social",1,"dy",NA,NA,NA,NA,NA,NA
"A104336318AW2NFOC4SE3",7,64,72,"Aug 11 2013","16:04:40",20,"Switch",0,"Novel69",0,"Novel69",1,1174,2,1,"(Aug 11 2013 16:04:40)",TRUE,TRUE,FALSE,2,1,"No-Social",1,"dy",NA,NA,NA,NA,NA,NA
"A104N820YHGZDI",0,65,73,"Aug 11 2013","18:04:41",7,"Same",0,"Novel73",3,"Novel73",0,2559,4,1,"(Aug 11 2013 18:04:41)",TRUE,TRUE,TRUE,4,1,"No-Social",1,"dy",NA,NA,NA,NA,NA,NA
"A104N820YHGZDI",1,66,74,"Aug 11 2013","18:04:41",8,"Switch",1,"Novel121",0,"Novel101",2,2713,4,1,"(Aug 11 2013 18:04:41)",FALSE,TRUE,FALSE,4,1,"No-Social",1,"dy",NA,NA,NA,NA,NA,NA
"A104N820YHGZDI",2,67,75,"Aug 11 2013","18:04:41",11,"Same",0,"Novel131",2,"Novel131",3,2913,4,1,"(Aug 11 2013 18:04:41)",TRUE,TRUE,FALSE,4,1,"No-Social",1,"dy",NA,NA,NA,NA,NA,NA
"A104N820YHGZDI",3,68,76,"Aug 11 2013","18:04:41",12,"Switch",0,"Novel67",0,"Novel139",3,2787,4,1,"(Aug 11 2013 18:04:41)",FALSE,TRUE,FALSE,4,1,"No-Social",1,"dy",NA,NA,NA,NA,NA,NA
"A104N820YHGZDI",4,69,77,"Aug 11 2013","18:04:41",15,"Same",1,"Novel106",3,"Novel106",3,2376,4,1,"(Aug 11 2013 18:04:41)",TRUE,TRUE,FALSE,4,1,"No-Social",1,"dy",NA,NA,NA,NA,NA,NA
"A104N820YHGZDI",5,70,78,"Aug 11 2013","18:04:41",16,"Switch",1,"Novel20",0,"Novel64",1,2164,4,1,"(Aug 11 2013 18:04:41)",FALSE,TRUE,FALSE,4,1,"No-Social",1,"dy",NA,NA,NA,NA,NA,NA
"A104N820YHGZDI",6,71,79,"Aug 11 2013","18:04:41",19,"Same",1,"Novel37",2,"Novel138",3,3003,4,1,"(Aug 11 2013 18:04:41)",FALSE,TRUE,FALSE,4,1,"No-Social",1,"dy",NA,NA,NA,NA,NA,NA
"A104N820YHGZDI",7,72,80,"Aug 11 2013","18:04:41",20,"Switch",0,"Novel43",1,"Novel21",3,2942,4,1,"(Aug 11 2013 18:04:41)",FALSE,TRUE,FALSE,4,1,"No-Social",1,"dy",NA,NA,NA,NA,NA,NA
"A10A1AU0JBL6Z3",0,14954,26,"Mar 28 2014","10:03:38",6,"Switch",1,"Novel3",2,"Novel44",1,4148,4,4,"(Mar 28 2014 10:03:38)",FALSE,TRUE,TRUE,4,0,"Social",1,"km","eyescenter",-1,0,0,TRUE,2916
"A10A1AU0JBL6Z3",1,14956,28,"Mar 28 2014","10:03:38",8,"Same",1,"Novel80",2,"Novel80",2,1434,4,4,"(Mar 28 2014 10:03:38)",TRUE,TRUE,FALSE,4,0,"Social",1,"km","eyescenter",-1,0,0,TRUE,3925
"A10A1AU0JBL6Z3",2,14958,30,"Mar 28 2014","10:03:38",10,"Switch",0,"Novel85",2,"Novel109",2,3831,4,4,"(Mar 28 2014 10:03:38)",FALSE,TRUE,FALSE,4,0,"Social",1,"km","eyescenter",-1,0,0,TRUE,1990
"A10A1AU0JBL6Z3",3,14960,32,"Mar 28 2014","10:03:38",12,"Same",0,"Novel81",2,"Novel81",0,1619,4,4,"(Mar 28 2014 10:03:38)",TRUE,TRUE,FALSE,4,0,"Social",1,"km","eyescenter",-1,0,0,TRUE,2477
"A10A1AU0JBL6Z3",4,14962,34,"Mar 28 2014","10:03:38",14,"Switch",1,"Novel116",0,"Novel130",2,1614,4,4,"(Mar 28 2014 10:03:38)",FALSE,TRUE,FALSE,4,0,"Social",1,"km","eyescenter",-1,0,0,TRUE,1726
"A10A1AU0JBL6Z3",5,14964,36,"Mar 28 2014","10:03:38",16,"Same",1,"Novel90",2,"Novel90",2,990,4,4,"(Mar 28 2014 10:03:38)",TRUE,TRUE,FALSE,4,0,"Social",1,"km","eyescenter",-1,0,0,TRUE,1465
"A10A1AU0JBL6Z3",7,14968,40,"Mar 28 2014","10:03:38",20,"Same",0,"Novel13",0,"Novel18",0,1179,4,4,"(Mar 28 2014 10:03:38)",FALSE,TRUE,FALSE,4,0,"Social",1,"km","eyescenter",-1,0,0,TRUE,4341
"A10BMPJA7PA4W4",0,14975,47,"Mar 29 2014","13:09:01",7,"Same",1,"Novel46",1,"Novel46",1,3074,4,1,"(Mar 29 2014 13:09:01)",TRUE,TRUE,TRUE,4,1,"No-Social",1,"km","eyescenter",-1,0,0,FALSE,9644
"A10BMPJA7PA4W4",1,14976,48,"Mar 29 2014","13:09:01",8,"Switch",0,"Novel40",1,"Novel40",0,1403,4,1,"(Mar 29 2014 13:09:01)",TRUE,TRUE,FALSE,4,1,"No-Social",1,"km","eyescenter",-1,0,0,FALSE,4348
"A10BMPJA7PA4W4",2,14979,51,"Mar 29 2014","13:09:01",11,"Same",0,"Novel115",0,"Novel115",2,1185,4,1,"(Mar 29 2014 13:09:01)",TRUE,TRUE,FALSE,4,1,"No-Social",1,"km","eyescenter",-1,0,0,FALSE,2505
"A10BMPJA7PA4W4",3,14980,52,"Mar 29 2014","13:09:01",12,"Switch",1,"Novel44",0,"Novel44",0,1948,4,1,"(Mar 29 2014 13:09:01)",TRUE,TRUE,FALSE,4,1,"No-Social",1,"km","eyescenter",-1,0,0,FALSE,2548
"A10BMPJA7PA4W4",4,14983,55,"Mar 29 2014","13:09:01",15,"Same",1,"Novel18",1,"Novel18",1,867,4,1,"(Mar 29 2014 13:09:01)",TRUE,TRUE,FALSE,4,1,"No-Social",1,"km","eyescenter",-1,0,0,FALSE,3370
"A10BMPJA7PA4W4",5,14984,56,"Mar 29 2014","13:09:01",16,"Switch",1,"Novel105",3,"Novel87",1,835,4,1,"(Mar 29 2014 13:09:01)",FALSE,TRUE,FALSE,4,1,"No-Social",1,"km","eyescenter",-1,0,0,FALSE,1366
"A10BMPJA7PA4W4",6,14987,59,"Mar 29 2014","13:09:01",19,"Same",0,"Novel19",1,"Novel19",0,589,4,1,"(Mar 29 2014 13:09:01)",TRUE,TRUE,FALSE,4,1,"No-Social",1,"km","eyescenter",-1,0,0,FALSE,1672
"A10BMPJA7PA4W4",7,14988,60,"Mar 29 2014","13:09:01",20,"Switch",0,"Novel132",2,"Novel132",1,569,4,1,"(Mar 29 2014 13:09:01)",TRUE,TRUE,FALSE,4,1,"No-Social",1,"km","eyescenter",-1,0,0,FALSE,929
"A10C8F6B8X2HUS",0,34281,13,"May 13 2014","11:37:59",13,"Switch",0,"Novel1",7,"Novel1",5,13332,8,2,"(May 13 2014 11:37:59)",NA,TRUE,TRUE,8,7,"Social",1,"km","eyes_center",-1,0,0,TRUE,2407
"A10C8F6B8X2HUS",1,34282,14,"May 13 2014","11:37:59",14,"Same",1,"Novel29",6,"Novel29",6,1436,8,2,"(May 13 2014 11:37:59)",TRUE,TRUE,FALSE,8,7,"Social",1,"km","eyes_center",-1,0,0,TRUE,1489
"A10C8F6B8X2HUS",2,34283,15,"May 13 2014","11:37:59",15,"Switch",0,"Novel121",4,"Novel116",4,7101,8,2,"(May 13 2014 11:37:59)",FALSE,TRUE,FALSE,8,7,"Social",1,"km","eyes_center",-1,0,0,TRUE,3009
"A10C8F6B8X2HUS",3,34284,16,"May 13 2014","11:37:59",16,"Same",0,"Novel19",1,"Novel19",0,2637,8,2,"(May 13 2014 11:37:59)",TRUE,TRUE,FALSE,8,7,"Social",1,"km","eyes_center",-1,0,0,TRUE,2086
"A10C8F6B8X2HUS",4,34285,17,"May 13 2014","11:37:59",17,"Switch",1,"Novel104",0,"Novel33",1,6141,8,2,"(May 13 2014 11:37:59)",FALSE,TRUE,FALSE,8,7,"Social",1,"km","eyes_center",-1,0,0,TRUE,2020
"A10C8F6B8X2HUS",5,34286,18,"May 13 2014","11:37:59",18,"Same",1,"Novel130",4,"Novel130",4,2430,8,2,"(May 13 2014 11:37:59)",TRUE,TRUE,FALSE,8,7,"Social",1,"km","eyes_center",-1,0,0,TRUE,2126
"A10C8F6B8X2HUS",6,34287,19,"May 13 2014","11:37:59",19,"Switch",1,"Novel55",6,"Novel138",7,6912,8,2,"(May 13 2014 11:37:59)",FALSE,TRUE,FALSE,8,7,"Social",1,"km","eyes_center",-1,0,0,TRUE,2228
"A10C8F6B8X2HUS",7,34288,20,"May 13 2014","11:37:59",20,"Same",0,"Novel69",5,"Novel69",4,12094,8,2,"(May 13 2014 11:37:59)",NA,TRUE,FALSE,8,7,"Social",1,"km","eyes_center",-1,0,0,TRUE,2144
"A10CKZJTAF6OCS",0,73,97,"Aug 11 2013","20:48:49",7,"Same",0,"Novel27",0,"Novel27",1,1797,2,1,"(Aug 11 2013 20:48:49)",TRUE,TRUE,TRUE,2,1,"No-Social",1,"dy",NA,NA,NA,NA,NA,NA
"A10CKZJTAF6OCS",1,74,98,"Aug 11 2013","20:48:49",8,"Switch",0,"Novel72",0,"Novel72",1,2363,2,1,"(Aug 11 2013 20:48:49)",TRUE,TRUE,FALSE,2,1,"No-Social",1,"dy",NA,NA,NA,NA,NA,NA
"A10CKZJTAF6OCS",2,75,99,"Aug 11 2013","20:48:49",11,"Same",1,"Novel96",0,"Novel96",0,1525,2,1,"(Aug 11 2013 20:48:49)",TRUE,TRUE,FALSE,2,1,"No-Social",1,"dy",NA,NA,NA,NA,NA,NA
"A10CKZJTAF6OCS",3,76,100,"Aug 11 2013","20:48:49",12,"Switch",1,"Novel28",1,"Novel15",0,5203,2,1,"(Aug 11 2013 20:48:49)",FALSE,TRUE,FALSE,2,1,"No-Social",1,"dy",NA,NA,NA,NA,NA,NA
"A10CKZJTAF6OCS",4,77,101,"Aug 11 2013","20:48:49",15,"Same",1,"Novel136",0,"Novel136",0,906,2,1,"(Aug 11 2013 20:48:49)",TRUE,TRUE,FALSE,2,1,"No-Social",1,"dy",NA,NA,NA,NA,NA,NA
"A10CKZJTAF6OCS",5,78,102,"Aug 11 2013","20:48:49",16,"Switch",0,"Novel88",0,"Novel88",1,1026,2,1,"(Aug 11 2013 20:48:49)",TRUE,TRUE,FALSE,2,1,"No-Social",1,"dy",NA,NA,NA,NA,NA,NA
"A10CKZJTAF6OCS",6,79,103,"Aug 11 2013","20:48:49",19,"Same",0,"Novel39",1,"Novel39",0,3426,2,1,"(Aug 11 2013 20:48:49)",TRUE,TRUE,FALSE,2,1,"No-Social",1,"dy",NA,NA,NA,NA,NA,NA
"A10CKZJTAF6OCS",7,80,104,"Aug 11 2013","20:48:49",20,"Switch",1,"Novel84",0,"Novel84",0,1030,2,1,"(Aug 11 2013 20:48:49)",TRUE,TRUE,FALSE,2,1,"No-Social",1,"dy",NA,NA,NA,NA,NA,NA
"A10EEFN0OZB72L",0,26595,7,"Apr 11 2014","12:46:43",7,"Switch",0,"Novel48",2,"Novel5",4,4235,6,1,"(Apr 11 2014 12:46:43)",FALSE,TRUE,TRUE,6,1,"Social",1,"km","eyescenter",-1,0,0,TRUE,2779
"A10EEFN0OZB72L",1,26596,8,"Apr 11 2014","12:46:43",8,"Same",1,"Novel123",4,"Novel123",4,1778,6,1,"(Apr 11 2014 12:46:43)",TRUE,TRUE,FALSE,6,1,"Social",1,"km","eyescenter",-1,0,0,TRUE,1660
"A10EEFN0OZB72L",2,26599,11,"Apr 11 2014","12:46:43",11,"Switch",1,"Novel53",0,"Novel73",4,1958,6,1,"(Apr 11 2014 12:46:43)",FALSE,TRUE,FALSE,6,1,"Social",1,"km","eyescenter",-1,0,0,TRUE,1359
"A10EEFN0OZB72L",3,26600,12,"Apr 11 2014","12:46:43",12,"Same",1,"Novel61",1,"Novel61",1,1062,6,1,"(Apr 11 2014 12:46:43)",TRUE,TRUE,FALSE,6,1,"Social",1,"km","eyescenter",-1,0,0,TRUE,1462
"A10EEFN0OZB72L",4,26603,15,"Apr 11 2014","12:46:43",15,"Switch",0,"Novel32",3,"Novel129",1,3257,6,1,"(Apr 11 2014 12:46:43)",FALSE,TRUE,FALSE,6,1,"Social",1,"km","eyescenter",-1,0,0,TRUE,907
"A10EEFN0OZB72L",5,26604,16,"Apr 11 2014","12:46:43",16,"Same",0,"Novel80",4,"Novel80",2,1276,6,1,"(Apr 11 2014 12:46:43)",TRUE,TRUE,FALSE,6,1,"Social",1,"km","eyescenter",-1,0,0,TRUE,1476
"A10EEFN0OZB72L",6,26607,19,"Apr 11 2014","12:46:43",19,"Switch",1,"Novel137",4,"Novel85",5,1393,6,1,"(Apr 11 2014 12:46:43)",FALSE,TRUE,FALSE,6,1,"Social",1,"km","eyescenter",-1,0,0,TRUE,857
"A10EEFN0OZB72L",7,26608,20,"Apr 11 2014","12:46:43",20,"Same",0,"Novel58",0,"Novel58",2,2374,6,1,"(Apr 11 2014 12:46:43)",TRUE,TRUE,FALSE,6,1,"Social",1,"km","eyescenter",-1,0,0,TRUE,1156
"A10I0NM5NV1DBU",0,19575,27,"Apr 07 2014","03:54:53",7,"Switch",0,"Novel34",3,"Novel34",2,16539,4,1,"(Apr 07 2014 03:54:53)",NA,TRUE,TRUE,4,1,"Social",1,"km","eyescenter",-1,0,0,TRUE,2420
"A10I0NM5NV1DBU",1,19576,28,"Apr 07 2014","03:54:53",8,"Same",1,"Novel56",2,"Novel56",2,1640,4,1,"(Apr 07 2014 03:54:53)",TRUE,TRUE,FALSE,4,1,"Social",1,"km","eyescenter",-1,0,0,TRUE,1812
"A10I0NM5NV1DBU",2,19579,31,"Apr 07 2014","03:54:53",11,"Switch",1,"Novel9",2,"Novel11",1,7369,4,1,"(Apr 07 2014 03:54:53)",FALSE,TRUE,FALSE,4,1,"Social",1,"km","eyescenter",-1,0,0,TRUE,2710
"A10I0NM5NV1DBU",3,19580,32,"Apr 07 2014","03:54:53",12,"Same",0,"Novel136",2,"Novel136",1,1845,4,1,"(Apr 07 2014 03:54:53)",TRUE,TRUE,FALSE,4,1,"Social",1,"km","eyescenter",-1,0,0,TRUE,1896
"A10I0NM5NV1DBU",4,19583,35,"Apr 07 2014","03:54:53",15,"Switch",1,"Novel44",3,"Novel61",0,7272,4,1,"(Apr 07 2014 03:54:53)",FALSE,TRUE,FALSE,4,1,"Social",1,"km","eyescenter",-1,0,0,TRUE,2144
"A10I0NM5NV1DBU",5,19584,36,"Apr 07 2014","03:54:53",16,"Same",1,"Novel68",2,"Novel68",2,1449,4,1,"(Apr 07 2014 03:54:53)",TRUE,TRUE,FALSE,4,1,"Social",1,"km","eyescenter",-1,0,0,TRUE,1474
"A10I0NM5NV1DBU",6,19587,39,"Apr 07 2014","03:54:53",19,"Switch",0,"Novel121",2,"Novel131",1,7876,4,1,"(Apr 07 2014 03:54:53)",FALSE,TRUE,FALSE,4,1,"Social",1,"km","eyescenter",-1,0,0,TRUE,2707
"A10I0NM5NV1DBU",7,19588,40,"Apr 07 2014","03:54:53",20,"Same",0,"Novel29",1,"Novel29",3,4859,4,1,"(Apr 07 2014 03:54:53)",TRUE,TRUE,FALSE,4,1,"Social",1,"km","eyescenter",-1,0,0,TRUE,1327
"A10K8ZSAU26T49",0,7221,53,"May 02 2014","14:42:08",13,"Same",1,"Novel127",0,"Novel127",0,2591,2,2,"(May 02 2014 14:42:08)",TRUE,TRUE,TRUE,2,7,"No-Social",1,"km","eyescenter",-1,0,0,FALSE,4681
"A10K8ZSAU26T49",1,7222,54,"May 02 2014","14:42:08",14,"Switch",1,"Novel83",1,"Novel48",0,3676,2,2,"(May 02 2014 14:42:08)",FALSE,TRUE,FALSE,2,7,"No-Social",1,"km","eyescenter",-1,0,0,FALSE,2574
"A10K8ZSAU26T49",2,7223,55,"May 02 2014","14:42:08",15,"Same",0,"Novel118",1,"Novel7",1,2943,2,2,"(May 02 2014 14:42:08)",FALSE,TRUE,FALSE,2,7,"No-Social",1,"km","eyescenter",-1,0,0,FALSE,6197
"A10K8ZSAU26T49",3,7224,56,"May 02 2014","14:42:08",16,"Switch",0,"Novel77",0,"Novel5",0,2211,2,2,"(May 02 2014 14:42:08)",FALSE,TRUE,FALSE,2,7,"No-Social",1,"km","eyescenter",-1,0,0,FALSE,4461
"A10K8ZSAU26T49",4,7225,57,"May 02 2014","14:42:08",17,"Same",0,"Novel125",0,"Novel60",0,1951,2,2,"(May 02 2014 14:42:08)",FALSE,TRUE,FALSE,2,7,"No-Social",1,"km","eyescenter",-1,0,0,FALSE,3787
"A10K8ZSAU26T49",5,7226,58,"May 02 2014","14:42:08",18,"Switch",0,"Novel78",1,"Novel78",0,2675,2,2,"(May 02 2014 14:42:08)",TRUE,TRUE,FALSE,2,7,"No-Social",1,"km","eyescenter",-1,0,0,FALSE,3710
"A10K8ZSAU26T49",6,7227,59,"May 02 2014","14:42:08",19,"Same",1,"Novel99",0,"Novel99",0,1791,2,2,"(May 02 2014 14:42:08)",TRUE,TRUE,FALSE,2,7,"No-Social",1,"km","eyescenter",-1,0,0,FALSE,4536
"A10K8ZSAU26T49",7,7228,60,"May 02 2014","14:42:08",20,"Switch",1,"Novel138",0,"Novel57",1,3211,2,2,"(May 02 2014 14:42:08)",FALSE,TRUE,FALSE,2,7,"No-Social",1,"km","eyescenter",-1,0,0,FALSE,3179
"A10LLZZHZVGWRW",0,19597,49,"Apr 06 2014","13:27:37",9,"Same",0,"Novel51",2,"Novel51",0,1754,4,3,"(Apr 06 2014 13:27:37)",TRUE,TRUE,TRUE,4,3,"No-Social",1,"km","eyescenter",-1,0,0,FALSE,3382
"A10LLZZHZVGWRW",1,19598,50,"Apr 06 2014","13:27:37",10,"Switch",0,"Novel135",2,"Novel24",0,1961,4,3,"(Apr 06 2014 13:27:37)",FALSE,TRUE,FALSE,4,3,"No-Social",1,"km","eyescenter",-1,0,0,FALSE,1769
"A10LLZZHZVGWRW",2,19599,51,"Apr 06 2014","13:27:37",11,"Same",1,"Novel122",1,"Novel122",1,896,4,3,"(Apr 06 2014 13:27:37)",TRUE,TRUE,FALSE,4,3,"No-Social",1,"km","eyescenter",-1,0,0,FALSE,2326
"A10LLZZHZVGWRW",3,19600,52,"Apr 06 2014","13:27:37",12,"Switch",1,"Novel40",0,"Novel40",0,1913,4,3,"(Apr 06 2014 13:27:37)",TRUE,TRUE,FALSE,4,3,"No-Social",1,"km","eyescenter",-1,0,0,FALSE,2339
"A10LLZZHZVGWRW",4,19605,57,"Apr 06 2014","13:27:37",17,"Same",0,"Novel25",1,"Novel25",2,1046,4,3,"(Apr 06 2014 13:27:37)",TRUE,TRUE,FALSE,4,3,"No-Social",1,"km","eyescenter",-1,0,0,FALSE,1720
"A10LLZZHZVGWRW",5,19606,58,"Apr 06 2014","13:27:37",18,"Switch",1,"Novel79",2,"Novel106",1,2874,4,3,"(Apr 06 2014 13:27:37)",FALSE,TRUE,FALSE,4,3,"No-Social",1,"km","eyescenter",-1,0,0,FALSE,2799
"A10LLZZHZVGWRW",6,19607,59,"Apr 06 2014","13:27:37",19,"Same",1,"Novel127",3,"Novel127",3,1156,4,3,"(Apr 06 2014 13:27:37)",TRUE,TRUE,FALSE,4,3,"No-Social",1,"km","eyescenter",-1,0,0,FALSE,2703
"A10LLZZHZVGWRW",7,19608,60,"Apr 06 2014","13:27:37",20,"Switch",0,"Novel100",0,"Novel100",1,4893,4,3,"(Apr 06 2014 13:27:37)",TRUE,TRUE,FALSE,4,3,"No-Social",1,"km","eyescenter",-1,0,0,FALSE,1689
"A10NAKQZQ4I9NH",0,81,121,"Apr 03 2013","20:27:34",7,"Same",0,"Novel71",2,"Novel71",1,1442,4,1,"(Apr 03 2013 20:27:34)",TRUE,TRUE,TRUE,4,1,"No-Social",1,"dy",NA,NA,NA,NA,NA,NA
"A10NAKQZQ4I9NH",1,82,122,"Apr 03 2013","20:27:34",8,"Switch",1,"Novel47",1,"Novel47",1,3826,4,1,"(Apr 03 2013 20:27:34)",TRUE,TRUE,FALSE,4,1,"No-Social",1,"dy",NA,NA,NA,NA,NA,NA
"A10NAKQZQ4I9NH",2,83,123,"Apr 03 2013","20:27:34",11,"Same",0,"Novel122",1,"Novel122",2,1013,4,1,"(Apr 03 2013 20:27:34)",TRUE,TRUE,FALSE,4,1,"No-Social",1,"dy",NA,NA,NA,NA,NA,NA
"A10NAKQZQ4I9NH",3,84,124,"Apr 03 2013","20:27:34",12,"Switch",1,"Novel82",0,"Novel82",0,4012,4,1,"(Apr 03 2013 20:27:34)",TRUE,TRUE,FALSE,4,1,"No-Social",1,"dy",NA,NA,NA,NA,NA,NA
"A10NAKQZQ4I9NH",4,85,125,"Apr 03 2013","20:27:34",15,"Same",1,"Novel24",3,"Novel24",3,1360,4,1,"(Apr 03 2013 20:27:34)",TRUE,TRUE,FALSE,4,1,"No-Social",1,"dy",NA,NA,NA,NA,NA,NA
"A10NAKQZQ4I9NH",5,86,126,"Apr 03 2013","20:27:34",16,"Switch",0,"Novel131",3,"Novel68",3,3808,4,1,"(Apr 03 2013 20:27:34)",FALSE,TRUE,FALSE,4,1,"No-Social",1,"dy",NA,NA,NA,NA,NA,NA
"A10NAKQZQ4I9NH",6,87,127,"Apr 03 2013","20:27:34",19,"Same",1,"Novel48",1,"Novel48",1,2790,4,1,"(Apr 03 2013 20:27:34)",TRUE,TRUE,FALSE,4,1,"No-Social",1,"dy",NA,NA,NA,NA,NA,NA
"A10NAKQZQ4I9NH",7,88,128,"Apr 03 2013","20:27:34",20,"Switch",0,"Novel111",0,"Novel21",1,3655,4,1,"(Apr 03 2013 20:27:34)",FALSE,TRUE,FALSE,4,1,"No-Social",1,"dy",NA,NA,NA,NA,NA,NA
"A10NEFAVKVWB8H",0,89,129,"Aug 11 2013","22:05:02",6,"Same",0,"Novel42",6,"Novel42",0,4738,8,0,"(Aug 11 2013 22:05:02)",TRUE,TRUE,TRUE,8,0,"No-Social",1,"dy",NA,NA,NA,NA,NA,NA
"A10NEFAVKVWB8H",1,90,130,"Aug 11 2013","22:05:02",8,"Switch",1,"Novel63",0,"Novel125",5,7820,8,0,"(Aug 11 2013 22:05:02)",FALSE,TRUE,FALSE,8,0,"No-Social",1,"dy",NA,NA,NA,NA,NA,NA
"A10NEFAVKVWB8H",2,91,131,"Aug 11 2013","22:05:02",10,"Same",1,"Novel97",3,"Novel97",3,1514,8,0,"(Aug 11 2013 22:05:02)",TRUE,TRUE,FALSE,8,0,"No-Social",1,"dy",NA,NA,NA,NA,NA,NA
"A10NEFAVKVWB8H",3,92,132,"Aug 11 2013","22:05:02",12,"Switch",0,"Novel77",3,"Novel119",2,3569,8,0,"(Aug 11 2013 22:05:02)",FALSE,TRUE,FALSE,8,0,"No-Social",1,"dy",NA,NA,NA,NA,NA,NA
"A10NEFAVKVWB8H",4,93,133,"Aug 11 2013","22:05:02",14,"Same",1,"Novel45",7,"Novel45",7,1244,8,0,"(Aug 11 2013 22:05:02)",TRUE,TRUE,FALSE,8,0,"No-Social",1,"dy",NA,NA,NA,NA,NA,NA
"A10NEFAVKVWB8H",5,94,134,"Aug 11 2013","22:05:02",16,"Switch",1,"Novel11",3,"Novel31",4,4289,8,0,"(Aug 11 2013 22:05:02)",FALSE,TRUE,FALSE,8,0,"No-Social",1,"dy",NA,NA,NA,NA,NA,NA
"A10NEFAVKVWB8H",6,95,135,"Aug 11 2013","22:05:02",18,"Same",0,"Novel69",0,"Novel15",1,3792,8,0,"(Aug 11 2013 22:05:02)",FALSE,TRUE,FALSE,8,0,"No-Social",1,"dy",NA,NA,NA,NA,NA,NA
"A10NEFAVKVWB8H",7,96,136,"Aug 11 2013","22:05:02",20,"Switch",0,"Novel66",2,"Novel12",4,2857,8,0,"(Aug 11 2013 22:05:02)",FALSE,TRUE,FALSE,8,0,"No-Social",1,"dy",NA,NA,NA,NA,NA,NA
"A10QVKS005YVLL",0,34294,26,"May 12 2014","07:39:45",6,"Same",1,"Novel21",1,"Novel21",1,1411,8,4,"(May 12 2014 07:39:45)",TRUE,TRUE,TRUE,8,0,"Social",1,"km","eyes_center",-1,0,0,TRUE,2062
"A10QVKS005YVLL",1,34296,28,"May 12 2014","07:39:45",8,"Switch",1,"Novel83",2,"Novel20",3,9611,8,4,"(May 12 2014 07:39:45)",FALSE,TRUE,FALSE,8,0,"Social",1,"km","eyes_center",-1,0,0,TRUE,1507
"A10QVKS005YVLL",2,34298,30,"May 12 2014","07:39:45",10,"Same",0,"Novel27",0,"Novel27",1,891,8,4,"(May 12 2014 07:39:45)",TRUE,TRUE,FALSE,8,0,"Social",1,"km","eyes_center",-1,0,0,TRUE,1572
"A10QVKS005YVLL",3,34300,32,"May 12 2014","07:39:45",12,"Switch",1,"Novel89",7,"Novel112",0,8254,8,4,"(May 12 2014 07:39:45)",FALSE,TRUE,FALSE,8,0,"Social",1,"km","eyes_center",-1,0,0,TRUE,1093
"A10QVKS005YVLL",4,34302,34,"May 12 2014","07:39:45",14,"Same",0,"Novel54",2,"Novel54",1,827,8,4,"(May 12 2014 07:39:45)",TRUE,TRUE,FALSE,8,0,"Social",1,"km","eyes_center",-1,0,0,TRUE,1158
"A10QVKS005YVLL",5,34304,36,"May 12 2014","07:39:45",16,"Switch",0,"Novel76",4,"Novel99",7,5372,8,4,"(May 12 2014 07:39:45)",FALSE,TRUE,FALSE,8,0,"Social",1,"km","eyes_center",-1,0,0,TRUE,979
"A10QVKS005YVLL",6,34306,38,"May 12 2014","07:39:45",18,"Same",1,"Novel84",7,"Novel84",7,852,8,4,"(May 12 2014 07:39:45)",TRUE,TRUE,FALSE,8,0,"Social",1,"km","eyes_center",-1,0,0,TRUE,4578
"A10QVKS005YVLL",7,34308,40,"May 12 2014","07:39:45",20,"Switch",0,"Novel118",3,"Novel118",0,3133,8,4,"(May 12 2014 07:39:45)",TRUE,TRUE,FALSE,8,0,"Social",1,"km","eyes_center",-1,0,0,TRUE,1964
"A10RI4TLDUCPM1",0,34315,47,"May 05 2014","21:18:13",7,"Switch",0,"Novel34",0,"Novel34",3,8508,8,1,"(May 05 2014 21:18:13)",TRUE,TRUE,TRUE,8,1,"No-Social",1,"km","eyes_center",-1,0,0,FALSE,8023
"A10RI4TLDUCPM1",1,34316,48,"May 05 2014","21:18:13",8,"Same",1,"Novel67",6,"Novel67",6,4176,8,1,"(May 05 2014 21:18:13)",TRUE,TRUE,FALSE,8,1,"No-Social",1,"km","eyes_center",-1,0,0,FALSE,4284
"A10RI4TLDUCPM1",2,34319,51,"May 05 2014","21:18:13",11,"Switch",1,"Novel9",0,"Novel9",0,4831,8,1,"(May 05 2014 21:18:13)",TRUE,TRUE,FALSE,8,1,"No-Social",1,"km","eyes_center",-1,0,0,FALSE,4453
"A10RI4TLDUCPM1",3,34320,52,"May 05 2014","21:18:13",12,"Same",0,"Novel15",7,"Novel15",6,3285,8,1,"(May 05 2014 21:18:13)",TRUE,TRUE,FALSE,8,1,"No-Social",1,"km","eyes_center",-1,0,0,FALSE,3741
"A10RI4TLDUCPM1",4,34323,55,"May 05 2014","21:18:13",15,"Switch",0,"Novel1",5,"Novel4",6,6527,8,1,"(May 05 2014 21:18:13)",FALSE,TRUE,FALSE,8,1,"No-Social",1,"km","eyes_center",-1,0,0,FALSE,7216
"A10RI4TLDUCPM1",5,34324,56,"May 05 2014","21:18:13",16,"Same",1,"Novel76",0,"Novel76",0,1810,8,1,"(May 05 2014 21:18:13)",TRUE,TRUE,FALSE,8,1,"No-Social",1,"km","eyes_center",-1,0,0,FALSE,3893
"A10RI4TLDUCPM1",6,34327,59,"May 05 2014","21:18:13",19,"Switch",1,"Novel8",3,"Novel37",0,8941,8,1,"(May 05 2014 21:18:13)",FALSE,TRUE,FALSE,8,1,"No-Social",1,"km","eyes_center",-1,0,0,FALSE,3942
"A10RI4TLDUCPM1",7,34328,60,"May 05 2014","21:18:13",20,"Same",0,"Novel81",7,"Novel81",2,2987,8,1,"(May 05 2014 21:18:13)",TRUE,TRUE,FALSE,8,1,"No-Social",1,"km","eyes_center",-1,0,0,FALSE,2783
"A10VJC5VW0IBYK",0,19621,73,"Apr 06 2014","18:33:45",13,"Switch",1,"Novel67",2,"Novel67",2,5329,4,2,"(Apr 06 2014 18:33:45)",TRUE,TRUE,TRUE,4,7,"No-Social",1,"km","eyescenter",-1,0,0,FALSE,7365
"A10VJC5VW0IBYK",1,19622,74,"Apr 06 2014","18:33:45",14,"Same",0,"Novel47",2,"Novel47",0,5477,4,2,"(Apr 06 2014 18:33:45)",TRUE,TRUE,FALSE,4,7,"No-Social",1,"km","eyescenter",-1,0,0,FALSE,5146
"A10VJC5VW0IBYK",2,19623,75,"Apr 06 2014","18:33:45",15,"Switch",0,"Novel95",0,"Novel95",1,3387,4,2,"(Apr 06 2014 18:33:45)",TRUE,TRUE,FALSE,4,7,"No-Social",1,"km","eyescenter",-1,0,0,FALSE,6017
"A10VJC5VW0IBYK",3,19624,76,"Apr 06 2014","18:33:45",16,"Same",1,"Novel60",0,"Novel60",0,3857,4,2,"(Apr 06 2014 18:33:45)",TRUE,TRUE,FALSE,4,7,"No-Social",1,"km","eyescenter",-1,0,0,FALSE,10058
"A10VJC5VW0IBYK",4,19625,77,"Apr 06 2014","18:33:45",17,"Switch",0,"Novel33",2,"Novel105",0,5339,4,2,"(Apr 06 2014 18:33:45)",FALSE,TRUE,FALSE,4,7,"No-Social",1,"km","eyescenter",-1,0,0,FALSE,2802
"A10VJC5VW0IBYK",5,19626,78,"Apr 06 2014","18:33:45",18,"Same",1,"Novel17",3,"Novel17",3,2765,4,2,"(Apr 06 2014 18:33:45)",TRUE,TRUE,FALSE,4,7,"No-Social",1,"km","eyescenter",-1,0,0,FALSE,4922
"A10VJC5VW0IBYK",6,19627,79,"Apr 06 2014","18:33:45",19,"Switch",1,"Novel68",0,"Novel68",0,5526,4,2,"(Apr 06 2014 18:33:45)",TRUE,TRUE,FALSE,4,7,"No-Social",1,"km","eyescenter",-1,0,0,FALSE,3274
"A10VJC5VW0IBYK",7,19628,80,"Apr 06 2014","18:33:45",20,"Same",0,"Novel27",2,"Novel27",0,3605,4,2,"(Apr 06 2014 18:33:45)",TRUE,TRUE,FALSE,4,7,"No-Social",1,"km","eyescenter",-1,0,0,FALSE,5218
"A10VQSMGPJFSMU",0,7235,67,"May 02 2014","20:00:48",7,"Switch",1,"Novel140",1,"Novel97",0,2930,2,1,"(May 02 2014 20:00:48)",FALSE,TRUE,TRUE,2,1,"No-Social",1,"km","eyescenter",-1,0,0,FALSE,3403
"A10VQSMGPJFSMU",1,7236,68,"May 02 2014","20:00:48",8,"Same",1,"Novel117",0,"Novel117",0,1628,2,1,"(May 02 2014 20:00:48)",TRUE,TRUE,FALSE,2,1,"No-Social",1,"km","eyescenter",-1,0,0,FALSE,1765
"A10VQSMGPJFSMU",2,7239,71,"May 02 2014","20:00:48",11,"Switch",0,"Novel132",1,"Novel132",0,2193,2,1,"(May 02 2014 20:00:48)",TRUE,TRUE,FALSE,2,1,"No-Social",1,"km","eyescenter",-1,0,0,FALSE,1695
"A10VQSMGPJFSMU",3,7240,72,"May 02 2014","20:00:48",12,"Same",0,"Novel96",1,"Novel96",0,888,2,1,"(May 02 2014 20:00:48)",TRUE,TRUE,FALSE,2,1,"No-Social",1,"km","eyescenter",-1,0,0,FALSE,2317
"A10VQSMGPJFSMU",4,7243,75,"May 02 2014","20:00:48",15,"Switch",1,"Novel130",1,"Novel130",1,1267,2,1,"(May 02 2014 20:00:48)",TRUE,TRUE,FALSE,2,1,"No-Social",1,"km","eyescenter",-1,0,0,FALSE,1541
"A10VQSMGPJFSMU",5,7244,76,"May 02 2014","20:00:48",16,"Same",1,"Novel48",0,"Novel48",0,1723,2,1,"(May 02 2014 20:00:48)",TRUE,TRUE,FALSE,2,1,"No-Social",1,"km","eyescenter",-1,0,0,FALSE,1498
"A10VQSMGPJFSMU",6,7247,79,"May 02 2014","20:00:48",19,"Switch",0,"Novel136",1,"Novel1",1,2085,2,1,"(May 02 2014 20:00:48)",FALSE,TRUE,FALSE,2,1,"No-Social",1,"km","eyescenter",-1,0,0,FALSE,1505
"A10VQSMGPJFSMU",7,7248,80,"May 02 2014","20:00:48",20,"Same",0,"Novel101",1,"Novel101",0,932,2,1,"(May 02 2014 20:00:48)",TRUE,TRUE,FALSE,2,1,"No-Social",1,"km","eyescenter",-1,0,0,FALSE,2181
"A10VSODCQEYZDJ",0,15001,73,"Mar 28 2014","13:55:48",13,"Switch",0,"Novel127",2,"Novel127",0,5132,4,2,"(Mar 28 2014 13:55:48)",NA,TRUE,TRUE,4,7,"No-Social",1,"km","eyescenter",-1,0,0,FALSE,11737
"A10VSODCQEYZDJ",1,15002,74,"Mar 28 2014","13:55:48",14,"Same",0,"Novel60",3,"Novel60",1,5534,4,2,"(Mar 28 2014 13:55:48)",TRUE,TRUE,FALSE,4,7,"No-Social",1,"km","eyescenter",-1,0,0,FALSE,8541
"A10VSODCQEYZDJ",2,15003,75,"Mar 28 2014","13:55:48",15,"Switch",1,"Novel100",2,"Novel100",2,5413,4,2,"(Mar 28 2014 13:55:48)",TRUE,TRUE,FALSE,4,7,"No-Social",1,"km","eyescenter",-1,0,0,FALSE,5813
"A10VSODCQEYZDJ",3,15004,76,"Mar 28 2014","13:55:48",16,"Same",0,"Novel80",0,"Novel6",3,5593,4,2,"(Mar 28 2014 13:55:48)",FALSE,TRUE,FALSE,4,7,"No-Social",1,"km","eyescenter",-1,0,0,FALSE,7599
"A10VSODCQEYZDJ",4,15005,77,"Mar 28 2014","13:55:48",17,"Switch",0,"Novel97",0,"Novel97",3,1375,4,2,"(Mar 28 2014 13:55:48)",TRUE,TRUE,FALSE,4,7,"No-Social",1,"km","eyescenter",-1,0,0,FALSE,7892
"A10VSODCQEYZDJ",5,15006,78,"Mar 28 2014","13:55:48",18,"Same",1,"Novel91",1,"Novel91",1,3549,4,2,"(Mar 28 2014 13:55:48)",TRUE,TRUE,FALSE,4,7,"No-Social",1,"km","eyescenter",-1,0,0,FALSE,6766
"A10VSODCQEYZDJ",6,15007,79,"Mar 28 2014","13:55:48",19,"Switch",1,"Novel19",3,"Novel19",3,6836,4,2,"(Mar 28 2014 13:55:48)",TRUE,TRUE,FALSE,4,7,"No-Social",1,"km","eyescenter",-1,0,0,FALSE,5029
"A10VSODCQEYZDJ",7,15008,80,"Mar 28 2014","13:55:48",20,"Same",1,"Novel116",1,"Novel116",1,2706,4,2,"(Mar 28 2014 13:55:48)",TRUE,TRUE,FALSE,4,7,"No-Social",1,"km","eyescenter",-1,0,0,FALSE,4132
"A10XYFXQYJKBXF",0,97,137,"Aug 11 2013","12:25:03",9,"Switch",1,"Novel78",1,"Novel78",1,2365,2,3,"(Aug 11 2013 12:25:03)",TRUE,TRUE,TRUE,2,3,"No-Social",1,"dy",NA,NA,NA,NA,NA,NA
"A10XYFXQYJKBXF",1,98,138,"Aug 11 2013","12:25:03",10,"Same",1,"Novel120",0,"Novel120",0,2148,2,3,"(Aug 11 2013 12:25:03)",TRUE,TRUE,FALSE,2,3,"No-Social",1,"dy",NA,NA,NA,NA,NA,NA
"A10XYFXQYJKBXF",2,99,139,"Aug 11 2013","12:25:03",11,"Switch",0,"Novel37",1,"Novel37",0,1789,2,3,"(Aug 11 2013 12:25:03)",TRUE,TRUE,FALSE,2,3,"No-Social",1,"dy",NA,NA,NA,NA,NA,NA
"A10XYFXQYJKBXF",3,100,140,"Aug 11 2013","12:25:03",12,"Same",0,"Novel49",0,"Novel49",1,2764,2,3,"(Aug 11 2013 12:25:03)",TRUE,TRUE,FALSE,2,3,"No-Social",1,"dy",NA,NA,NA,NA,NA,NA
"A10XYFXQYJKBXF",4,101,141,"Aug 11 2013","12:25:03",17,"Switch",1,"Novel106",0,"Novel14",1,1373,2,3,"(Aug 11 2013 12:25:03)",FALSE,TRUE,FALSE,2,3,"No-Social",1,"dy",NA,NA,NA,NA,NA,NA
"A10XYFXQYJKBXF",5,102,142,"Aug 11 2013","12:25:03",18,"Same",0,"Novel131",0,"Novel105",0,1348,2,3,"(Aug 11 2013 12:25:03)",FALSE,TRUE,FALSE,2,3,"No-Social",1,"dy",NA,NA,NA,NA,NA,NA
"A10XYFXQYJKBXF",6,103,143,"Aug 11 2013","12:25:03",19,"Switch",0,"Novel101",1,"Novel101",0,1832,2,3,"(Aug 11 2013 12:25:03)",TRUE,TRUE,FALSE,2,3,"No-Social",1,"dy",NA,NA,NA,NA,NA,NA
"A10XYFXQYJKBXF",7,104,144,"Aug 11 2013","12:25:03",20,"Same",1,"Novel74",0,"Novel63",1,1385,2,3,"(Aug 11 2013 12:25:03)",FALSE,TRUE,FALSE,2,3,"No-Social",1,"dy",NA,NA,NA,NA,NA,NA
"A10YS8AVLQWUZZ",0,7255,87,"May 02 2014","12:03:50",7,"Switch",0,"Novel99",0,"Novel99",1,6263,2,1,"(May 02 2014 12:03:50)",TRUE,TRUE,TRUE,2,1,"No-Social",1,"km","eyescenter",-1,0,0,FALSE,5133
"A10YS8AVLQWUZZ",1,7256,88,"May 02 2014","12:03:50",8,"Same",0,"Novel71",0,"Novel71",1,2527,2,1,"(May 02 2014 12:03:50)",TRUE,TRUE,FALSE,2,1,"No-Social",1,"km","eyescenter",-1,0,0,FALSE,7866
"A10YS8AVLQWUZZ",2,7259,91,"May 02 2014","12:03:50",11,"Switch",1,"Novel96",0,"Novel96",0,2185,2,1,"(May 02 2014 12:03:50)",TRUE,TRUE,FALSE,2,1,"No-Social",1,"km","eyescenter",-1,0,0,FALSE,3262
"A10YS8AVLQWUZZ",3,7260,92,"May 02 2014","12:03:50",12,"Same",1,"Novel38",1,"Novel38",1,2804,2,1,"(May 02 2014 12:03:50)",TRUE,TRUE,FALSE,2,1,"No-Social",1,"km","eyescenter",-1,0,0,FALSE,5718
"A10YS8AVLQWUZZ",4,7263,95,"May 02 2014","12:03:50",15,"Switch",1,"Novel23",0,"Novel23",0,2831,2,1,"(May 02 2014 12:03:50)",TRUE,TRUE,FALSE,2,1,"No-Social",1,"km","eyescenter",-1,0,0,FALSE,2726
"A10YS8AVLQWUZZ",5,7264,96,"May 02 2014","12:03:50",16,"Same",0,"Novel139",0,"Novel139",1,1447,2,1,"(May 02 2014 12:03:50)",TRUE,TRUE,FALSE,2,1,"No-Social",1,"km","eyescenter",-1,0,0,FALSE,2369
"A10YS8AVLQWUZZ",6,7267,99,"May 02 2014","12:03:50",19,"Switch",0,"Novel76",0,"Novel76",1,2849,2,1,"(May 02 2014 12:03:50)",TRUE,TRUE,FALSE,2,1,"No-Social",1,"km","eyescenter",-1,0,0,FALSE,2383
"A10YS8AVLQWUZZ",7,7268,100,"May 02 2014","12:03:50",20,"Same",1,"Novel25",1,"Novel25",1,2701,2,1,"(May 02 2014 12:03:50)",TRUE,TRUE,FALSE,2,1,"No-Social",1,"km","eyescenter",-1,0,0,FALSE,3012
"A1102MP1CZI32V",0,34335,67,"May 05 2014","16:42:55",7,"Switch",0,"Novel112",1,"Novel112",3,3756,8,1,"(May 05 2014 16:42:55)",TRUE,TRUE,TRUE,8,1,"No-Social",1,"km","eyes_center",-1,0,0,FALSE,2665
"A1102MP1CZI32V",1,34336,68,"May 05 2014","16:42:55",8,"Same",1,"Novel99",5,"Novel99",5,1403,8,1,"(May 05 2014 16:42:55)",TRUE,TRUE,FALSE,8,1,"No-Social",1,"km","eyes_center",-1,0,0,FALSE,3623
"A1102MP1CZI32V",2,34339,71,"May 05 2014","16:42:55",11,"Switch",1,"Novel65",4,"Novel104",3,4041,8,1,"(May 05 2014 16:42:55)",FALSE,TRUE,FALSE,8,1,"No-Social",1,"km","eyes_center",-1,0,0,FALSE,3279
"A1102MP1CZI32V",3,34340,72,"May 05 2014","16:42:55",12,"Same",1,"Novel100",3,"Novel100",3,1977,8,1,"(May 05 2014 16:42:55)",TRUE,TRUE,FALSE,8,1,"No-Social",1,"km","eyes_center",-1,0,0,FALSE,3403
"A1102MP1CZI32V",4,34343,75,"May 05 2014","16:42:55",15,"Switch",1,"Novel43",4,"Novel126",3,2480,8,1,"(May 05 2014 16:42:55)",FALSE,TRUE,FALSE,8,1,"No-Social",1,"km","eyes_center",-1,0,0,FALSE,2031
"A1102MP1CZI32V",5,34344,76,"May 05 2014","16:42:55",16,"Same",0,"Novel42",1,"Novel42",7,1182,8,1,"(May 05 2014 16:42:55)",TRUE,TRUE,FALSE,8,1,"No-Social",1,"km","eyes_center",-1,0,0,FALSE,3563
"A1102MP1CZI32V",6,34347,79,"May 05 2014","16:42:55",19,"Switch",0,"Novel28",1,"Novel32",3,2851,8,1,"(May 05 2014 16:42:55)",FALSE,TRUE,FALSE,8,1,"No-Social",1,"km","eyes_center",-1,0,0,FALSE,3764
"A1102MP1CZI32V",7,34348,80,"May 05 2014","16:42:55",20,"Same",0,"Novel21",6,"Novel21",4,2700,8,1,"(May 05 2014 16:42:55)",TRUE,TRUE,FALSE,8,1,"No-Social",1,"km","eyes_center",-1,0,0,FALSE,2755
"A113ZBYX5DAS4L",0,7274,106,"May 01 2014","18:00:20",6,"Same",1,"Novel48",1,"Novel48",1,1098,2,4,"(May 01 2014 18:00:20)",TRUE,TRUE,TRUE,2,0,"No-Social",1,"km","eyescenter",-1,0,0,FALSE,3081
"A113ZBYX5DAS4L",1,7276,108,"May 01 2014","18:00:20",8,"Switch",1,"Novel131",1,"Novel131",1,6136,2,4,"(May 01 2014 18:00:20)",TRUE,TRUE,FALSE,2,0,"No-Social",1,"km","eyescenter",-1,0,0,FALSE,3014
"A113ZBYX5DAS4L",2,7278,110,"May 01 2014","18:00:20",10,"Same",0,"Novel132",1,"Novel132",0,5189,2,4,"(May 01 2014 18:00:20)",TRUE,TRUE,FALSE,2,0,"No-Social",1,"km","eyescenter",-1,0,0,FALSE,4571
"A113ZBYX5DAS4L",3,7280,112,"May 01 2014","18:00:20",12,"Switch",0,"Novel105",1,"Novel63",1,961,2,4,"(May 01 2014 18:00:20)",FALSE,TRUE,FALSE,2,0,"No-Social",1,"km","eyescenter",-1,0,0,FALSE,3436
"A113ZBYX5DAS4L",4,7282,114,"May 01 2014","18:00:20",14,"Same",1,"Novel130",0,"Novel130",0,1048,2,4,"(May 01 2014 18:00:20)",TRUE,TRUE,FALSE,2,0,"No-Social",1,"km","eyescenter",-1,0,0,FALSE,2827
"A113ZBYX5DAS4L",5,7284,116,"May 01 2014","18:00:20",16,"Switch",0,"Novel79",1,"Novel79",0,917,2,4,"(May 01 2014 18:00:20)",TRUE,TRUE,FALSE,2,0,"No-Social",1,"km","eyescenter",-1,0,0,FALSE,2936
"A113ZBYX5DAS4L",6,7286,118,"May 01 2014","18:00:20",18,"Same",0,"Novel62",1,"Novel62",0,838,2,4,"(May 01 2014 18:00:20)",TRUE,TRUE,FALSE,2,0,"No-Social",1,"km","eyescenter",-1,0,0,FALSE,3696
"A113ZBYX5DAS4L",7,7288,120,"May 01 2014","18:00:20",20,"Switch",1,"Novel30",0,"Novel30",0,706,2,4,"(May 01 2014 18:00:20)",TRUE,TRUE,FALSE,2,0,"No-Social",1,"km","eyescenter",-1,0,0,FALSE,4140
"A11AC8ZZG6UC7U",0,15014,106,"Mar 28 2014","21:51:56",6,"Switch",0,"Novel61",2,"Novel38",0,1651,4,4,"(Mar 28 2014 21:51:56)",FALSE,TRUE,TRUE,4,0,"No-Social",1,"km","eyescenter",-1,0,0,FALSE,5268
"A11AC8ZZG6UC7U",1,15016,108,"Mar 28 2014","21:51:56",8,"Same",0,"Novel29",2,"Novel29",1,2523,4,4,"(Mar 28 2014 21:51:56)",TRUE,TRUE,FALSE,4,0,"No-Social",1,"km","eyescenter",-1,0,0,FALSE,2659
"A11AC8ZZG6UC7U",2,15018,110,"Mar 28 2014","21:51:56",10,"Switch",1,"Novel88",2,"Novel105",1,2265,4,4,"(Mar 28 2014 21:51:56)",FALSE,TRUE,FALSE,4,0,"No-Social",1,"km","eyescenter",-1,0,0,FALSE,3055
"A11AC8ZZG6UC7U",3,15020,112,"Mar 28 2014","21:51:56",12,"Same",1,"Novel25",3,"Novel92",2,928,4,4,"(Mar 28 2014 21:51:56)",NA,TRUE,FALSE,4,0,"No-Social",1,"km","eyescenter",-1,0,0,FALSE,285
"A11AC8ZZG6UC7U",4,15022,114,"Mar 28 2014","21:51:56",14,"Switch",0,"Novel12",2,"Novel125",3,984,4,4,"(Mar 28 2014 21:51:56)",FALSE,TRUE,FALSE,4,0,"No-Social",1,"km","eyescenter",-1,0,0,FALSE,970
"A11AC8ZZG6UC7U",5,15024,116,"Mar 28 2014","21:51:56",16,"Same",1,"Novel60",0,"Novel2",1,861,4,4,"(Mar 28 2014 21:51:56)",NA,TRUE,FALSE,4,0,"No-Social",1,"km","eyescenter",-1,0,0,FALSE,508
"A11AC8ZZG6UC7U",6,15026,118,"Mar 28 2014","21:51:56",18,"Switch",1,"Novel6",2,"Novel20",0,466,4,4,"(Mar 28 2014 21:51:56)",NA,TRUE,FALSE,4,0,"No-Social",1,"km","eyescenter",-1,0,0,FALSE,618
"A11AC8ZZG6UC7U",7,15028,120,"Mar 28 2014","21:51:56",20,"Same",0,"Novel86",2,"Novel81",3,231,4,4,"(Mar 28 2014 21:51:56)",NA,TRUE,FALSE,4,0,"No-Social",1,"km","eyescenter",-1,0,0,FALSE,58
"A11ANA7JWRJUZG",0,15037,129,"Mar 29 2014","14:23:10",9,"Switch",0,"Novel65",1,"Novel65",0,2274,4,3,"(Mar 29 2014 14:23:10)",TRUE,TRUE,TRUE,4,3,"Social",1,"km","eyescenter",-1,0,0,TRUE,4468
"A11ANA7JWRJUZG",1,15038,130,"Mar 29 2014","14:23:10",10,"Same",0,"Novel20",0,"Novel20",2,1611,4,3,"(Mar 29 2014 14:23:10)",TRUE,TRUE,FALSE,4,3,"Social",1,"km","eyescenter",-1,0,0,TRUE,1766
"A11ANA7JWRJUZG",2,15039,131,"Mar 29 2014","14:23:10",11,"Switch",1,"Novel51",1,"Novel134",0,3571,4,3,"(Mar 29 2014 14:23:10)",FALSE,TRUE,FALSE,4,3,"Social",1,"km","eyescenter",-1,0,0,TRUE,1651
"A11ANA7JWRJUZG",3,15040,132,"Mar 29 2014","14:23:10",12,"Same",1,"Novel55",3,"Novel55",3,1563,4,3,"(Mar 29 2014 14:23:10)",TRUE,TRUE,FALSE,4,3,"Social",1,"km","eyescenter",-1,0,0,TRUE,1899
"A11ANA7JWRJUZG",4,15045,137,"Mar 29 2014","14:23:10",17,"Switch",0,"Novel1",2,"Novel76",0,3885,4,3,"(Mar 29 2014 14:23:10)",FALSE,TRUE,FALSE,4,3,"Social",1,"km","eyescenter",-1,0,0,TRUE,1385
"A11ANA7JWRJUZG",5,15046,138,"Mar 29 2014","14:23:10",18,"Same",1,"Novel9",3,"Novel9",3,2095,4,3,"(Mar 29 2014 14:23:10)",TRUE,TRUE,FALSE,4,3,"Social",1,"km","eyescenter",-1,0,0,TRUE,1311
"A11ANA7JWRJUZG",6,15047,139,"Mar 29 2014","14:23:10",19,"Switch",1,"Novel113",2,"Novel113",2,2427,4,3,"(Mar 29 2014 14:23:10)",TRUE,TRUE,FALSE,4,3,"Social",1,"km","eyescenter",-1,0,0,TRUE,1465
"A11ANA7JWRJUZG",7,15048,140,"Mar 29 2014","14:23:10",20,"Same",0,"Novel106",2,"Novel106",1,1249,4,3,"(Mar 29 2014 14:23:10)",TRUE,TRUE,FALSE,4,3,"Social",1,"km","eyescenter",-1,0,0,TRUE,827
"A11DPUCF844DPM",0,26614,26,"Apr 11 2014","13:52:43",6,"Switch",1,"Novel134",0,"Novel119",1,2820,6,4,"(Apr 11 2014 13:52:43)",FALSE,TRUE,TRUE,6,0,"Social",1,"km","eyescenter",-1,0,0,TRUE,2564
"A11DPUCF844DPM",1,26616,28,"Apr 11 2014","13:52:43",8,"Same",0,"Novel8",4,"Novel8",5,833,6,4,"(Apr 11 2014 13:52:43)",TRUE,TRUE,FALSE,6,0,"Social",1,"km","eyescenter",-1,0,0,TRUE,2551
"A11DPUCF844DPM",2,26618,30,"Apr 11 2014","13:52:43",10,"Switch",0,"Novel30",1,"Novel21",1,5626,6,4,"(Apr 11 2014 13:52:43)",FALSE,TRUE,FALSE,6,0,"Social",1,"km","eyescenter",-1,0,0,TRUE,1135
"A11DPUCF844DPM",3,26620,32,"Apr 11 2014","13:52:43",12,"Same",1,"Novel78",4,"Novel78",4,600,6,4,"(Apr 11 2014 13:52:43)",TRUE,TRUE,FALSE,6,0,"Social",1,"km","eyescenter",-1,0,0,TRUE,1734
"A11DPUCF844DPM",4,26622,34,"Apr 11 2014","13:52:43",14,"Switch",0,"Novel123",5,"Novel94",3,3489,6,4,"(Apr 11 2014 13:52:43)",FALSE,TRUE,FALSE,6,0,"Social",1,"km","eyescenter",-1,0,0,TRUE,1044
"A11DPUCF844DPM",5,26624,36,"Apr 11 2014","13:52:43",16,"Same",1,"Novel67",1,"Novel67",1,538,6,4,"(Apr 11 2014 13:52:43)",TRUE,TRUE,FALSE,6,0,"Social",1,"km","eyescenter",-1,0,0,TRUE,1939
"A11DPUCF844DPM",6,26626,38,"Apr 11 2014","13:52:43",18,"Switch",1,"Novel93",2,"Novel71",5,983,6,4,"(Apr 11 2014 13:52:43)",FALSE,TRUE,FALSE,6,0,"Social",1,"km","eyescenter",-1,0,0,TRUE,1668
"A11DPUCF844DPM",7,26628,40,"Apr 11 2014","13:52:43",20,"Same",0,"Novel80",2,"Novel80",1,772,6,4,"(Apr 11 2014 13:52:43)",TRUE,TRUE,FALSE,6,0,"Social",1,"km","eyescenter",-1,0,0,TRUE,805
"A11HW2YHQ89EQG",1,22802,34,"Apr 22 2014","14:55:29",14,"Same",0,"Novel75",1,"Novel70",3,2967,4,2,"(Apr 22 2014 14:55:29)",FALSE,TRUE,FALSE,4,7,"Social",1,"km","eyescenter",-1,0,0,TRUE,1395
"A11HW2YHQ89EQG",2,22803,35,"Apr 22 2014","14:55:29",15,"Switch",1,"Novel41",2,"Novel35",1,2350,4,2,"(Apr 22 2014 14:55:29)",FALSE,TRUE,FALSE,4,7,"Social",1,"km","eyescenter",-1,0,0,TRUE,1313
"A11HW2YHQ89EQG",3,22804,36,"Apr 22 2014","14:55:29",16,"Same",1,"Novel84",0,"Novel38",1,1516,4,2,"(Apr 22 2014 14:55:29)",FALSE,TRUE,FALSE,4,7,"Social",1,"km","eyescenter",-1,0,0,TRUE,3327
"A11HW2YHQ89EQG",4,22805,37,"Apr 22 2014","14:55:29",17,"Switch",1,"Novel115",0,"Novel99",2,1773,4,2,"(Apr 22 2014 14:55:29)",FALSE,TRUE,FALSE,4,7,"Social",1,"km","eyescenter",-1,0,0,TRUE,1356
"A11HW2YHQ89EQG",5,22806,38,"Apr 22 2014","14:55:29",18,"Same",1,"Novel65",3,"Novel65",3,3686,4,2,"(Apr 22 2014 14:55:29)",TRUE,TRUE,FALSE,4,7,"Social",1,"km","eyescenter",-1,0,0,TRUE,1188
"A11HW2YHQ89EQG",6,22807,39,"Apr 22 2014","14:55:29",19,"Switch",0,"Novel104",3,"Novel6",0,2496,4,2,"(Apr 22 2014 14:55:29)",FALSE,TRUE,FALSE,4,7,"Social",1,"km","eyescenter",-1,0,0,TRUE,624
"A11HW2YHQ89EQG",7,22808,40,"Apr 22 2014","14:55:29",20,"Same",0,"Novel110",0,"Novel31",0,3698,4,2,"(Apr 22 2014 14:55:29)",FALSE,TRUE,FALSE,4,7,"Social",1,"km","eyescenter",-1,0,0,TRUE,1054
"A11WZN316TJ69L",0,19654,106,"Apr 06 2014","17:22:27",6,"Same",1,"Novel22",1,"Novel22",1,1168,4,4,"(Apr 06 2014 17:22:27)",TRUE,TRUE,TRUE,4,0,"Social",1,"km","eyescenter",-1,0,0,TRUE,1531
"A11WZN316TJ69L",1,19656,108,"Apr 06 2014","17:22:27",8,"Switch",0,"Novel72",3,"Novel24",0,936,4,4,"(Apr 06 2014 17:22:27)",FALSE,TRUE,FALSE,4,0,"Social",1,"km","eyescenter",-1,0,0,TRUE,1781
"A11WZN316TJ69L",2,19658,110,"Apr 06 2014","17:22:27",10,"Same",0,"Novel71",3,"Novel28",3,1016,4,4,"(Apr 06 2014 17:22:27)",FALSE,TRUE,FALSE,4,0,"Social",1,"km","eyescenter",-1,0,0,TRUE,1783
"A11WZN316TJ69L",3,19660,112,"Apr 06 2014","17:22:27",12,"Switch",0,"Novel33",2,"Novel33",3,2577,4,4,"(Apr 06 2014 17:22:27)",NA,TRUE,FALSE,4,0,"Social",1,"km","eyescenter",-1,0,0,TRUE,463
"A11WZN316TJ69L",4,19662,114,"Apr 06 2014","17:22:27",14,"Same",0,"Novel86",3,"Novel86",1,879,4,4,"(Apr 06 2014 17:22:27)",TRUE,TRUE,FALSE,4,0,"Social",1,"km","eyescenter",-1,0,0,TRUE,1416
"A11WZN316TJ69L",5,19664,116,"Apr 06 2014","17:22:27",16,"Switch",1,"Novel89",3,"Novel3",0,4454,4,4,"(Apr 06 2014 17:22:27)",FALSE,TRUE,FALSE,4,0,"Social",1,"km","eyescenter",-1,0,0,TRUE,1471
"A11WZN316TJ69L",6,19666,118,"Apr 06 2014","17:22:27",18,"Same",1,"Novel23",3,"Novel23",3,897,4,4,"(Apr 06 2014 17:22:27)",TRUE,TRUE,FALSE,4,0,"Social",1,"km","eyescenter",-1,0,0,TRUE,1477
"A11WZN316TJ69L",7,19668,120,"Apr 06 2014","17:22:27",20,"Switch",1,"Novel2",1,"Novel107",3,7534,4,4,"(Apr 06 2014 17:22:27)",NA,TRUE,FALSE,4,0,"Social",1,"km","eyescenter",-1,0,0,TRUE,459
"A11YOOX5ZN0Z9C",1,26636,48,"Apr 10 2014","18:16:32",8,"Switch",1,"Novel95",2,"Novel95",2,6072,6,4,"(Apr 10 2014 18:16:32)",TRUE,TRUE,FALSE,6,0,"Social",1,"km","eyescenter",-1,0,0,TRUE,4293
"A11YOOX5ZN0Z9C",2,26638,50,"Apr 10 2014","18:16:32",10,"Same",0,"Novel111",0,"Novel111",4,1668,6,4,"(Apr 10 2014 18:16:32)",TRUE,TRUE,FALSE,6,0,"Social",1,"km","eyescenter",-1,0,0,TRUE,4217
"A11YOOX5ZN0Z9C",3,26640,52,"Apr 10 2014","18:16:32",12,"Switch",0,"Novel128",4,"Novel69",1,3647,6,4,"(Apr 10 2014 18:16:32)",FALSE,TRUE,FALSE,6,0,"Social",1,"km","eyescenter",-1,0,0,TRUE,1583
"A11YOOX5ZN0Z9C",4,26642,54,"Apr 10 2014","18:16:32",14,"Same",0,"Novel90",4,"Novel90",5,762,6,4,"(Apr 10 2014 18:16:32)",TRUE,TRUE,FALSE,6,0,"Social",1,"km","eyescenter",-1,0,0,TRUE,1859
"A11YOOX5ZN0Z9C",5,26644,56,"Apr 10 2014","18:16:32",16,"Switch",1,"Novel17",5,"Novel17",5,3881,6,4,"(Apr 10 2014 18:16:32)",TRUE,TRUE,FALSE,6,0,"Social",1,"km","eyescenter",-1,0,0,TRUE,2322
"A11YOOX5ZN0Z9C",6,26646,58,"Apr 10 2014","18:16:32",18,"Same",1,"Novel6",0,"Novel6",0,471,6,4,"(Apr 10 2014 18:16:32)",NA,TRUE,FALSE,6,0,"Social",1,"km","eyescenter",-1,0,0,TRUE,1596
"A11YOOX5ZN0Z9C",7,26648,60,"Apr 10 2014","18:16:32",20,"Switch",0,"Novel135",5,"Novel57",1,3599,6,4,"(Apr 10 2014 18:16:32)",FALSE,TRUE,FALSE,6,0,"Social",1,"km","eyescenter",-1,0,0,TRUE,1606
"A11YS0T8MV3Q7C",0,105,177,"Aug 12 2013","04:53:22",7,"Same",0,"Novel59",7,"Novel59",5,1750,8,1,"(Aug 12 2013 04:53:22)",TRUE,TRUE,TRUE,8,1,"No-Social",1,"dy",NA,NA,NA,NA,NA,NA
"A11YS0T8MV3Q7C",1,106,178,"Aug 12 2013","04:53:22",8,"Switch",1,"Novel51",7,"Novel82",5,4783,8,1,"(Aug 12 2013 04:53:22)",FALSE,TRUE,FALSE,8,1,"No-Social",1,"dy",NA,NA,NA,NA,NA,NA
"A11YS0T8MV3Q7C",2,107,179,"Aug 12 2013","04:53:22",11,"Same",1,"Novel81",0,"Novel81",0,1971,8,1,"(Aug 12 2013 04:53:22)",TRUE,TRUE,FALSE,8,1,"No-Social",1,"dy",NA,NA,NA,NA,NA,NA
"A11YS0T8MV3Q7C",3,108,180,"Aug 12 2013","04:53:22",12,"Switch",0,"Novel5",4,"Novel10",7,5988,8,1,"(Aug 12 2013 04:53:22)",FALSE,TRUE,FALSE,8,1,"No-Social",1,"dy",NA,NA,NA,NA,NA,NA
"A11YS0T8MV3Q7C",4,109,181,"Aug 12 2013","04:53:22",15,"Same",1,"Novel52",4,"Novel52",4,1645,8,1,"(Aug 12 2013 04:53:22)",TRUE,TRUE,FALSE,8,1,"No-Social",1,"dy",NA,NA,NA,NA,NA,NA
"A11YS0T8MV3Q7C",5,110,182,"Aug 12 2013","04:53:22",16,"Switch",1,"Novel21",2,"Novel21",2,2594,8,1,"(Aug 12 2013 04:53:22)",TRUE,TRUE,FALSE,8,1,"No-Social",1,"dy",NA,NA,NA,NA,NA,NA
"A11YS0T8MV3Q7C",6,111,183,"Aug 12 2013","04:53:22",19,"Same",0,"Novel33",0,"Novel33",1,2042,8,1,"(Aug 12 2013 04:53:22)",TRUE,TRUE,FALSE,8,1,"No-Social",1,"dy",NA,NA,NA,NA,NA,NA
"A11YS0T8MV3Q7C",7,112,184,"Aug 12 2013","04:53:22",20,"Switch",0,"Novel58",3,"Novel58",7,5345,8,1,"(Aug 12 2013 04:53:22)",TRUE,TRUE,FALSE,8,1,"No-Social",1,"dy",NA,NA,NA,NA,NA,NA
"A11ZZ2OY04S64C",0,113,185,"Apr 03 2013","03:51:50",9,"Same",0,"Novel45",5,"Novel45",7,2899,8,3,"(Apr 03 2013 03:51:50)",TRUE,TRUE,TRUE,8,3,"No-Social",1,"dy",NA,NA,NA,NA,NA,NA
"A11ZZ2OY04S64C",1,114,186,"Apr 03 2013","03:51:50",10,"Switch",0,"Novel136",4,"Novel47",0,6421,8,3,"(Apr 03 2013 03:51:50)",FALSE,TRUE,FALSE,8,3,"No-Social",1,"dy",NA,NA,NA,NA,NA,NA
"A11ZZ2OY04S64C",2,115,187,"Apr 03 2013","03:51:50",11,"Same",1,"Novel138",4,"Novel138",4,2204,8,3,"(Apr 03 2013 03:51:50)",TRUE,TRUE,FALSE,8,3,"No-Social",1,"dy",NA,NA,NA,NA,NA,NA
"A11ZZ2OY04S64C",3,116,188,"Apr 03 2013","03:51:50",12,"Switch",0,"Novel8",6,"Novel8",1,6153,8,3,"(Apr 03 2013 03:51:50)",TRUE,TRUE,FALSE,8,3,"No-Social",1,"dy",NA,NA,NA,NA,NA,NA
"A11ZZ2OY04S64C",4,117,189,"Apr 03 2013","03:51:50",17,"Same",0,"Novel22",7,"Novel22",1,1956,8,3,"(Apr 03 2013 03:51:50)",TRUE,TRUE,FALSE,8,3,"No-Social",1,"dy",NA,NA,NA,NA,NA,NA
"A11ZZ2OY04S64C",5,118,190,"Apr 03 2013","03:51:50",18,"Switch",1,"Novel85",0,"Novel85",0,4657,8,3,"(Apr 03 2013 03:51:50)",TRUE,TRUE,FALSE,8,3,"No-Social",1,"dy",NA,NA,NA,NA,NA,NA
"A11ZZ2OY04S64C",6,119,191,"Apr 03 2013","03:51:50",19,"Same",1,"Novel30",7,"Novel30",7,2750,8,3,"(Apr 03 2013 03:51:50)",TRUE,TRUE,FALSE,8,3,"No-Social",1,"dy",NA,NA,NA,NA,NA,NA
"A11ZZ2OY04S64C",7,120,192,"Apr 03 2013","03:51:50",20,"Switch",1,"Novel37",7,"Novel72",2,3736,8,3,"(Apr 03 2013 03:51:50)",FALSE,TRUE,FALSE,8,3,"No-Social",1,"dy",NA,NA,NA,NA,NA,NA
"A123F7829DTAYZ",0,22814,46,"Apr 22 2014","13:41:50",6,"Switch",0,"Novel24",2,"Novel73",2,4055,4,4,"(Apr 22 2014 13:41:50)",FALSE,TRUE,TRUE,4,0,"Social",1,"km","eyescenter",-1,0,0,TRUE,1296
"A123F7829DTAYZ",1,22816,48,"Apr 22 2014","13:41:50",8,"Same",1,"Novel134",0,"Novel134",0,874,4,4,"(Apr 22 2014 13:41:50)",TRUE,TRUE,FALSE,4,0,"Social",1,"km","eyescenter",-1,0,0,TRUE,1320
"A123F7829DTAYZ",2,22818,50,"Apr 22 2014","13:41:50",10,"Switch",0,"Novel16",0,"Novel21",0,2073,4,4,"(Apr 22 2014 13:41:50)",FALSE,TRUE,FALSE,4,0,"Social",1,"km","eyescenter",-1,0,0,TRUE,979
"A123F7829DTAYZ",3,22820,52,"Apr 22 2014","13:41:50",12,"Same",1,"Novel80",2,"Novel80",2,224,4,4,"(Apr 22 2014 13:41:50)",NA,TRUE,FALSE,4,0,"Social",1,"km","eyescenter",-1,0,0,TRUE,2565
"A123F7829DTAYZ",4,22822,54,"Apr 22 2014","13:41:50",14,"Switch",1,"Novel92",0,"Novel92",0,1761,4,4,"(Apr 22 2014 13:41:50)",TRUE,TRUE,FALSE,4,0,"Social",1,"km","eyescenter",-1,0,0,TRUE,1240
"A123F7829DTAYZ",5,22824,56,"Apr 22 2014","13:41:50",16,"Same",0,"Novel106",0,"Novel106",3,241,4,4,"(Apr 22 2014 13:41:50)",NA,TRUE,FALSE,4,0,"Social",1,"km","eyescenter",-1,0,0,TRUE,5352
"A123F7829DTAYZ",6,22826,58,"Apr 22 2014","13:41:50",18,"Switch",1,"Novel31",3,"Novel31",3,5035,4,4,"(Apr 22 2014 13:41:50)",TRUE,TRUE,FALSE,4,0,"Social",1,"km","eyescenter",-1,0,0,TRUE,1055
"A123F7829DTAYZ",7,22828,60,"Apr 22 2014","13:41:50",20,"Same",0,"Novel46",2,"Novel46",1,5662,4,4,"(Apr 22 2014 13:41:50)",TRUE,TRUE,FALSE,4,0,"Social",1,"km","eyescenter",-1,0,0,TRUE,9675
"A123ZFE2DN7ZYB",0,7297,129,"May 02 2014","14:32:50",9,"Switch",1,"Novel110",0,"Novel110",0,2799,2,3,"(May 02 2014 14:32:50)",TRUE,TRUE,TRUE,2,3,"No-Social",1,"km","eyescenter",-1,0,0,FALSE,4387
"A123ZFE2DN7ZYB",1,7298,130,"May 02 2014","14:32:50",10,"Same",1,"Novel37",1,"Novel37",1,1392,2,3,"(May 02 2014 14:32:50)",TRUE,TRUE,FALSE,2,3,"No-Social",1,"km","eyescenter",-1,0,0,FALSE,2349
"A123ZFE2DN7ZYB",2,7299,131,"May 02 2014","14:32:50",11,"Switch",0,"Novel80",0,"Novel80",1,2184,2,3,"(May 02 2014 14:32:50)",TRUE,TRUE,FALSE,2,3,"No-Social",1,"km","eyescenter",-1,0,0,FALSE,2919
"A123ZFE2DN7ZYB",3,7300,132,"May 02 2014","14:32:50",12,"Same",0,"Novel97",1,"Novel97",0,1456,2,3,"(May 02 2014 14:32:50)",TRUE,TRUE,FALSE,2,3,"No-Social",1,"km","eyescenter",-1,0,0,FALSE,3875
"A123ZFE2DN7ZYB",4,7305,137,"May 02 2014","14:32:50",17,"Switch",1,"Novel87",0,"Novel87",0,1962,2,3,"(May 02 2014 14:32:50)",TRUE,TRUE,FALSE,2,3,"No-Social",1,"km","eyescenter",-1,0,0,FALSE,3649
"A123ZFE2DN7ZYB",5,7306,138,"May 02 2014","14:32:50",18,"Same",0,"Novel17",1,"Novel17",0,1170,2,3,"(May 02 2014 14:32:50)",TRUE,TRUE,FALSE,2,3,"No-Social",1,"km","eyescenter",-1,0,0,FALSE,3101
"A123ZFE2DN7ZYB",6,7307,139,"May 02 2014","14:32:50",19,"Switch",0,"Novel50",0,"Novel50",1,1916,2,3,"(May 02 2014 14:32:50)",TRUE,TRUE,FALSE,2,3,"No-Social",1,"km","eyescenter",-1,0,0,FALSE,2871
"A123ZFE2DN7ZYB",7,7308,140,"May 02 2014","14:32:50",20,"Same",1,"Novel46",0,"Novel46",0,2119,2,3,"(May 02 2014 14:32:50)",TRUE,TRUE,FALSE,2,3,"No-Social",1,"km","eyescenter",-1,0,0,FALSE,3516
"A124IF79B16MHB",0,121,193,"Aug 11 2013","21:04:44",9,"Same",0,"Novel112",4,"Novel92",3,5579,8,3,"(Aug 11 2013 21:04:44)",FALSE,TRUE,TRUE,8,3,"No-Social",1,"dy",NA,NA,NA,NA,NA,NA
"A124IF79B16MHB",1,122,194,"Aug 11 2013","21:04:44",10,"Switch",0,"Novel46",4,"Novel86",4,7287,8,3,"(Aug 11 2013 21:04:44)",FALSE,TRUE,FALSE,8,3,"No-Social",1,"dy",NA,NA,NA,NA,NA,NA
"A124IF79B16MHB",2,123,195,"Aug 11 2013","21:04:44",11,"Same",0,"Novel104",3,"Novel104",1,2385,8,3,"(Aug 11 2013 21:04:44)",TRUE,TRUE,FALSE,8,3,"No-Social",1,"dy",NA,NA,NA,NA,NA,NA
"A124IF79B16MHB",3,124,196,"Aug 11 2013","21:04:44",12,"Switch",0,"Novel49",5,"Novel6",7,8153,8,3,"(Aug 11 2013 21:04:44)",FALSE,TRUE,FALSE,8,3,"No-Social",1,"dy",NA,NA,NA,NA,NA,NA
"A124IF79B16MHB",4,125,197,"Aug 11 2013","21:04:44",17,"Same",1,"Novel134",2,"Novel63",1,10912,8,3,"(Aug 11 2013 21:04:44)",NA,TRUE,FALSE,8,3,"No-Social",1,"dy",NA,NA,NA,NA,NA,NA
"A124IF79B16MHB",5,126,198,"Aug 11 2013","21:04:44",18,"Switch",1,"Novel55",7,"Novel115",3,3422,8,3,"(Aug 11 2013 21:04:44)",FALSE,TRUE,FALSE,8,3,"No-Social",1,"dy",NA,NA,NA,NA,NA,NA
"A124IF79B16MHB",6,127,199,"Aug 11 2013","21:04:44",19,"Same",1,"Novel73",5,"Novel71",3,3737,8,3,"(Aug 11 2013 21:04:44)",FALSE,TRUE,FALSE,8,3,"No-Social",1,"dy",NA,NA,NA,NA,NA,NA
"A124IF79B16MHB",7,128,200,"Aug 11 2013","21:04:44",20,"Switch",1,"Novel103",4,"Novel103",4,5079,8,3,"(Aug 11 2013 21:04:44)",TRUE,TRUE,FALSE,8,3,"No-Social",1,"dy",NA,NA,NA,NA,NA,NA
"A124NJNCAG5E6E",0,15057,149,"Mar 28 2014","07:38:07",9,"Switch",0,"Novel115",0,"Novel115",3,14268,4,3,"(Mar 28 2014 07:38:07)",NA,TRUE,TRUE,4,3,"Social",1,"km","eyescenter",-1,0,0,TRUE,1782
"A124NJNCAG5E6E",1,15058,150,"Mar 28 2014","07:38:07",10,"Same",1,"Novel46",0,"Novel46",0,1105,4,3,"(Mar 28 2014 07:38:07)",TRUE,TRUE,FALSE,4,3,"Social",1,"km","eyescenter",-1,0,0,TRUE,1385
"A124NJNCAG5E6E",2,15059,151,"Mar 28 2014","07:38:07",11,"Switch",1,"Novel23",3,"Novel23",3,5299,4,3,"(Mar 28 2014 07:38:07)",TRUE,TRUE,FALSE,4,3,"Social",1,"km","eyescenter",-1,0,0,TRUE,1055
"A124NJNCAG5E6E",3,15060,152,"Mar 28 2014","07:38:07",12,"Same",0,"Novel95",3,"Novel140",0,3099,4,3,"(Mar 28 2014 07:38:07)",FALSE,TRUE,FALSE,4,3,"Social",1,"km","eyescenter",-1,0,0,TRUE,1479
"A124NJNCAG5E6E",4,15065,157,"Mar 28 2014","07:38:07",17,"Switch",0,"Novel84",1,"Novel84",0,4784,4,3,"(Mar 28 2014 07:38:07)",TRUE,TRUE,FALSE,4,3,"Social",1,"km","eyescenter",-1,0,0,TRUE,2372
"A124NJNCAG5E6E",5,15066,158,"Mar 28 2014","07:38:07",18,"Same",0,"Novel57",1,"Novel57",3,1351,4,3,"(Mar 28 2014 07:38:07)",TRUE,TRUE,FALSE,4,3,"Social",1,"km","eyescenter",-1,0,0,TRUE,2925
"A124NJNCAG5E6E",6,15067,159,"Mar 28 2014","07:38:07",19,"Switch",1,"Novel41",1,"Novel10",2,8179,4,3,"(Mar 28 2014 07:38:07)",FALSE,TRUE,FALSE,4,3,"Social",1,"km","eyescenter",-1,0,0,TRUE,1343
"A124NJNCAG5E6E",7,15068,160,"Mar 28 2014","07:38:07",20,"Same",1,"Novel113",3,"Novel113",3,1745,4,3,"(Mar 28 2014 07:38:07)",TRUE,TRUE,FALSE,4,3,"Social",1,"km","eyescenter",-1,0,0,TRUE,1793
"A124T5AVHGY5C2",0,129,201,"Aug 11 2013","20:02:53",6,"Same",0,"Novel126",1,"Novel126",0,761,4,0,"(Aug 11 2013 20:02:53)",TRUE,TRUE,TRUE,4,0,"No-Social",1,"dy",NA,NA,NA,NA,NA,NA
"A124T5AVHGY5C2",1,130,202,"Aug 11 2013","20:02:53",8,"Switch",1,"Novel34",3,"Novel130",1,1918,4,0,"(Aug 11 2013 20:02:53)",FALSE,TRUE,FALSE,4,0,"No-Social",1,"dy",NA,NA,NA,NA,NA,NA
"A124T5AVHGY5C2",2,131,203,"Aug 11 2013","20:02:53",10,"Same",1,"Novel58",2,"Novel58",2,701,4,0,"(Aug 11 2013 20:02:53)",TRUE,TRUE,FALSE,4,0,"No-Social",1,"dy",NA,NA,NA,NA,NA,NA
"A124T5AVHGY5C2",3,132,204,"Aug 11 2013","20:02:53",12,"Switch",0,"Novel8",3,"Novel96",2,819,4,0,"(Aug 11 2013 20:02:53)",FALSE,TRUE,FALSE,4,0,"No-Social",1,"dy",NA,NA,NA,NA,NA,NA
"A124T5AVHGY5C2",4,133,205,"Aug 11 2013","20:02:53",14,"Same",1,"Novel12",1,"Novel12",1,634,4,0,"(Aug 11 2013 20:02:53)",TRUE,TRUE,FALSE,4,0,"No-Social",1,"dy",NA,NA,NA,NA,NA,NA
"A124T5AVHGY5C2",5,134,206,"Aug 11 2013","20:02:53",16,"Switch",1,"Novel36",3,"Novel24",1,756,4,0,"(Aug 11 2013 20:02:53)",FALSE,TRUE,FALSE,4,0,"No-Social",1,"dy",NA,NA,NA,NA,NA,NA
"A124T5AVHGY5C2",6,135,207,"Aug 11 2013","20:02:53",18,"Same",0,"Novel121",0,"Novel121",2,696,4,0,"(Aug 11 2013 20:02:53)",TRUE,TRUE,FALSE,4,0,"No-Social",1,"dy",NA,NA,NA,NA,NA,NA
"A124T5AVHGY5C2",7,136,208,"Aug 11 2013","20:02:53",20,"Switch",0,"Novel38",0,"Novel23",1,616,4,0,"(Aug 11 2013 20:02:53)",FALSE,TRUE,FALSE,4,0,"No-Social",1,"dy",NA,NA,NA,NA,NA,NA
"A12C1M9UZ1DZ9H",0,26674,86,"Apr 11 2014","21:55:12",6,"Switch",0,"Novel62",5,"Novel9",2,7278,6,4,"(Apr 11 2014 21:55:12)",FALSE,TRUE,TRUE,6,0,"Social",1,"km","eyescenter",-1,0,0,TRUE,8300
"A12C1M9UZ1DZ9H",1,26676,88,"Apr 11 2014","21:55:12",8,"Same",0,"Novel125",1,"Novel125",0,1398,6,4,"(Apr 11 2014 21:55:12)",TRUE,TRUE,FALSE,6,0,"Social",1,"km","eyescenter",-1,0,0,TRUE,9421
"A12C1M9UZ1DZ9H",2,26678,90,"Apr 11 2014","21:55:12",10,"Switch",0,"Novel124",1,"Novel1",1,9689,6,4,"(Apr 11 2014 21:55:12)",FALSE,TRUE,FALSE,6,0,"Social",1,"km","eyescenter",-1,0,0,TRUE,2601
"A12C1M9UZ1DZ9H",3,26680,92,"Apr 11 2014","21:55:12",12,"Same",0,"Novel30",2,"Novel30",3,2031,6,4,"(Apr 11 2014 21:55:12)",TRUE,TRUE,FALSE,6,0,"Social",1,"km","eyescenter",-1,0,0,TRUE,2522
"A12C1M9UZ1DZ9H",4,26682,94,"Apr 11 2014","21:55:12",14,"Switch",1,"Novel89",1,"Novel77",2,8010,6,4,"(Apr 11 2014 21:55:12)",FALSE,TRUE,FALSE,6,0,"Social",1,"km","eyescenter",-1,0,0,TRUE,2247
"A12C1M9UZ1DZ9H",5,26684,96,"Apr 11 2014","21:55:12",16,"Same",1,"Novel99",1,"Novel99",1,1048,6,4,"(Apr 11 2014 21:55:12)",TRUE,TRUE,FALSE,6,0,"Social",1,"km","eyescenter",-1,0,0,TRUE,2049
"A12C1M9UZ1DZ9H",6,26686,98,"Apr 11 2014","21:55:12",18,"Switch",1,"Novel23",1,"Novel84",4,1870,6,4,"(Apr 11 2014 21:55:12)",FALSE,TRUE,FALSE,6,0,"Social",1,"km","eyescenter",-1,0,0,TRUE,1735
"A12C1M9UZ1DZ9H",7,26688,100,"Apr 11 2014","21:55:12",20,"Same",1,"Novel110",1,"Novel110",1,700,6,4,"(Apr 11 2014 21:55:12)",TRUE,TRUE,FALSE,6,0,"Social",1,"km","eyescenter",-1,0,0,TRUE,1568
"A12GJUCS7AJ4K",0,137,217,"Aug 11 2013","16:58:11",9,"Same",1,"Novel126",0,"Novel126",0,5813,2,3,"(Aug 11 2013 16:58:11)",TRUE,TRUE,TRUE,2,3,"No-Social",1,"dy",NA,NA,NA,NA,NA,NA
"A12GJUCS7AJ4K",1,138,218,"Aug 11 2013","16:58:11",10,"Switch",0,"Novel106",1,"Novel106",0,5305,2,3,"(Aug 11 2013 16:58:11)",TRUE,TRUE,FALSE,2,3,"No-Social",1,"dy",NA,NA,NA,NA,NA,NA
"A12GJUCS7AJ4K",2,139,219,"Aug 11 2013","16:58:11",11,"Same",1,"Novel82",1,"Novel82",1,1339,2,3,"(Aug 11 2013 16:58:11)",TRUE,TRUE,FALSE,2,3,"No-Social",1,"dy",NA,NA,NA,NA,NA,NA
"A12GJUCS7AJ4K",3,140,220,"Aug 11 2013","16:58:11",12,"Switch",1,"Novel136",1,"Novel136",1,11285,2,3,"(Aug 11 2013 16:58:11)",NA,TRUE,FALSE,2,3,"No-Social",1,"dy",NA,NA,NA,NA,NA,NA
"A12GJUCS7AJ4K",4,141,221,"Aug 11 2013","16:58:11",17,"Same",0,"Novel13",1,"Novel13",0,2195,2,3,"(Aug 11 2013 16:58:11)",TRUE,TRUE,FALSE,2,3,"No-Social",1,"dy",NA,NA,NA,NA,NA,NA
"A12GJUCS7AJ4K",5,142,222,"Aug 11 2013","16:58:11",18,"Switch",1,"Novel100",0,"Novel100",0,2464,2,3,"(Aug 11 2013 16:58:11)",TRUE,TRUE,FALSE,2,3,"No-Social",1,"dy",NA,NA,NA,NA,NA,NA
"A12GJUCS7AJ4K",6,143,223,"Aug 11 2013","16:58:11",19,"Same",0,"Novel117",0,"Novel117",1,2188,2,3,"(Aug 11 2013 16:58:11)",TRUE,TRUE,FALSE,2,3,"No-Social",1,"dy",NA,NA,NA,NA,NA,NA
"A12GJUCS7AJ4K",7,144,224,"Aug 11 2013","16:58:11",20,"Switch",0,"Novel7",0,"Novel7",1,1966,2,3,"(Aug 11 2013 16:58:11)",TRUE,TRUE,FALSE,2,3,"No-Social",1,"dy",NA,NA,NA,NA,NA,NA
"A12J4IRF5Z06BT",0,19675,127,"Apr 07 2014","02:36:31",7,"Switch",0,"Novel30",0,"Novel30",2,4922,4,1,"(Apr 07 2014 02:36:31)",TRUE,TRUE,TRUE,4,1,"Social",1,"km","eyescenter",-1,0,0,TRUE,6008
"A12J4IRF5Z06BT",2,19679,131,"Apr 07 2014","02:36:31",11,"Switch",1,"Novel66",3,"Novel47",1,4465,4,1,"(Apr 07 2014 02:36:31)",FALSE,TRUE,FALSE,4,1,"Social",1,"km","eyescenter",-1,0,0,TRUE,2542
"A12J4IRF5Z06BT",3,19680,132,"Apr 07 2014","02:36:31",12,"Same",0,"Novel65",2,"Novel65",1,1707,4,1,"(Apr 07 2014 02:36:31)",TRUE,TRUE,FALSE,4,1,"Social",1,"km","eyescenter",-1,0,0,TRUE,3330
"A12JOUOLFBPCXW",0,19701,153,"Apr 07 2014","02:57:37",13,"Same",0,"Novel28",3,"Novel112",0,2353,4,2,"(Apr 07 2014 02:57:37)",NA,TRUE,TRUE,4,7,"No-Social",1,"km","eyescenter",-1,0,0,FALSE,13290
"A12JOUOLFBPCXW",1,19702,154,"Apr 07 2014","02:57:37",14,"Switch",1,"Novel85",0,"Novel130",3,2397,4,2,"(Apr 07 2014 02:57:37)",FALSE,TRUE,FALSE,4,7,"No-Social",1,"km","eyescenter",-1,0,0,FALSE,7167
"A12JOUOLFBPCXW",2,19703,155,"Apr 07 2014","02:57:37",15,"Same",0,"Novel124",2,"Novel52",0,3263,4,2,"(Apr 07 2014 02:57:37)",FALSE,TRUE,FALSE,4,7,"No-Social",1,"km","eyescenter",-1,0,0,FALSE,4871
"A12JOUOLFBPCXW",3,19704,156,"Apr 07 2014","02:57:37",16,"Switch",0,"Novel118",1,"Novel140",1,2821,4,2,"(Apr 07 2014 02:57:37)",FALSE,TRUE,FALSE,4,7,"No-Social",1,"km","eyescenter",-1,0,0,FALSE,2650
"A12JOUOLFBPCXW",4,19705,157,"Apr 07 2014","02:57:37",17,"Same",1,"Novel36",0,"Novel36",0,3143,4,2,"(Apr 07 2014 02:57:37)",TRUE,TRUE,FALSE,4,7,"No-Social",1,"km","eyescenter",-1,0,0,FALSE,3763
"A12JOUOLFBPCXW",5,19706,158,"Apr 07 2014","02:57:37",18,"Switch",0,"Novel19",2,"Novel139",1,4728,4,2,"(Apr 07 2014 02:57:37)",FALSE,TRUE,FALSE,4,7,"No-Social",1,"km","eyescenter",-1,0,0,FALSE,4677
"A12JOUOLFBPCXW",6,19707,159,"Apr 07 2014","02:57:37",19,"Same",1,"Novel68",3,"Novel68",3,2174,4,2,"(Apr 07 2014 02:57:37)",TRUE,TRUE,FALSE,4,7,"No-Social",1,"km","eyescenter",-1,0,0,FALSE,2991
"A12JOUOLFBPCXW",7,19708,160,"Apr 07 2014","02:57:37",20,"Switch",1,"Novel133",3,"Novel133",3,3552,4,2,"(Apr 07 2014 02:57:37)",TRUE,TRUE,FALSE,4,7,"No-Social",1,"km","eyescenter",-1,0,0,FALSE,5861
"A12MCEUE6PYJYE",0,34361,93,"May 13 2014","09:15:59",13,"Same",0,"Novel131",1,"Novel49",3,4295,8,2,"(May 13 2014 09:15:59)",FALSE,TRUE,TRUE,8,7,"No-Social",1,"km","eyes_center",-1,0,0,FALSE,8970
"A12MCEUE6PYJYE",1,34362,94,"May 13 2014","09:15:59",14,"Switch",1,"Novel69",2,"Novel140",7,1881,8,2,"(May 13 2014 09:15:59)",FALSE,TRUE,FALSE,8,7,"No-Social",1,"km","eyes_center",-1,0,0,FALSE,6019
"A12MCEUE6PYJYE",2,34363,95,"May 13 2014","09:15:59",15,"Same",1,"Novel12",6,"Novel106",3,1793,8,2,"(May 13 2014 09:15:59)",FALSE,TRUE,FALSE,8,7,"No-Social",1,"km","eyes_center",-1,0,0,FALSE,3866
"A12MCEUE6PYJYE",3,34364,96,"May 13 2014","09:15:59",16,"Switch",1,"Novel15",5,"Novel119",6,1930,8,2,"(May 13 2014 09:15:59)",FALSE,TRUE,FALSE,8,7,"No-Social",1,"km","eyes_center",-1,0,0,FALSE,5482
"A12MCEUE6PYJYE",4,34365,97,"May 13 2014","09:15:59",17,"Same",0,"Novel118",4,"Novel76",0,1782,8,2,"(May 13 2014 09:15:59)",FALSE,TRUE,FALSE,8,7,"No-Social",1,"km","eyes_center",-1,0,0,FALSE,2682
"A12MCEUE6PYJYE",5,34366,98,"May 13 2014","09:15:59",18,"Switch",0,"Novel67",7,"Novel67",5,1945,8,2,"(May 13 2014 09:15:59)",TRUE,TRUE,FALSE,8,7,"No-Social",1,"km","eyes_center",-1,0,0,FALSE,1511
"A12MCEUE6PYJYE",6,34367,99,"May 13 2014","09:15:59",19,"Same",1,"Novel114",7,"Novel58",0,1337,8,2,"(May 13 2014 09:15:59)",FALSE,TRUE,FALSE,8,7,"No-Social",1,"km","eyes_center",-1,0,0,FALSE,5193
"A12MCEUE6PYJYE",7,34368,100,"May 13 2014","09:15:59",20,"Switch",0,"Novel23",7,"Novel35",6,1056,8,2,"(May 13 2014 09:15:59)",FALSE,TRUE,FALSE,8,7,"No-Social",1,"km","eyes_center",-1,0,0,FALSE,2974
"A12MPTF7WBVAFZ",0,145,225,"Apr 04 2013","16:14:37",13,"Switch",1,"Novel28",0,"Novel28",0,3899,4,7,"(Apr 04 2013 16:14:37)",TRUE,TRUE,TRUE,4,7,"No-Social",1,"dy",NA,NA,NA,NA,NA,NA
"A12MPTF7WBVAFZ",1,146,226,"Apr 04 2013","16:14:37",14,"Same",0,"Novel82",0,"Novel43",0,2398,4,7,"(Apr 04 2013 16:14:37)",FALSE,TRUE,FALSE,4,7,"No-Social",1,"dy",NA,NA,NA,NA,NA,NA
"A12MPTF7WBVAFZ",2,147,227,"Apr 04 2013","16:14:37",15,"Switch",0,"Novel123",1,"Novel105",1,2094,4,7,"(Apr 04 2013 16:14:37)",FALSE,TRUE,FALSE,4,7,"No-Social",1,"dy",NA,NA,NA,NA,NA,NA
"A12MPTF7WBVAFZ",3,148,228,"Apr 04 2013","16:14:37",16,"Same",1,"Novel80",1,"Novel80",1,1062,4,7,"(Apr 04 2013 16:14:37)",TRUE,TRUE,FALSE,4,7,"No-Social",1,"dy",NA,NA,NA,NA,NA,NA
"A12MPTF7WBVAFZ",4,149,229,"Apr 04 2013","16:14:37",17,"Switch",1,"Novel108",2,"Novel108",2,2272,4,7,"(Apr 04 2013 16:14:37)",TRUE,TRUE,FALSE,4,7,"No-Social",1,"dy",NA,NA,NA,NA,NA,NA
"A12MPTF7WBVAFZ",5,150,230,"Apr 04 2013","16:14:37",18,"Same",1,"Novel102",1,"Novel102",1,1223,4,7,"(Apr 04 2013 16:14:37)",TRUE,TRUE,FALSE,4,7,"No-Social",1,"dy",NA,NA,NA,NA,NA,NA
"A12MPTF7WBVAFZ",6,151,231,"Apr 04 2013","16:14:37",19,"Switch",0,"Novel16",0,"Novel16",3,1564,4,7,"(Apr 04 2013 16:14:37)",TRUE,TRUE,FALSE,4,7,"No-Social",1,"dy",NA,NA,NA,NA,NA,NA
"A12MPTF7WBVAFZ",7,152,232,"Apr 04 2013","16:14:37",20,"Same",0,"Novel32",1,"Novel32",3,1213,4,7,"(Apr 04 2013 16:14:37)",TRUE,TRUE,FALSE,4,7,"No-Social",1,"dy",NA,NA,NA,NA,NA,NA
"A12MSYRHI3XWDT",0,26697,109,"Apr 10 2014","18:59:12",9,"Same",1,"Novel7",3,"Novel7",3,1816,6,3,"(Apr 10 2014 18:59:12)",TRUE,TRUE,TRUE,6,3,"Social",1,"km","eyescenter",-1,0,0,TRUE,4490
"A12MSYRHI3XWDT",1,26698,110,"Apr 10 2014","18:59:12",10,"Switch",1,"Novel111",4,"Novel133",0,4387,6,3,"(Apr 10 2014 18:59:12)",FALSE,TRUE,FALSE,6,3,"Social",1,"km","eyescenter",-1,0,0,TRUE,2359
"A12MSYRHI3XWDT",2,26699,111,"Apr 10 2014","18:59:12",11,"Same",1,"Novel106",2,"Novel36",3,10261,6,3,"(Apr 10 2014 18:59:12)",FALSE,TRUE,FALSE,6,3,"Social",1,"km","eyescenter",-1,0,0,TRUE,4212
"A12MSYRHI3XWDT",3,26700,112,"Apr 10 2014","18:59:12",12,"Switch",0,"Novel24",4,"Novel42",5,3285,6,3,"(Apr 10 2014 18:59:12)",FALSE,TRUE,FALSE,6,3,"Social",1,"km","eyescenter",-1,0,0,TRUE,1574
"A12MSYRHI3XWDT",4,26705,117,"Apr 10 2014","18:59:12",17,"Same",0,"Novel15",4,"Novel70",4,3674,6,3,"(Apr 10 2014 18:59:12)",FALSE,TRUE,FALSE,6,3,"Social",1,"km","eyescenter",-1,0,0,TRUE,1160
"A12MSYRHI3XWDT",5,26706,118,"Apr 10 2014","18:59:12",18,"Switch",0,"Novel25",3,"Novel123",5,2633,6,3,"(Apr 10 2014 18:59:12)",NA,TRUE,FALSE,6,3,"Social",1,"km","eyescenter",-1,0,0,TRUE,437
"A12MSYRHI3XWDT",6,26707,119,"Apr 10 2014","18:59:12",19,"Same",0,"Novel3",0,"Novel3",2,4922,6,3,"(Apr 10 2014 18:59:12)",TRUE,TRUE,FALSE,6,3,"Social",1,"km","eyescenter",-1,0,0,TRUE,1161
"A12MSYRHI3XWDT",7,26708,120,"Apr 10 2014","18:59:12",20,"Switch",1,"Novel63",5,"Novel121",2,4820,6,3,"(Apr 10 2014 18:59:12)",FALSE,TRUE,FALSE,6,3,"Social",1,"km","eyescenter",-1,0,0,TRUE,1495
"A12QTJG76CSU4S",0,153,233,"Aug 11 2013","12:09:10",6,"Switch",1,"Novel27",3,"Novel79",1,2745,4,0,"(Aug 11 2013 12:09:10)",FALSE,TRUE,TRUE,4,0,"No-Social",1,"dy",NA,NA,NA,NA,NA,NA
"A12QTJG76CSU4S",1,154,234,"Aug 11 2013","12:09:10",8,"Same",0,"Novel44",0,"Novel44",1,1759,4,0,"(Aug 11 2013 12:09:10)",TRUE,TRUE,FALSE,4,0,"No-Social",1,"dy",NA,NA,NA,NA,NA,NA
"A12QTJG76CSU4S",2,155,235,"Aug 11 2013","12:09:10",10,"Switch",1,"Novel83",1,"Novel50",2,1826,4,0,"(Aug 11 2013 12:09:10)",FALSE,TRUE,FALSE,4,0,"No-Social",1,"dy",NA,NA,NA,NA,NA,NA
"A12QTJG76CSU4S",3,156,236,"Aug 11 2013","12:09:10",12,"Same",0,"Novel140",3,"Novel140",1,1192,4,0,"(Aug 11 2013 12:09:10)",TRUE,TRUE,FALSE,4,0,"No-Social",1,"dy",NA,NA,NA,NA,NA,NA
"A12QTJG76CSU4S",4,157,237,"Aug 11 2013","12:09:10",14,"Switch",0,"Novel59",1,"Novel59",2,2139,4,0,"(Aug 11 2013 12:09:10)",TRUE,TRUE,FALSE,4,0,"No-Social",1,"dy",NA,NA,NA,NA,NA,NA
"A12QTJG76CSU4S",5,158,238,"Aug 11 2013","12:09:10",16,"Same",1,"Novel33",0,"Novel33",0,1513,4,0,"(Aug 11 2013 12:09:10)",TRUE,TRUE,FALSE,4,0,"No-Social",1,"dy",NA,NA,NA,NA,NA,NA
"A12QTJG76CSU4S",6,159,239,"Aug 11 2013","12:09:10",18,"Switch",0,"Novel124",2,"Novel124",0,1203,4,0,"(Aug 11 2013 12:09:10)",TRUE,TRUE,FALSE,4,0,"No-Social",1,"dy",NA,NA,NA,NA,NA,NA
"A12QTJG76CSU4S",7,160,240,"Aug 11 2013","12:09:10",20,"Same",1,"Novel84",3,"Novel84",3,775,4,0,"(Aug 11 2013 12:09:10)",TRUE,TRUE,FALSE,4,0,"No-Social",1,"dy",NA,NA,NA,NA,NA,NA
"A12UEX0NP4K1S0",0,15074,166,"Mar 28 2014","21:21:31",6,"Switch",0,"Novel112",2,"Novel112",3,1956,4,4,"(Mar 28 2014 21:21:31)",TRUE,TRUE,TRUE,4,0,"Social",1,"km","eyescenter",-1,0,0,TRUE,5412
"A12UEX0NP4K1S0",2,15078,170,"Mar 28 2014","21:21:31",10,"Switch",0,"Novel102",1,"Novel62",0,2149,4,4,"(Mar 28 2014 21:21:31)",FALSE,TRUE,FALSE,4,0,"Social",1,"km","eyescenter",-1,0,0,TRUE,1397
"A12UEX0NP4K1S0",3,15080,172,"Mar 28 2014","21:21:31",12,"Same",0,"Novel111",0,"Novel111",2,1042,4,4,"(Mar 28 2014 21:21:31)",TRUE,TRUE,FALSE,4,0,"Social",1,"km","eyescenter",-1,0,0,TRUE,1360
"A12UEX0NP4K1S0",4,15082,174,"Mar 28 2014","21:21:31",14,"Switch",1,"Novel139",2,"Novel110",3,1389,4,4,"(Mar 28 2014 21:21:31)",FALSE,TRUE,FALSE,4,0,"Social",1,"km","eyescenter",-1,0,0,TRUE,1283
"A12UEX0NP4K1S0",5,15084,176,"Mar 28 2014","21:21:31",16,"Same",1,"Novel54",0,"Novel54",0,494,4,4,"(Mar 28 2014 21:21:31)",TRUE,TRUE,FALSE,4,0,"Social",1,"km","eyescenter",-1,0,0,TRUE,3050
"A12UEX0NP4K1S0",6,15086,178,"Mar 28 2014","21:21:31",18,"Switch",1,"Novel79",2,"Novel79",2,704,4,4,"(Mar 28 2014 21:21:31)",TRUE,TRUE,FALSE,4,0,"Social",1,"km","eyescenter",-1,0,0,TRUE,1023
"A12UEX0NP4K1S0",7,15088,180,"Mar 28 2014","21:21:31",20,"Same",0,"Novel39",3,"Novel39",1,451,4,4,"(Mar 28 2014 21:21:31)",NA,TRUE,FALSE,4,0,"Social",1,"km","eyescenter",-1,0,0,TRUE,835
"A12VU5YSHGQH2V",0,34375,107,"May 11 2014","11:56:33",7,"Switch",1,"Novel19",3,"Novel47",0,4553,8,1,"(May 11 2014 11:56:33)",FALSE,TRUE,TRUE,8,1,"No-Social",1,"km","eyes_center",-1,0,0,FALSE,1415
"A12VU5YSHGQH2V",1,34376,108,"May 11 2014","11:56:33",8,"Same",1,"Novel32",2,"Novel117",3,2407,8,1,"(May 11 2014 11:56:33)",FALSE,TRUE,FALSE,8,1,"No-Social",1,"km","eyes_center",-1,0,0,FALSE,4498
"A12VU5YSHGQH2V",2,34379,111,"May 11 2014","11:56:33",11,"Switch",1,"Novel107",1,"Novel41",7,7294,8,1,"(May 11 2014 11:56:33)",FALSE,TRUE,FALSE,8,1,"No-Social",1,"km","eyes_center",-1,0,0,FALSE,1588
"A12VU5YSHGQH2V",3,34380,112,"May 11 2014","11:56:33",12,"Same",1,"Novel98",5,"Novel98",5,3424,8,1,"(May 11 2014 11:56:33)",TRUE,TRUE,FALSE,8,1,"No-Social",1,"km","eyes_center",-1,0,0,FALSE,2360
"A12VU5YSHGQH2V",4,34383,115,"May 11 2014","11:56:33",15,"Switch",0,"Novel38",1,"Novel120",6,1242,8,1,"(May 11 2014 11:56:33)",FALSE,TRUE,FALSE,8,1,"No-Social",1,"km","eyes_center",-1,0,0,FALSE,2137
"A12VU5YSHGQH2V",5,34384,116,"May 11 2014","11:56:33",16,"Same",0,"Novel25",3,"Novel138",0,1729,8,1,"(May 11 2014 11:56:33)",FALSE,TRUE,FALSE,8,1,"No-Social",1,"km","eyes_center",-1,0,0,FALSE,5234
"A12VU5YSHGQH2V",6,34387,119,"May 11 2014","11:56:33",19,"Switch",0,"Novel48",1,"Novel43",7,4820,8,1,"(May 11 2014 11:56:33)",FALSE,TRUE,FALSE,8,1,"No-Social",1,"km","eyes_center",-1,0,0,FALSE,1494
"A12VU5YSHGQH2V",7,34388,120,"May 11 2014","11:56:33",20,"Same",0,"Novel64",6,"Novel101",5,2362,8,1,"(May 11 2014 11:56:33)",FALSE,TRUE,FALSE,8,1,"No-Social",1,"km","eyes_center",-1,0,0,FALSE,1659
"A12YW9ETZPJ6G5",0,7314,146,"May 02 2014","13:04:11",6,"Switch",1,"Novel108",0,"Novel108",0,1935,2,4,"(May 02 2014 13:04:11)",NA,TRUE,TRUE,2,0,"Social",1,"km","eyescenter",-1,0,0,TRUE,511
"A12YW9ETZPJ6G5",1,7316,148,"May 02 2014","13:04:11",8,"Same",1,"Novel25",1,"Novel25",1,1265,2,4,"(May 02 2014 13:04:11)",TRUE,TRUE,FALSE,2,0,"Social",1,"km","eyescenter",-1,0,0,TRUE,591
"A12YW9ETZPJ6G5",2,7318,150,"May 02 2014","13:04:11",10,"Switch",1,"Novel131",0,"Novel131",0,502,2,4,"(May 02 2014 13:04:11)",NA,TRUE,FALSE,2,0,"Social",1,"km","eyescenter",-1,0,0,TRUE,339
"A12YW9ETZPJ6G5",3,7320,152,"May 02 2014","13:04:11",12,"Same",0,"Novel26",0,"Novel73",0,56043,2,4,"(May 02 2014 13:04:11)",NA,TRUE,FALSE,2,0,"Social",1,"km","eyescenter",-1,0,0,TRUE,704
"A12YW9ETZPJ6G5",4,7322,154,"May 02 2014","13:04:11",14,"Switch",0,"Novel136",1,"Novel96",1,517,2,4,"(May 02 2014 13:04:11)",NA,TRUE,FALSE,2,0,"Social",1,"km","eyescenter",-1,0,0,TRUE,50
"A12YW9ETZPJ6G5",5,7324,156,"May 02 2014","13:04:11",16,"Same",1,"Novel36",1,"Novel42",0,233,2,4,"(May 02 2014 13:04:11)",NA,TRUE,FALSE,2,0,"Social",1,"km","eyescenter",-1,0,0,TRUE,258
"A12YW9ETZPJ6G5",6,7326,158,"May 02 2014","13:04:11",18,"Switch",0,"Novel113",1,"Novel57",1,564,2,4,"(May 02 2014 13:04:11)",FALSE,TRUE,FALSE,2,0,"Social",1,"km","eyescenter",-1,0,0,TRUE,805
"A12YW9ETZPJ6G5",7,7328,160,"May 02 2014","13:04:11",20,"Same",0,"Novel123",1,"Novel123",0,418,2,4,"(May 02 2014 13:04:11)",NA,TRUE,FALSE,2,0,"Social",1,"km","eyescenter",-1,0,0,TRUE,90
"A12ZB13IA3SB6U",0,34395,127,"May 05 2014","16:42:56",7,"Switch",0,"Novel86",5,"Novel53",2,4508,8,1,"(May 05 2014 16:42:56)",FALSE,TRUE,TRUE,8,1,"No-Social",1,"km","eyes_center",-1,0,0,FALSE,6905
"A12ZB13IA3SB6U",1,34396,128,"May 05 2014","16:42:56",8,"Same",0,"Novel127",6,"Novel63",2,6615,8,1,"(May 05 2014 16:42:56)",FALSE,TRUE,FALSE,8,1,"No-Social",1,"km","eyes_center",-1,0,0,FALSE,9265
"A12ZB13IA3SB6U",2,34399,131,"May 05 2014","16:42:56",11,"Switch",0,"Novel56",2,"Novel56",3,4664,8,1,"(May 05 2014 16:42:56)",TRUE,TRUE,FALSE,8,1,"No-Social",1,"km","eyes_center",-1,0,0,FALSE,6432
"A12ZB13IA3SB6U",3,34400,132,"May 05 2014","16:42:56",12,"Same",0,"Novel69",3,"Novel70",6,9014,8,1,"(May 05 2014 16:42:56)",FALSE,TRUE,FALSE,8,1,"No-Social",1,"km","eyes_center",-1,0,0,FALSE,5609
"A12ZB13IA3SB6U",4,34403,135,"May 05 2014","16:42:56",15,"Switch",1,"Novel36",3,"Novel109",1,2440,8,1,"(May 05 2014 16:42:56)",FALSE,TRUE,FALSE,8,1,"No-Social",1,"km","eyes_center",-1,0,0,FALSE,2397
"A12ZB13IA3SB6U",5,34404,136,"May 05 2014","16:42:56",16,"Same",1,"Novel135",6,"Novel50",5,3219,8,1,"(May 05 2014 16:42:56)",FALSE,TRUE,FALSE,8,1,"No-Social",1,"km","eyes_center",-1,0,0,FALSE,3018
"A12ZB13IA3SB6U",6,34407,139,"May 05 2014","16:42:56",19,"Switch",1,"Novel140",4,"Novel140",4,2675,8,1,"(May 05 2014 16:42:56)",TRUE,TRUE,FALSE,8,1,"No-Social",1,"km","eyes_center",-1,0,0,FALSE,3843
"A12ZB13IA3SB6U",7,34408,140,"May 05 2014","16:42:56",20,"Same",1,"Novel39",3,"Novel39",3,1487,8,1,"(May 05 2014 16:42:56)",TRUE,TRUE,FALSE,8,1,"No-Social",1,"km","eyes_center",-1,0,0,FALSE,2018
"A12ZPHBEIHN8U7",0,26714,126,"Apr 11 2014","09:36:11",6,"Same",1,"Novel114",2,"Novel114",2,2186,6,4,"(Apr 11 2014 09:36:11)",TRUE,TRUE,TRUE,6,0,"No-Social",1,"km","eyescenter",-1,0,0,FALSE,3852
"A12ZPHBEIHN8U7",1,26716,128,"Apr 11 2014","09:36:11",8,"Switch",0,"Novel28",0,"Novel126",0,5514,6,4,"(Apr 11 2014 09:36:11)",FALSE,TRUE,FALSE,6,0,"No-Social",1,"km","eyescenter",-1,0,0,FALSE,5137
"A12ZPHBEIHN8U7",2,26718,130,"Apr 11 2014","09:36:11",10,"Same",0,"Novel89",5,"Novel89",3,1572,6,4,"(Apr 11 2014 09:36:11)",TRUE,TRUE,FALSE,6,0,"No-Social",1,"km","eyescenter",-1,0,0,FALSE,2988
"A12ZPHBEIHN8U7",3,26720,132,"Apr 11 2014","09:36:11",12,"Switch",1,"Novel31",4,"Novel111",0,5085,6,4,"(Apr 11 2014 09:36:11)",FALSE,TRUE,FALSE,6,0,"No-Social",1,"km","eyescenter",-1,0,0,FALSE,3371
"A12ZPHBEIHN8U7",4,26722,134,"Apr 11 2014","09:36:11",14,"Same",1,"Novel30",5,"Novel30",5,1459,6,4,"(Apr 11 2014 09:36:11)",TRUE,TRUE,FALSE,6,0,"No-Social",1,"km","eyescenter",-1,0,0,FALSE,3001
"A12ZPHBEIHN8U7",5,26724,136,"Apr 11 2014","09:36:11",16,"Switch",0,"Novel73",5,"Novel40",2,4179,6,4,"(Apr 11 2014 09:36:11)",FALSE,TRUE,FALSE,6,0,"No-Social",1,"km","eyescenter",-1,0,0,FALSE,4822
"A12ZPHBEIHN8U7",6,26726,138,"Apr 11 2014","09:36:11",18,"Same",0,"Novel27",0,"Novel27",1,970,6,4,"(Apr 11 2014 09:36:11)",TRUE,TRUE,FALSE,6,0,"No-Social",1,"km","eyescenter",-1,0,0,FALSE,1817
"A12ZPHBEIHN8U7",7,26728,140,"Apr 11 2014","09:36:11",20,"Switch",1,"Novel82",0,"Novel82",0,2349,6,4,"(Apr 11 2014 09:36:11)",TRUE,TRUE,FALSE,6,0,"No-Social",1,"km","eyescenter",-1,0,0,FALSE,2835
"A12ZU22BL5VIWV",0,161,249,"Apr 08 2013","17:28:36",7,"Same",1,"Novel51",1,"Novel77",0,9016,2,1,"(Apr 08 2013 17:28:36)",FALSE,TRUE,TRUE,2,1,"No-Social",1,"dy",NA,NA,NA,NA,NA,NA
"A12ZU22BL5VIWV",1,162,250,"Apr 08 2013","17:28:36",8,"Switch",0,"Novel1",1,"Novel1",0,1433,2,1,"(Apr 08 2013 17:28:36)",TRUE,TRUE,FALSE,2,1,"No-Social",1,"dy",NA,NA,NA,NA,NA,NA
"A12ZU22BL5VIWV",2,163,251,"Apr 08 2013","17:28:36",11,"Same",0,"Novel9",1,"Novel9",0,1614,2,1,"(Apr 08 2013 17:28:36)",TRUE,TRUE,FALSE,2,1,"No-Social",1,"dy",NA,NA,NA,NA,NA,NA
"A12ZU22BL5VIWV",3,164,252,"Apr 08 2013","17:28:36",12,"Switch",1,"Novel104",0,"Novel104",0,2869,2,1,"(Apr 08 2013 17:28:36)",TRUE,TRUE,FALSE,2,1,"No-Social",1,"dy",NA,NA,NA,NA,NA,NA
"A12ZU22BL5VIWV",4,165,253,"Apr 08 2013","17:28:36",15,"Same",1,"Novel140",0,"Novel140",0,1207,2,1,"(Apr 08 2013 17:28:36)",TRUE,TRUE,FALSE,2,1,"No-Social",1,"dy",NA,NA,NA,NA,NA,NA
"A12ZU22BL5VIWV",5,166,254,"Apr 08 2013","17:28:36",16,"Switch",1,"Novel30",0,"Novel30",0,1132,2,1,"(Apr 08 2013 17:28:36)",TRUE,TRUE,FALSE,2,1,"No-Social",1,"dy",NA,NA,NA,NA,NA,NA
"A12ZU22BL5VIWV",6,167,255,"Apr 08 2013","17:28:36",19,"Same",0,"Novel114",0,"Novel114",1,1579,2,1,"(Apr 08 2013 17:28:36)",TRUE,TRUE,FALSE,2,1,"No-Social",1,"dy",NA,NA,NA,NA,NA,NA
"A12ZU22BL5VIWV",7,168,256,"Apr 08 2013","17:28:36",20,"Switch",0,"Novel56",0,"Novel56",1,1570,2,1,"(Apr 08 2013 17:28:36)",TRUE,TRUE,FALSE,2,1,"No-Social",1,"dy",NA,NA,NA,NA,NA,NA
"A130X6CF795CQ5",0,19721,173,"Apr 06 2014","13:46:54",13,"Switch",0,"Novel37",0,"Novel37",1,1797,4,2,"(Apr 06 2014 13:46:54)",TRUE,TRUE,TRUE,4,7,"No-Social",1,"km","eyescenter",-1,0,0,FALSE,4094
"A130X6CF795CQ5",1,19722,174,"Apr 06 2014","13:46:54",14,"Same",1,"Novel79",1,"Novel128",2,2883,4,2,"(Apr 06 2014 13:46:54)",FALSE,TRUE,FALSE,4,7,"No-Social",1,"km","eyescenter",-1,0,0,FALSE,6694
"A130X6CF795CQ5",2,19723,175,"Apr 06 2014","13:46:54",15,"Switch",0,"Novel23",2,"Novel86",2,2724,4,2,"(Apr 06 2014 13:46:54)",FALSE,TRUE,FALSE,4,7,"No-Social",1,"km","eyescenter",-1,0,0,FALSE,4100
"A130X6CF795CQ5",3,19724,176,"Apr 06 2014","13:46:54",16,"Same",0,"Novel44",2,"Novel44",3,2157,4,2,"(Apr 06 2014 13:46:54)",TRUE,TRUE,FALSE,4,7,"No-Social",1,"km","eyescenter",-1,0,0,FALSE,1693
"A130X6CF795CQ5",4,19725,177,"Apr 06 2014","13:46:54",17,"Switch",1,"Novel127",2,"Novel127",2,1652,4,2,"(Apr 06 2014 13:46:54)",TRUE,TRUE,FALSE,4,7,"No-Social",1,"km","eyescenter",-1,0,0,FALSE,1653
"A130X6CF795CQ5",5,19726,178,"Apr 06 2014","13:46:54",18,"Same",0,"Novel81",2,"Novel81",3,1507,4,2,"(Apr 06 2014 13:46:54)",TRUE,TRUE,FALSE,4,7,"No-Social",1,"km","eyescenter",-1,0,0,FALSE,1677
"A130X6CF795CQ5",6,19727,179,"Apr 06 2014","13:46:54",19,"Switch",1,"Novel27",1,"Novel80",2,2796,4,2,"(Apr 06 2014 13:46:54)",FALSE,TRUE,FALSE,4,7,"No-Social",1,"km","eyescenter",-1,0,0,FALSE,1466
"A130X6CF795CQ5",7,19728,180,"Apr 06 2014","13:46:54",20,"Same",1,"Novel60",2,"Novel60",2,941,4,2,"(Apr 06 2014 13:46:54)",TRUE,TRUE,FALSE,4,7,"No-Social",1,"km","eyescenter",-1,0,0,FALSE,1972
"A132OGUCBF0KDL",0,169,257,"Apr 03 2013","23:14:41",13,"Switch",1,"Novel111",1,"Novel111",1,3308,4,7,"(Apr 03 2013 23:14:41)",TRUE,TRUE,TRUE,4,7,"No-Social",1,"dy",NA,NA,NA,NA,NA,NA
"A132OGUCBF0KDL",1,170,258,"Apr 03 2013","23:14:41",14,"Same",0,"Novel28",0,"Novel28",3,2136,4,7,"(Apr 03 2013 23:14:41)",TRUE,TRUE,FALSE,4,7,"No-Social",1,"dy",NA,NA,NA,NA,NA,NA
"A132OGUCBF0KDL",2,171,259,"Apr 03 2013","23:14:41",15,"Switch",0,"Novel50",3,"Novel50",2,1805,4,7,"(Apr 03 2013 23:14:41)",TRUE,TRUE,FALSE,4,7,"No-Social",1,"dy",NA,NA,NA,NA,NA,NA
"A132OGUCBF0KDL",3,172,260,"Apr 03 2013","23:14:41",16,"Same",1,"Novel18",1,"Novel18",1,3343,4,7,"(Apr 03 2013 23:14:41)",TRUE,TRUE,FALSE,4,7,"No-Social",1,"dy",NA,NA,NA,NA,NA,NA
"A132OGUCBF0KDL",4,173,261,"Apr 03 2013","23:14:41",17,"Switch",0,"Novel48",1,"Novel48",0,1986,4,7,"(Apr 03 2013 23:14:41)",TRUE,TRUE,FALSE,4,7,"No-Social",1,"dy",NA,NA,NA,NA,NA,NA
"A132OGUCBF0KDL",5,174,262,"Apr 03 2013","23:14:41",18,"Same",1,"Novel62",2,"Novel62",2,2275,4,7,"(Apr 03 2013 23:14:41)",TRUE,TRUE,FALSE,4,7,"No-Social",1,"dy",NA,NA,NA,NA,NA,NA
"A132OGUCBF0KDL",6,175,263,"Apr 03 2013","23:14:41",19,"Switch",1,"Novel37",0,"Novel9",1,5275,4,7,"(Apr 03 2013 23:14:41)",FALSE,TRUE,FALSE,4,7,"No-Social",1,"dy",NA,NA,NA,NA,NA,NA
"A132OGUCBF0KDL",7,176,264,"Apr 03 2013","23:14:41",20,"Same",0,"Novel70",3,"Novel70",1,2684,4,7,"(Apr 03 2013 23:14:41)",TRUE,TRUE,FALSE,4,7,"No-Social",1,"dy",NA,NA,NA,NA,NA,NA
"A135N9TJYTIQNA",0,7337,169,"May 02 2014","12:03:03",9,"Same",0,"Novel81",1,"Novel81",0,1289,2,3,"(May 02 2014 12:03:03)",TRUE,TRUE,TRUE,2,3,"No-Social",1,"km","eyescenter",-1,0,0,FALSE,2531
"A135N9TJYTIQNA",1,7338,170,"May 02 2014","12:03:03",10,"Switch",1,"Novel121",1,"Novel121",1,1378,2,3,"(May 02 2014 12:03:03)",TRUE,TRUE,FALSE,2,3,"No-Social",1,"km","eyescenter",-1,0,0,FALSE,2445
"A135N9TJYTIQNA",2,7339,171,"May 02 2014","12:03:03",11,"Same",0,"Novel134",1,"Novel134",0,1106,2,3,"(May 02 2014 12:03:03)",TRUE,TRUE,FALSE,2,3,"No-Social",1,"km","eyescenter",-1,0,0,FALSE,1658
"A135N9TJYTIQNA",3,7340,172,"May 02 2014","12:03:03",12,"Switch",1,"Novel61",1,"Novel39",0,1689,2,3,"(May 02 2014 12:03:03)",FALSE,TRUE,FALSE,2,3,"No-Social",1,"km","eyescenter",-1,0,0,FALSE,1831
"A135N9TJYTIQNA",4,7345,177,"May 02 2014","12:03:03",17,"Same",1,"Novel34",1,"Novel34",1,1229,2,3,"(May 02 2014 12:03:03)",TRUE,TRUE,FALSE,2,3,"No-Social",1,"km","eyescenter",-1,0,0,FALSE,2120
"A135N9TJYTIQNA",5,7346,178,"May 02 2014","12:03:03",18,"Switch",0,"Novel1",0,"Novel1",1,3021,2,3,"(May 02 2014 12:03:03)",TRUE,TRUE,FALSE,2,3,"No-Social",1,"km","eyescenter",-1,0,0,FALSE,2680
"A135N9TJYTIQNA",6,7347,179,"May 02 2014","12:03:03",19,"Same",1,"Novel58",0,"Novel58",0,1458,2,3,"(May 02 2014 12:03:03)",TRUE,TRUE,FALSE,2,3,"No-Social",1,"km","eyescenter",-1,0,0,FALSE,2563
"A135N9TJYTIQNA",7,7348,180,"May 02 2014","12:03:03",20,"Switch",0,"Novel59",0,"Novel59",1,2071,2,3,"(May 02 2014 12:03:03)",TRUE,TRUE,FALSE,2,3,"No-Social",1,"km","eyescenter",-1,0,0,FALSE,1750
"A138VDJMRYB6M2",5,15106,198,"Mar 28 2014","19:41:05",18,"Switch",1,"Novel17",0,"Novel14",1,4452,4,3,"(Mar 28 2014 19:41:05)",FALSE,TRUE,FALSE,4,3,"Social",1,"km","eyescenter",-1,0,0,TRUE,2617
"A138VDJMRYB6M2",6,15107,199,"Mar 28 2014","19:41:05",19,"Same",1,"Novel75",3,"Novel75",3,2557,4,3,"(Mar 28 2014 19:41:05)",TRUE,TRUE,FALSE,4,3,"Social",1,"km","eyescenter",-1,0,0,TRUE,2961
"A138VDJMRYB6M2",7,15108,200,"Mar 28 2014","19:41:05",20,"Switch",1,"Novel115",0,"Novel64",1,6281,4,3,"(Mar 28 2014 19:41:05)",FALSE,TRUE,FALSE,4,3,"Social",1,"km","eyescenter",-1,0,0,TRUE,3137
"A13A4R9NNZVU2P",0,177,273,"Aug 11 2013","17:39:58",13,"Switch",1,"Novel10",0,"Novel1",1,2605,2,7,"(Aug 11 2013 17:39:58)",FALSE,TRUE,TRUE,2,7,"No-Social",1,"dy",NA,NA,NA,NA,NA,NA
"A13A4R9NNZVU2P",1,178,274,"Aug 11 2013","17:39:58",14,"Same",1,"Novel21",0,"Novel21",0,2980,2,7,"(Aug 11 2013 17:39:58)",TRUE,TRUE,FALSE,2,7,"No-Social",1,"dy",NA,NA,NA,NA,NA,NA
"A13A4R9NNZVU2P",2,179,275,"Aug 11 2013","17:39:58",15,"Switch",0,"Novel32",0,"Novel32",1,1628,2,7,"(Aug 11 2013 17:39:58)",TRUE,TRUE,FALSE,2,7,"No-Social",1,"dy",NA,NA,NA,NA,NA,NA
"A13A4R9NNZVU2P",3,180,276,"Aug 11 2013","17:39:58",16,"Same",0,"Novel22",1,"Novel22",0,2358,2,7,"(Aug 11 2013 17:39:58)",TRUE,TRUE,FALSE,2,7,"No-Social",1,"dy",NA,NA,NA,NA,NA,NA
"A13A4R9NNZVU2P",4,181,277,"Aug 11 2013","17:39:58",17,"Switch",1,"Novel80",0,"Novel80",0,2075,2,7,"(Aug 11 2013 17:39:58)",TRUE,TRUE,FALSE,2,7,"No-Social",1,"dy",NA,NA,NA,NA,NA,NA
"A13A4R9NNZVU2P",5,182,278,"Aug 11 2013","17:39:58",18,"Same",1,"Novel92",1,"Novel92",1,1139,2,7,"(Aug 11 2013 17:39:58)",TRUE,TRUE,FALSE,2,7,"No-Social",1,"dy",NA,NA,NA,NA,NA,NA
"A13A4R9NNZVU2P",6,183,279,"Aug 11 2013","17:39:58",19,"Switch",0,"Novel18",1,"Novel18",0,4686,2,7,"(Aug 11 2013 17:39:58)",TRUE,TRUE,FALSE,2,7,"No-Social",1,"dy",NA,NA,NA,NA,NA,NA
"A13A4R9NNZVU2P",7,184,280,"Aug 11 2013","17:39:58",20,"Same",0,"Novel35",1,"Novel35",0,2690,2,7,"(Aug 11 2013 17:39:58)",TRUE,TRUE,FALSE,2,7,"No-Social",1,"dy",NA,NA,NA,NA,NA,NA
"A13B5ZQS4QB6WS",5,22846,78,"Apr 22 2014","12:02:28",18,"Switch",0,"Novel136",0,"Novel32",3,2374,4,2,"(Apr 22 2014 12:02:28)",FALSE,TRUE,FALSE,4,7,"Social",1,"km","eyescenter",-1,0,0,TRUE,6512
"A13B5ZQS4QB6WS",6,22847,79,"Apr 22 2014","12:02:28",19,"Same",0,"Novel108",0,"Novel121",3,3829,4,2,"(Apr 22 2014 12:02:28)",FALSE,TRUE,FALSE,4,7,"Social",1,"km","eyescenter",-1,0,0,TRUE,4821
"A13B5ZQS4QB6WS",7,22848,80,"Apr 22 2014","12:02:28",20,"Switch",1,"Novel9",3,"Novel105",1,2990,4,2,"(Apr 22 2014 12:02:28)",FALSE,TRUE,FALSE,4,7,"Social",1,"km","eyescenter",-1,0,0,TRUE,2655
"A13FEFBGV1ER31",6,22866,98,"Apr 22 2014","17:21:48",18,"Switch",1,"Novel103",3,"Novel103",3,1358,4,4,"(Apr 22 2014 17:21:48)",TRUE,TRUE,FALSE,4,0,"Social",1,"km","eyescenter",-1,0,0,TRUE,9423
"A13GK9NRFTRNA3",0,15117,209,"Mar 27 2014","22:12:43",9,"Switch",0,"Novel104",0,"Novel5",3,3129,4,3,"(Mar 27 2014 22:12:43)",FALSE,TRUE,TRUE,4,3,"Social",1,"km","eyescenter",-1,0,0,TRUE,6693
"A13GK9NRFTRNA3",1,15118,210,"Mar 27 2014","22:12:43",10,"Same",0,"Novel28",1,"Novel19",2,2371,4,3,"(Mar 27 2014 22:12:43)",FALSE,TRUE,FALSE,4,3,"Social",1,"km","eyescenter",-1,0,0,TRUE,1243
"A13GK9NRFTRNA3",2,15119,211,"Mar 27 2014","22:12:43",11,"Switch",1,"Novel14",2,"Novel14",2,4227,4,3,"(Mar 27 2014 22:12:43)",TRUE,TRUE,FALSE,4,3,"Social",1,"km","eyescenter",-1,0,0,TRUE,3397
"A13GK9NRFTRNA3",3,15120,212,"Mar 27 2014","22:12:43",12,"Same",1,"Novel91",1,"Novel3",2,1974,4,3,"(Mar 27 2014 22:12:43)",FALSE,TRUE,FALSE,4,3,"Social",1,"km","eyescenter",-1,0,0,TRUE,1547
"A13GK9NRFTRNA3",4,15125,217,"Mar 27 2014","22:12:43",17,"Switch",1,"Novel70",1,"Novel70",1,5431,4,3,"(Mar 27 2014 22:12:43)",TRUE,TRUE,FALSE,4,3,"Social",1,"km","eyescenter",-1,0,0,TRUE,948
"A13GK9NRFTRNA3",5,15126,218,"Mar 27 2014","22:12:43",18,"Same",1,"Novel58",2,"Novel58",2,1914,4,3,"(Mar 27 2014 22:12:43)",TRUE,TRUE,FALSE,4,3,"Social",1,"km","eyescenter",-1,0,0,TRUE,1081
"A13GK9NRFTRNA3",6,15127,219,"Mar 27 2014","22:12:43",19,"Switch",0,"Novel126",0,"Novel120",2,2792,4,3,"(Mar 27 2014 22:12:43)",FALSE,TRUE,FALSE,4,3,"Social",1,"km","eyescenter",-1,0,0,TRUE,745
"A13GK9NRFTRNA3",7,15128,220,"Mar 27 2014","22:12:43",20,"Same",0,"Novel108",1,"Novel111",0,1505,4,3,"(Mar 27 2014 22:12:43)",FALSE,TRUE,FALSE,4,3,"Social",1,"km","eyescenter",-1,0,0,TRUE,5196
"A13J6BEMIPNEH6",0,26737,149,"Apr 11 2014","20:45:36",9,"Switch",0,"Novel105",0,"Novel69",0,12706,6,3,"(Apr 11 2014 20:45:36)",NA,TRUE,TRUE,6,3,"Social",1,"km","eyescenter",-1,0,0,TRUE,1460
"A13J6BEMIPNEH6",1,26738,150,"Apr 11 2014","20:45:36",10,"Same",0,"Novel88",2,"Novel88",3,1496,6,3,"(Apr 11 2014 20:45:36)",TRUE,TRUE,FALSE,6,3,"Social",1,"km","eyescenter",-1,0,0,TRUE,1897
"A13J6BEMIPNEH6",2,26739,151,"Apr 11 2014","20:45:36",11,"Switch",1,"Novel21",1,"Novel21",1,4787,6,3,"(Apr 11 2014 20:45:36)",TRUE,TRUE,FALSE,6,3,"Social",1,"km","eyescenter",-1,0,0,TRUE,1953
"A13J6BEMIPNEH6",3,26740,152,"Apr 11 2014","20:45:36",12,"Same",1,"Novel80",4,"Novel80",4,982,6,3,"(Apr 11 2014 20:45:36)",TRUE,TRUE,FALSE,6,3,"Social",1,"km","eyescenter",-1,0,0,TRUE,1968
"A13J6BEMIPNEH6",4,26745,157,"Apr 11 2014","20:45:36",17,"Switch",0,"Novel52",2,"Novel126",1,1416,6,3,"(Apr 11 2014 20:45:36)",FALSE,TRUE,FALSE,6,3,"Social",1,"km","eyescenter",-1,0,0,TRUE,2432
"A13J6BEMIPNEH6",5,26746,158,"Apr 11 2014","20:45:36",18,"Same",0,"Novel39",0,"Novel39",4,2777,6,3,"(Apr 11 2014 20:45:36)",TRUE,TRUE,FALSE,6,3,"Social",1,"km","eyescenter",-1,0,0,TRUE,2230
"A13J6BEMIPNEH6",6,26747,159,"Apr 11 2014","20:45:36",19,"Switch",1,"Novel129",2,"Novel129",2,7323,6,3,"(Apr 11 2014 20:45:36)",TRUE,TRUE,FALSE,6,3,"Social",1,"km","eyescenter",-1,0,0,TRUE,1655
"A13J6BEMIPNEH6",7,26748,160,"Apr 11 2014","20:45:36",20,"Same",1,"Novel64",1,"Novel58",4,1681,6,3,"(Apr 11 2014 20:45:36)",FALSE,TRUE,FALSE,6,3,"Social",1,"km","eyescenter",-1,0,0,TRUE,1036
"A13MXQ1KC1J9QL",0,7355,187,"May 02 2014","14:44:30",7,"Same",1,"Novel133",1,"Novel133",1,3049,2,1,"(May 02 2014 14:44:30)",TRUE,TRUE,TRUE,2,1,"Social",1,"km","eyescenter",-1,0,0,TRUE,7108
"A13MXQ1KC1J9QL",1,7356,188,"May 02 2014","14:44:30",8,"Switch",1,"Novel34",1,"Novel34",1,7105,2,1,"(May 02 2014 14:44:30)",TRUE,TRUE,FALSE,2,1,"Social",1,"km","eyescenter",-1,0,0,TRUE,1596
"A13MXQ1KC1J9QL",2,7359,191,"May 02 2014","14:44:30",11,"Same",0,"Novel140",1,"Novel140",0,946,2,1,"(May 02 2014 14:44:30)",TRUE,TRUE,FALSE,2,1,"Social",1,"km","eyescenter",-1,0,0,TRUE,2027
"A13MXQ1KC1J9QL",3,7360,192,"May 02 2014","14:44:30",12,"Switch",0,"Novel19",1,"Novel104",1,1507,2,1,"(May 02 2014 14:44:30)",FALSE,TRUE,FALSE,2,1,"Social",1,"km","eyescenter",-1,0,0,TRUE,1633
"A13MXQ1KC1J9QL",4,7363,195,"May 02 2014","14:44:30",15,"Same",1,"Novel44",0,"Novel44",0,779,2,1,"(May 02 2014 14:44:30)",TRUE,TRUE,FALSE,2,1,"Social",1,"km","eyescenter",-1,0,0,TRUE,1457
"A13MXQ1KC1J9QL",5,7364,196,"May 02 2014","14:44:30",16,"Switch",1,"Novel138",1,"Novel29",0,1181,2,1,"(May 02 2014 14:44:30)",FALSE,TRUE,FALSE,2,1,"Social",1,"km","eyescenter",-1,0,0,TRUE,1255
"A13MXQ1KC1J9QL",6,7367,199,"May 02 2014","14:44:30",19,"Same",0,"Novel53",0,"Novel53",1,972,2,1,"(May 02 2014 14:44:30)",TRUE,TRUE,FALSE,2,1,"Social",1,"km","eyescenter",-1,0,0,TRUE,1385
"A13MXQ1KC1J9QL",7,7368,200,"May 02 2014","14:44:30",20,"Switch",0,"Novel13",0,"Novel94",0,644,2,1,"(May 02 2014 14:44:30)",FALSE,TRUE,FALSE,2,1,"Social",1,"km","eyescenter",-1,0,0,TRUE,2331
"A13O9WCAZNIFYN",2,19743,195,"Apr 07 2014","03:16:42",15,"Same",1,"Novel70",0,"Novel70",0,1373,4,2,"(Apr 07 2014 03:16:42)",TRUE,TRUE,FALSE,4,7,"Social",1,"km","eyescenter",-1,0,0,TRUE,1881
"A13O9WCAZNIFYN",5,19746,198,"Apr 07 2014","03:16:42",18,"Switch",0,"Novel112",1,"Novel19",2,1840,4,2,"(Apr 07 2014 03:16:42)",FALSE,TRUE,FALSE,4,7,"Social",1,"km","eyescenter",-1,0,0,TRUE,1226
"A13O9WCAZNIFYN",7,19748,200,"Apr 07 2014","03:16:42",20,"Switch",0,"Novel62",1,"Novel62",3,2416,4,2,"(Apr 07 2014 03:16:42)",TRUE,TRUE,FALSE,4,7,"Social",1,"km","eyescenter",-1,0,0,TRUE,933
"A13P7QQDWVU76V",0,34415,147,"May 13 2014","10:05:57",7,"Same",1,"Novel7",7,"Novel7",7,1209,8,1,"(May 13 2014 10:05:57)",TRUE,TRUE,TRUE,8,1,"Social",1,"km","eyes_center",-1,0,0,TRUE,1430
"A13P7QQDWVU76V",1,34416,148,"May 13 2014","10:05:57",8,"Switch",0,"Novel135",1,"Novel107",3,693,8,1,"(May 13 2014 10:05:57)",FALSE,TRUE,FALSE,8,1,"Social",1,"km","eyes_center",-1,0,0,TRUE,696
"A13P7QQDWVU76V",2,34419,151,"May 13 2014","10:05:57",11,"Same",1,"Novel13",3,"Novel13",3,717,8,1,"(May 13 2014 10:05:57)",NA,TRUE,FALSE,8,1,"Social",1,"km","eyes_center",-1,0,0,TRUE,540
"A13P7QQDWVU76V",3,34420,152,"May 13 2014","10:05:57",12,"Switch",1,"Novel117",3,"Novel106",0,1035,8,1,"(May 13 2014 10:05:57)",NA,TRUE,FALSE,8,1,"Social",1,"km","eyes_center",-1,0,0,TRUE,497
"A13P7QQDWVU76V",4,34423,155,"May 13 2014","10:05:57",15,"Same",0,"Novel110",4,"Novel127",0,639,8,1,"(May 13 2014 10:05:57)",FALSE,TRUE,FALSE,8,1,"Social",1,"km","eyes_center",-1,0,0,TRUE,623
"A13P7QQDWVU76V",5,34424,156,"May 13 2014","10:05:57",16,"Switch",0,"Novel95",3,"Novel10",2,607,8,1,"(May 13 2014 10:05:57)",NA,TRUE,FALSE,8,1,"Social",1,"km","eyes_center",-1,0,0,TRUE,512
