"","subid","submit.date","submit.time","trial.num","itemNum","trialType","samePos","chosen","chosenIdx","kept","keptIdx","rt","face","numPic","interval","test","exposure","day.and.time","correct","include","first.trial","numPicN","intervalN"
"1","A164RBTU9AO3G7","Dec 05 2013","03:19:34",6,0,"Switch",0,"Novel109",2,"Novel27",0,3764,"eyescenter2","4","0",1,0,(Dec 05 2013 03:19:34),FALSE,TRUE,TRUE,4,0
"2","A164RBTU9AO3G7","Dec 05 2013","03:19:34",8,1,"Same",1,"Novel76",1,"Novel76",1,1377,"eyescenter2","4","0",1,0,(Dec 05 2013 03:19:34),TRUE,TRUE,NA,4,0
"3","A164RBTU9AO3G7","Dec 05 2013","03:19:34",10,2,"Switch",1,"Novel25",1,"Novel79",2,1808,"eyescenter2","4","0",1,0,(Dec 05 2013 03:19:34),FALSE,TRUE,NA,4,0
"4","A164RBTU9AO3G7","Dec 05 2013","03:19:34",12,3,"Same",0,"Novel83",3,"Novel135",1,3422,"eyescenter2","4","0",1,0,(Dec 05 2013 03:19:34),FALSE,TRUE,NA,4,0
"5","A164RBTU9AO3G7","Dec 05 2013","03:19:34",14,4,"Switch",1,"Novel1",3,"Novel140",0,1342,"eyescenter2","4","0",1,0,(Dec 05 2013 03:19:34),FALSE,TRUE,NA,4,0
"6","A164RBTU9AO3G7","Dec 05 2013","03:19:34",16,5,"Same",0,"Novel6",0,"Novel39",1,2559,"eyescenter2","4","0",1,0,(Dec 05 2013 03:19:34),FALSE,TRUE,NA,4,0
"7","A164RBTU9AO3G7","Dec 05 2013","03:19:34",18,6,"Switch",0,"Novel106",1,"Novel81",1,1892,"eyescenter2","4","0",1,0,(Dec 05 2013 03:19:34),FALSE,TRUE,NA,4,0
"8","A164RBTU9AO3G7","Dec 05 2013","03:19:34",20,7,"Same",1,"Novel24",2,"Novel82",3,2684,"eyescenter2","4","0",1,0,(Dec 05 2013 03:19:34),FALSE,TRUE,NA,4,0
"9","A18O959BLI9ZMM","Dec 05 2013","04:36:12",6,0,"Same",1,"Novel93",1,"Novel93",1,2216,"eyescenter2","4","0",1,0,(Dec 05 2013 04:36:12),TRUE,TRUE,TRUE,4,0
"10","A18O959BLI9ZMM","Dec 05 2013","04:36:12",8,1,"Switch",0,"Novel26",2,"Novel26",3,1996,"eyescenter2","4","0",1,0,(Dec 05 2013 04:36:12),TRUE,TRUE,NA,4,0
"11","A18O959BLI9ZMM","Dec 05 2013","04:36:12",10,2,"Same",0,"Novel47",2,"Novel47",3,671,"eyescenter2","4","0",1,0,(Dec 05 2013 04:36:12),TRUE,TRUE,NA,4,0
"12","A18O959BLI9ZMM","Dec 05 2013","04:36:12",12,3,"Switch",1,"Novel56",2,"Novel46",3,1716,"eyescenter2","4","0",1,0,(Dec 05 2013 04:36:12),FALSE,TRUE,NA,4,0
"13","A18O959BLI9ZMM","Dec 05 2013","04:36:12",14,4,"Same",1,"Novel5",1,"Novel75",0,1685,"eyescenter2","4","0",1,0,(Dec 05 2013 04:36:12),FALSE,TRUE,NA,4,0
"14","A18O959BLI9ZMM","Dec 05 2013","04:36:12",16,5,"Switch",1,"Novel94",2,"Novel59",1,1669,"eyescenter2","4","0",1,0,(Dec 05 2013 04:36:12),FALSE,TRUE,NA,4,0
"15","A18O959BLI9ZMM","Dec 05 2013","04:36:12",18,6,"Same",0,"Novel127",3,"Novel127",1,1685,"eyescenter2","4","0",1,0,(Dec 05 2013 04:36:12),TRUE,TRUE,NA,4,0
"16","A18O959BLI9ZMM","Dec 05 2013","04:36:12",20,7,"Switch",0,"Novel17",1,"Novel17",0,796,"eyescenter2","4","0",1,0,(Dec 05 2013 04:36:12),TRUE,TRUE,NA,4,0
"17","A1BM57TUNAQIXM","Dec 05 2013","03:34:48",6,0,"Switch",0,"Novel2",2,"Novel2",1,5218,"eyescenter2","4","0",1,0,(Dec 05 2013 03:34:48),TRUE,TRUE,TRUE,4,0
"18","A1BM57TUNAQIXM","Dec 05 2013","03:34:48",8,1,"Same",0,"Novel56",0,"Novel56",3,1299,"eyescenter2","4","0",1,0,(Dec 05 2013 03:34:48),TRUE,TRUE,NA,4,0
"19","A1BM57TUNAQIXM","Dec 05 2013","03:34:48",10,2,"Switch",1,"Novel32",1,"Novel97",2,4024,"eyescenter2","4","0",1,0,(Dec 05 2013 03:34:48),FALSE,TRUE,NA,4,0
"20","A1BM57TUNAQIXM","Dec 05 2013","03:34:48",12,3,"Same",0,"Novel110",3,"Novel110",0,915,"eyescenter2","4","0",1,0,(Dec 05 2013 03:34:48),TRUE,TRUE,NA,4,0
"21","A1BM57TUNAQIXM","Dec 05 2013","03:34:48",14,4,"Switch",1,"Novel140",2,"Novel34",1,880,"eyescenter2","4","0",1,0,(Dec 05 2013 03:34:48),FALSE,TRUE,NA,4,0
"22","A1BM57TUNAQIXM","Dec 05 2013","03:34:48",16,5,"Same",1,"Novel50",0,"Novel50",0,1173,"eyescenter2","4","0",1,0,(Dec 05 2013 03:34:48),TRUE,TRUE,NA,4,0
"23","A1BM57TUNAQIXM","Dec 05 2013","03:34:48",18,6,"Switch",0,"Novel115",2,"Novel55",2,950,"eyescenter2","4","0",1,0,(Dec 05 2013 03:34:48),FALSE,TRUE,NA,4,0
"24","A1BM57TUNAQIXM","Dec 05 2013","03:34:48",20,7,"Same",1,"Novel10",3,"Novel10",3,1059,"eyescenter2","4","0",1,0,(Dec 05 2013 03:34:48),TRUE,TRUE,NA,4,0
"25","A1DVCUCOTAC0JQ","Dec 05 2013","04:28:42",6,0,"Switch",0,"Novel111",1,"Novel111",2,3161,"eyescenter2","4","0",1,0,(Dec 05 2013 04:28:42),TRUE,TRUE,TRUE,4,0
"26","A1DVCUCOTAC0JQ","Dec 05 2013","04:28:42",8,1,"Same",0,"Novel96",3,"Novel35",3,3453,"eyescenter2","4","0",1,0,(Dec 05 2013 04:28:42),FALSE,TRUE,NA,4,0
"27","A1DVCUCOTAC0JQ","Dec 05 2013","04:28:42",10,2,"Switch",1,"Novel16",2,"Novel16",2,2452,"eyescenter2","4","0",1,0,(Dec 05 2013 04:28:42),TRUE,TRUE,NA,4,0
"28","A1DVCUCOTAC0JQ","Dec 05 2013","04:28:42",12,3,"Same",1,"Novel83",1,"Novel105",3,1894,"eyescenter2","4","0",1,0,(Dec 05 2013 04:28:42),FALSE,TRUE,NA,4,0
"29","A1DVCUCOTAC0JQ","Dec 05 2013","04:28:42",14,4,"Switch",1,"Novel6",0,"Novel6",0,3313,"eyescenter2","4","0",1,0,(Dec 05 2013 04:28:42),TRUE,TRUE,NA,4,0
"30","A1DVCUCOTAC0JQ","Dec 05 2013","04:28:42",16,5,"Same",1,"Novel122",3,"Novel43",0,1522,"eyescenter2","4","0",1,0,(Dec 05 2013 04:28:42),FALSE,TRUE,NA,4,0
"31","A1DVCUCOTAC0JQ","Dec 05 2013","04:28:42",18,6,"Switch",0,"Novel115",1,"Novel100",1,2495,"eyescenter2","4","0",1,0,(Dec 05 2013 04:28:42),FALSE,TRUE,NA,4,0
"32","A1DVCUCOTAC0JQ","Dec 05 2013","04:28:42",20,7,"Same",0,"Novel64",2,"Novel93",2,3351,"eyescenter2","4","0",1,0,(Dec 05 2013 04:28:42),FALSE,TRUE,NA,4,0
"33","A1S32HIBNP3ZK6","Dec 05 2013","03:16:54",6,0,"Same",0,"Novel129",0,"Novel129",1,19329,"eyescenter2","4","0",1,0,(Dec 05 2013 03:16:54),TRUE,TRUE,TRUE,4,0
"34","A1S32HIBNP3ZK6","Dec 05 2013","03:16:54",8,1,"Switch",0,"Novel63",3,"Novel135",0,6864,"eyescenter2","4","0",1,0,(Dec 05 2013 03:16:54),FALSE,TRUE,NA,4,0
"35","A1S32HIBNP3ZK6","Dec 05 2013","03:16:54",10,2,"Same",0,"Novel49",0,"Novel49",2,1083,"eyescenter2","4","0",1,0,(Dec 05 2013 03:16:54),TRUE,TRUE,NA,4,0
"36","A1S32HIBNP3ZK6","Dec 05 2013","03:16:54",12,3,"Switch",1,"Novel27",0,"Novel21",3,2746,"eyescenter2","4","0",1,0,(Dec 05 2013 03:16:54),FALSE,TRUE,NA,4,0
"37","A1S32HIBNP3ZK6","Dec 05 2013","03:16:54",14,4,"Same",1,"Novel91",3,"Novel91",3,936,"eyescenter2","4","0",1,0,(Dec 05 2013 03:16:54),TRUE,TRUE,NA,4,0
"38","A1S32HIBNP3ZK6","Dec 05 2013","03:16:54",16,5,"Switch",0,"Novel103",1,"Novel116",2,3401,"eyescenter2","4","0",1,0,(Dec 05 2013 03:16:54),FALSE,TRUE,NA,4,0
"39","A1S32HIBNP3ZK6","Dec 05 2013","03:16:54",18,6,"Same",1,"Novel138",2,"Novel138",2,593,"eyescenter2","4","0",1,0,(Dec 05 2013 03:16:54),TRUE,TRUE,NA,4,0
"40","A1S32HIBNP3ZK6","Dec 05 2013","03:16:54",20,7,"Switch",1,"Novel58",3,"Novel114",1,3167,"eyescenter2","4","0",1,0,(Dec 05 2013 03:16:54),FALSE,TRUE,NA,4,0
"41","A1SSBN3C7NEPEO","Dec 05 2013","04:12:56",6,0,"Same",1,"Novel69",1,"Novel69",1,3026,"eyescenter2","4","0",1,0,(Dec 05 2013 04:12:56),TRUE,TRUE,TRUE,4,0
"42","A1SSBN3C7NEPEO","Dec 05 2013","04:12:56",8,1,"Switch",1,"Novel84",2,"Novel84",2,3292,"eyescenter2","4","0",1,0,(Dec 05 2013 04:12:56),TRUE,TRUE,NA,4,0
"43","A1SSBN3C7NEPEO","Dec 05 2013","04:12:56",10,2,"Same",0,"Novel25",3,"Novel25",2,795,"eyescenter2","4","0",1,0,(Dec 05 2013 04:12:56),TRUE,TRUE,NA,4,0
"44","A1SSBN3C7NEPEO","Dec 05 2013","04:12:56",12,3,"Switch",0,"Novel72",3,"Novel60",2,952,"eyescenter2","4","0",1,0,(Dec 05 2013 04:12:56),FALSE,TRUE,NA,4,0
"45","A1SSBN3C7NEPEO","Dec 05 2013","04:12:56",14,4,"Same",1,"Novel68",3,"Novel68",3,515,"eyescenter2","4","0",1,0,(Dec 05 2013 04:12:56),TRUE,TRUE,NA,4,0
"46","A1SSBN3C7NEPEO","Dec 05 2013","04:12:56",16,5,"Switch",1,"Novel23",0,"Novel23",0,2371,"eyescenter2","4","0",1,0,(Dec 05 2013 04:12:56),TRUE,TRUE,NA,4,0
"47","A1SSBN3C7NEPEO","Dec 05 2013","04:12:56",18,6,"Same",0,"Novel138",0,"Novel138",2,796,"eyescenter2","4","0",1,0,(Dec 05 2013 04:12:56),TRUE,TRUE,NA,4,0
"48","A1SSBN3C7NEPEO","Dec 05 2013","04:12:56",20,7,"Switch",0,"Novel123",0,"Novel123",3,1918,"eyescenter2","4","0",1,0,(Dec 05 2013 04:12:56),TRUE,TRUE,NA,4,0
"49","A1USDMJVT10CE4","Dec 05 2013","03:21:14",6,0,"Switch",1,"Novel103",0,"Novel112",1,3884,"eyescenter2","4","0",1,0,(Dec 05 2013 03:21:14),FALSE,TRUE,TRUE,4,0
"50","A1USDMJVT10CE4","Dec 05 2013","03:21:14",8,1,"Same",1,"Novel17",2,"Novel17",2,2371,"eyescenter2","4","0",1,0,(Dec 05 2013 03:21:14),TRUE,TRUE,NA,4,0
"51","A1USDMJVT10CE4","Dec 05 2013","03:21:14",10,2,"Switch",0,"Novel132",0,"Novel6",0,1778,"eyescenter2","4","0",1,0,(Dec 05 2013 03:21:14),FALSE,TRUE,NA,4,0
"52","A1USDMJVT10CE4","Dec 05 2013","03:21:14",12,3,"Same",0,"Novel78",0,"Novel78",3,733,"eyescenter2","4","0",1,0,(Dec 05 2013 03:21:14),TRUE,TRUE,NA,4,0
"53","A1USDMJVT10CE4","Dec 05 2013","03:21:14",14,4,"Switch",1,"Novel76",0,"Novel91",2,4945,"eyescenter2","4","0",1,0,(Dec 05 2013 03:21:14),FALSE,TRUE,NA,4,0
"54","A1USDMJVT10CE4","Dec 05 2013","03:21:14",16,5,"Same",1,"Novel108",1,"Novel108",1,655,"eyescenter2","4","0",1,0,(Dec 05 2013 03:21:14),TRUE,TRUE,NA,4,0
"55","A1USDMJVT10CE4","Dec 05 2013","03:21:14",18,6,"Switch",0,"Novel39",1,"Novel29",2,1638,"eyescenter2","4","0",1,0,(Dec 05 2013 03:21:14),FALSE,TRUE,NA,4,0
"56","A1USDMJVT10CE4","Dec 05 2013","03:21:14",20,7,"Same",0,"Novel66",2,"Novel66",0,702,"eyescenter2","4","0",1,0,(Dec 05 2013 03:21:14),TRUE,TRUE,NA,4,0
"57","A1Z7QTDFX7ZM2O","Dec 05 2013","04:06:34",6,0,"Switch",1,"Novel20",1,"Novel74",0,4680,"eyescenter2","4","0",1,0,(Dec 05 2013 04:06:34),FALSE,TRUE,TRUE,4,0
"58","A1Z7QTDFX7ZM2O","Dec 05 2013","04:06:34",8,1,"Same",0,"Novel66",3,"Novel66",2,1021,"eyescenter2","4","0",1,0,(Dec 05 2013 04:06:34),TRUE,TRUE,NA,4,0
"59","A1Z7QTDFX7ZM2O","Dec 05 2013","04:06:34",10,2,"Switch",0,"Novel61",1,"Novel61",2,2846,"eyescenter2","4","0",1,0,(Dec 05 2013 04:06:34),TRUE,TRUE,NA,4,0
"60","A1Z7QTDFX7ZM2O","Dec 05 2013","04:06:34",12,3,"Same",0,"Novel135",3,"Novel135",2,877,"eyescenter2","4","0",1,0,(Dec 05 2013 04:06:34),TRUE,TRUE,NA,4,0
"61","A1Z7QTDFX7ZM2O","Dec 05 2013","04:06:34",14,4,"Switch",0,"Novel80",2,"Novel23",2,5897,"eyescenter2","4","0",1,0,(Dec 05 2013 04:06:34),FALSE,TRUE,NA,4,0
"62","A1Z7QTDFX7ZM2O","Dec 05 2013","04:06:34",16,5,"Same",1,"Novel29",2,"Novel29",2,722,"eyescenter2","4","0",1,0,(Dec 05 2013 04:06:34),TRUE,TRUE,NA,4,0
"63","A1Z7QTDFX7ZM2O","Dec 05 2013","04:06:34",18,6,"Switch",1,"Novel107",3,"Novel57",1,1309,"eyescenter2","4","0",1,0,(Dec 05 2013 04:06:34),FALSE,TRUE,NA,4,0
"64","A1Z7QTDFX7ZM2O","Dec 05 2013","04:06:34",20,7,"Same",1,"Novel9",3,"Novel9",3,1174,"eyescenter2","4","0",1,0,(Dec 05 2013 04:06:34),TRUE,TRUE,NA,4,0
"65","A26NQQXUTRUFYP","Dec 05 2013","04:39:26",6,0,"Switch",1,"Novel138",2,"Novel138",2,5812,"eyescenter2","4","0",1,0,(Dec 05 2013 04:39:26),TRUE,TRUE,TRUE,4,0
"66","A26NQQXUTRUFYP","Dec 05 2013","04:39:26",8,1,"Same",1,"Novel140",1,"Novel140",1,2016,"eyescenter2","4","0",1,0,(Dec 05 2013 04:39:26),TRUE,TRUE,NA,4,0
"67","A26NQQXUTRUFYP","Dec 05 2013","04:39:26",10,2,"Switch",1,"Novel39",1,"Novel33",2,2609,"eyescenter2","4","0",1,0,(Dec 05 2013 04:39:26),FALSE,TRUE,NA,4,0
"68","A26NQQXUTRUFYP","Dec 05 2013","04:39:26",12,3,"Same",1,"Novel56",3,"Novel56",3,843,"eyescenter2","4","0",1,0,(Dec 05 2013 04:39:26),TRUE,TRUE,NA,4,0
"69","A26NQQXUTRUFYP","Dec 05 2013","04:39:26",14,4,"Switch",0,"Novel27",3,"Novel91",1,1454,"eyescenter2","4","0",1,0,(Dec 05 2013 04:39:26),FALSE,TRUE,NA,4,0
"70","A26NQQXUTRUFYP","Dec 05 2013","04:39:26",16,5,"Same",0,"Novel115",0,"Novel115",1,688,"eyescenter2","4","0",1,0,(Dec 05 2013 04:39:26),TRUE,TRUE,NA,4,0
"71","A26NQQXUTRUFYP","Dec 05 2013","04:39:26",18,6,"Switch",0,"Novel127",0,"Novel127",1,1516,"eyescenter2","4","0",1,0,(Dec 05 2013 04:39:26),TRUE,TRUE,NA,4,0
"72","A26NQQXUTRUFYP","Dec 05 2013","04:39:26",20,7,"Same",0,"Novel131",1,"Novel131",0,563,"eyescenter2","4","0",1,0,(Dec 05 2013 04:39:26),TRUE,TRUE,NA,4,0
"81","A2EDBZH2TRUB6T","Dec 05 2013","03:39:18",6,0,"Switch",1,"Novel55",0,"Novel33",1,3706,"eyescenter2","4","0",1,0,(Dec 05 2013 03:39:18),FALSE,TRUE,TRUE,4,0
"82","A2EDBZH2TRUB6T","Dec 05 2013","03:39:18",8,1,"Same",0,"Novel136",2,"Novel136",1,1042,"eyescenter2","4","0",1,0,(Dec 05 2013 03:39:18),TRUE,TRUE,NA,4,0
"83","A2EDBZH2TRUB6T","Dec 05 2013","03:39:18",10,2,"Switch",1,"Novel73",2,"Novel73",2,5064,"eyescenter2","4","0",1,0,(Dec 05 2013 03:39:18),TRUE,TRUE,NA,4,0
"84","A2EDBZH2TRUB6T","Dec 05 2013","03:39:18",12,3,"Same",0,"Novel70",2,"Novel70",0,1220,"eyescenter2","4","0",1,0,(Dec 05 2013 03:39:18),TRUE,TRUE,NA,4,0
"85","A2EDBZH2TRUB6T","Dec 05 2013","03:39:18",14,4,"Switch",0,"Novel132",0,"Novel36",0,2036,"eyescenter2","4","0",1,0,(Dec 05 2013 03:39:18),FALSE,TRUE,NA,4,0
"86","A2EDBZH2TRUB6T","Dec 05 2013","03:39:18",16,5,"Same",1,"Novel2",3,"Novel2",3,1092,"eyescenter2","4","0",1,0,(Dec 05 2013 03:39:18),TRUE,TRUE,NA,4,0
"87","A2EDBZH2TRUB6T","Dec 05 2013","03:39:18",18,6,"Switch",0,"Novel25",2,"Novel89",0,2498,"eyescenter2","4","0",1,0,(Dec 05 2013 03:39:18),FALSE,TRUE,NA,4,0
"88","A2EDBZH2TRUB6T","Dec 05 2013","03:39:18",20,7,"Same",1,"Novel87",1,"Novel87",1,1491,"eyescenter2","4","0",1,0,(Dec 05 2013 03:39:18),TRUE,TRUE,NA,4,0
"89","A2EEUQ0YY2XIU","Dec 05 2013","04:30:54",6,0,"Same",0,"Novel28",0,"Novel28",3,1111,"eyescenter2","4","0",1,0,(Dec 05 2013 04:30:54),TRUE,TRUE,TRUE,4,0
"90","A2EEUQ0YY2XIU","Dec 05 2013","04:30:54",8,1,"Switch",1,"Novel15",1,"Novel129",0,1391,"eyescenter2","4","0",1,0,(Dec 05 2013 04:30:54),FALSE,TRUE,NA,4,0
"91","A2EEUQ0YY2XIU","Dec 05 2013","04:30:54",10,2,"Same",1,"Novel67",0,"Novel67",0,728,"eyescenter2","4","0",1,0,(Dec 05 2013 04:30:54),TRUE,TRUE,NA,4,0
"92","A2EEUQ0YY2XIU","Dec 05 2013","04:30:54",12,3,"Switch",0,"Novel1",0,"Novel62",0,596,"eyescenter2","4","0",1,0,(Dec 05 2013 04:30:54),FALSE,TRUE,NA,4,0
"93","A2EEUQ0YY2XIU","Dec 05 2013","04:30:54",14,4,"Same",0,"Novel81",3,"Novel81",2,789,"eyescenter2","4","0",1,0,(Dec 05 2013 04:30:54),TRUE,TRUE,NA,4,0
"94","A2EEUQ0YY2XIU","Dec 05 2013","04:30:54",16,5,"Switch",1,"Novel108",3,"Novel72",0,750,"eyescenter2","4","0",1,0,(Dec 05 2013 04:30:54),FALSE,TRUE,NA,4,0
"95","A2EEUQ0YY2XIU","Dec 05 2013","04:30:54",18,6,"Same",1,"Novel120",3,"Novel120",3,757,"eyescenter2","4","0",1,0,(Dec 05 2013 04:30:54),TRUE,TRUE,NA,4,0
"96","A2EEUQ0YY2XIU","Dec 05 2013","04:30:54",20,7,"Switch",0,"Novel70",0,"Novel19",0,956,"eyescenter2","4","0",1,0,(Dec 05 2013 04:30:54),FALSE,TRUE,NA,4,0
"97","A2LBQGPOJJIUKE","Dec 05 2013","04:02:36",6,0,"Same",0,"Novel30",2,"Novel70",1,2430,"eyescenter2","4","0",1,0,(Dec 05 2013 04:02:36),FALSE,TRUE,TRUE,4,0
"98","A2LBQGPOJJIUKE","Dec 05 2013","04:02:36",8,1,"Switch",1,"Novel87",2,"Novel112",3,12300,"eyescenter2","4","0",1,0,(Dec 05 2013 04:02:36),FALSE,TRUE,NA,4,0
"99","A2LBQGPOJJIUKE","Dec 05 2013","04:02:36",10,2,"Same",0,"Novel83",3,"Novel83",2,2059,"eyescenter2","4","0",1,0,(Dec 05 2013 04:02:36),TRUE,TRUE,NA,4,0
"100","A2LBQGPOJJIUKE","Dec 05 2013","04:02:36",12,3,"Switch",0,"Novel60",1,"Novel60",0,4035,"eyescenter2","4","0",1,0,(Dec 05 2013 04:02:36),TRUE,TRUE,NA,4,0
"101","A2LBQGPOJJIUKE","Dec 05 2013","04:02:36",14,4,"Same",1,"Novel94",0,"Novel94",0,4219,"eyescenter2","4","0",1,0,(Dec 05 2013 04:02:36),TRUE,TRUE,NA,4,0
"102","A2LBQGPOJJIUKE","Dec 05 2013","04:02:36",16,5,"Switch",1,"Novel5",1,"Novel90",0,2307,"eyescenter2","4","0",1,0,(Dec 05 2013 04:02:36),FALSE,TRUE,NA,4,0
"103","A2LBQGPOJJIUKE","Dec 05 2013","04:02:36",18,6,"Same",1,"Novel22",2,"Novel22",2,1209,"eyescenter2","4","0",1,0,(Dec 05 2013 04:02:36),TRUE,TRUE,NA,4,0
"104","A2LBQGPOJJIUKE","Dec 05 2013","04:02:36",20,7,"Switch",0,"Novel105",0,"Novel105",1,2514,"eyescenter2","4","0",1,0,(Dec 05 2013 04:02:36),TRUE,TRUE,NA,4,0
"105","A2LSIJBN4V7WX1","Dec 05 2013","04:12:12",6,0,"Same",1,"Novel62",2,"Novel62",2,1359,"eyescenter2","4","0",1,0,(Dec 05 2013 04:12:12),TRUE,TRUE,TRUE,4,0
"106","A2LSIJBN4V7WX1","Dec 05 2013","04:12:12",8,1,"Switch",0,"Novel51",0,"Novel48",2,2000,"eyescenter2","4","0",1,0,(Dec 05 2013 04:12:12),FALSE,TRUE,NA,4,0
"107","A2LSIJBN4V7WX1","Dec 05 2013","04:12:12",10,2,"Same",1,"Novel97",0,"Novel97",0,671,"eyescenter2","4","0",1,0,(Dec 05 2013 04:12:12),TRUE,TRUE,NA,4,0
"108","A2LSIJBN4V7WX1","Dec 05 2013","04:12:12",12,3,"Switch",1,"Novel118",3,"Novel118",3,1671,"eyescenter2","4","0",1,0,(Dec 05 2013 04:12:12),TRUE,TRUE,NA,4,0
"109","A2LSIJBN4V7WX1","Dec 05 2013","04:12:12",14,4,"Same",0,"Novel99",1,"Novel99",3,672,"eyescenter2","4","0",1,0,(Dec 05 2013 04:12:12),TRUE,TRUE,NA,4,0
"110","A2LSIJBN4V7WX1","Dec 05 2013","04:12:12",16,5,"Switch",1,"Novel27",3,"Novel53",2,3500,"eyescenter2","4","0",1,0,(Dec 05 2013 04:12:12),FALSE,TRUE,NA,4,0
"111","A2LSIJBN4V7WX1","Dec 05 2013","04:12:12",18,6,"Same",0,"Novel124",2,"Novel124",1,2578,"eyescenter2","4","0",1,0,(Dec 05 2013 04:12:12),TRUE,TRUE,NA,4,0
"112","A2LSIJBN4V7WX1","Dec 05 2013","04:12:12",20,7,"Switch",0,"Novel16",2,"Novel16",3,2703,"eyescenter2","4","0",1,0,(Dec 05 2013 04:12:12),TRUE,TRUE,NA,4,0
"113","A2VX8B1CJXRN2","Dec 05 2013","03:28:26",6,0,"Switch",1,"Novel35",3,"Novel51",0,6508,"eyescenter2","4","0",1,0,(Dec 05 2013 03:28:26),FALSE,TRUE,TRUE,4,0
"114","A2VX8B1CJXRN2","Dec 05 2013","03:28:26",8,1,"Same",0,"Novel123",2,"Novel123",1,4804,"eyescenter2","4","0",1,0,(Dec 05 2013 03:28:26),TRUE,TRUE,NA,4,0
"115","A2VX8B1CJXRN2","Dec 05 2013","03:28:26",10,2,"Switch",0,"Novel87",2,"Novel73",2,4425,"eyescenter2","4","0",1,0,(Dec 05 2013 03:28:26),FALSE,TRUE,NA,4,0
"116","A2VX8B1CJXRN2","Dec 05 2013","03:28:26",12,3,"Same",1,"Novel21",3,"Novel21",3,1008,"eyescenter2","4","0",1,0,(Dec 05 2013 03:28:26),TRUE,TRUE,NA,4,0
"117","A2VX8B1CJXRN2","Dec 05 2013","03:28:26",14,4,"Switch",1,"Novel136",1,"Novel125",2,3709,"eyescenter2","4","0",1,0,(Dec 05 2013 03:28:26),FALSE,TRUE,NA,4,0
"118","A2VX8B1CJXRN2","Dec 05 2013","03:28:26",16,5,"Same",0,"Novel120",0,"Novel120",2,1417,"eyescenter2","4","0",1,0,(Dec 05 2013 03:28:26),TRUE,TRUE,NA,4,0
"119","A2VX8B1CJXRN2","Dec 05 2013","03:28:26",18,6,"Switch",0,"Novel115",3,"Novel115",0,2154,"eyescenter2","4","0",1,0,(Dec 05 2013 03:28:26),TRUE,TRUE,NA,4,0
"120","A2VX8B1CJXRN2","Dec 05 2013","03:28:26",20,7,"Same",1,"Novel134",3,"Novel134",3,695,"eyescenter2","4","0",1,0,(Dec 05 2013 03:28:26),TRUE,TRUE,NA,4,0
"121","A2YPZF41N7BFA2","Dec 05 2013","03:09:44",6,0,"Same",0,"Novel93",0,"Novel93",3,3213,"eyescenter2","4","0",1,0,(Dec 05 2013 03:09:44),TRUE,TRUE,TRUE,4,0
"122","A2YPZF41N7BFA2","Dec 05 2013","03:09:44",8,1,"Switch",0,"Novel59",1,"Novel57",3,5787,"eyescenter2","4","0",1,0,(Dec 05 2013 03:09:44),FALSE,TRUE,NA,4,0
"123","A2YPZF41N7BFA2","Dec 05 2013","03:09:44",10,2,"Same",1,"Novel75",1,"Novel75",1,765,"eyescenter2","4","0",1,0,(Dec 05 2013 03:09:44),TRUE,TRUE,NA,4,0
"124","A2YPZF41N7BFA2","Dec 05 2013","03:09:44",12,3,"Switch",1,"Novel7",3,"Novel134",0,3931,"eyescenter2","4","0",1,0,(Dec 05 2013 03:09:44),FALSE,TRUE,NA,4,0
"125","A2YPZF41N7BFA2","Dec 05 2013","03:09:44",14,4,"Same",0,"Novel130",3,"Novel130",2,1326,"eyescenter2","4","0",1,0,(Dec 05 2013 03:09:44),TRUE,TRUE,NA,4,0
"126","A2YPZF41N7BFA2","Dec 05 2013","03:09:44",16,5,"Switch",1,"Novel111",1,"Novel51",2,2777,"eyescenter2","4","0",1,0,(Dec 05 2013 03:09:44),FALSE,TRUE,NA,4,0
"127","A2YPZF41N7BFA2","Dec 05 2013","03:09:44",18,6,"Same",1,"Novel76",1,"Novel76",1,733,"eyescenter2","4","0",1,0,(Dec 05 2013 03:09:44),TRUE,TRUE,NA,4,0
"128","A2YPZF41N7BFA2","Dec 05 2013","03:09:44",20,7,"Switch",0,"Novel45",1,"Novel45",2,452,"eyescenter2","4","0",1,0,(Dec 05 2013 03:09:44),TRUE,TRUE,NA,4,0
"129","A34ZHROFSVEF6V","Dec 05 2013","03:26:05",6,0,"Switch",0,"Novel118",0,"Novel118",2,5138,"eyescenter2","4","0",1,0,(Dec 05 2013 03:26:05),TRUE,TRUE,TRUE,4,0
"130","A34ZHROFSVEF6V","Dec 05 2013","03:26:05",8,1,"Same",0,"Novel106",0,"Novel106",3,1710,"eyescenter2","4","0",1,0,(Dec 05 2013 03:26:05),TRUE,TRUE,NA,4,0
"131","A34ZHROFSVEF6V","Dec 05 2013","03:26:05",10,2,"Switch",1,"Novel14",2,"Novel37",3,5867,"eyescenter2","4","0",1,0,(Dec 05 2013 03:26:05),FALSE,TRUE,NA,4,0
"132","A34ZHROFSVEF6V","Dec 05 2013","03:26:05",12,3,"Same",1,"Novel102",1,"Novel102",1,1485,"eyescenter2","4","0",1,0,(Dec 05 2013 03:26:05),TRUE,TRUE,NA,4,0
"133","A34ZHROFSVEF6V","Dec 05 2013","03:26:05",14,4,"Switch",1,"Novel112",0,"Novel136",3,5057,"eyescenter2","4","0",1,0,(Dec 05 2013 03:26:05),FALSE,TRUE,NA,4,0
"134","A34ZHROFSVEF6V","Dec 05 2013","03:26:05",16,5,"Same",0,"Novel68",2,"Novel68",3,1122,"eyescenter2","4","0",1,0,(Dec 05 2013 03:26:05),TRUE,TRUE,NA,4,0
"135","A34ZHROFSVEF6V","Dec 05 2013","03:26:05",18,6,"Switch",0,"Novel35",3,"Novel35",0,2858,"eyescenter2","4","0",1,0,(Dec 05 2013 03:26:05),TRUE,TRUE,NA,4,0
"136","A34ZHROFSVEF6V","Dec 05 2013","03:26:05",20,7,"Same",1,"Novel107",0,"Novel107",0,2101,"eyescenter2","4","0",1,0,(Dec 05 2013 03:26:05),TRUE,TRUE,NA,4,0
"137","A37PTN17UH3H1","Dec 05 2013","04:09:24",6,0,"Switch",0,"Novel37",2,"Novel80",2,7551,"eyescenter2","4","0",1,0,(Dec 05 2013 04:09:24),FALSE,TRUE,TRUE,4,0
"138","A37PTN17UH3H1","Dec 05 2013","04:09:24",8,1,"Same",1,"Novel94",0,"Novel94",0,2012,"eyescenter2","4","0",1,0,(Dec 05 2013 04:09:24),TRUE,TRUE,NA,4,0
"139","A37PTN17UH3H1","Dec 05 2013","04:09:24",10,2,"Switch",1,"Novel129",2,"Novel102",0,2855,"eyescenter2","4","0",1,0,(Dec 05 2013 04:09:24),FALSE,TRUE,NA,4,0
"140","A37PTN17UH3H1","Dec 05 2013","04:09:24",12,3,"Same",1,"Novel21",1,"Novel21",1,1420,"eyescenter2","4","0",1,0,(Dec 05 2013 04:09:24),TRUE,TRUE,NA,4,0
"141","A37PTN17UH3H1","Dec 05 2013","04:09:24",14,4,"Switch",0,"Novel16",3,"Novel16",0,780,"eyescenter2","4","0",1,0,(Dec 05 2013 04:09:24),TRUE,TRUE,NA,4,0
"142","A37PTN17UH3H1","Dec 05 2013","04:09:24",16,5,"Same",0,"Novel74",2,"Novel74",3,780,"eyescenter2","4","0",1,0,(Dec 05 2013 04:09:24),TRUE,TRUE,NA,4,0
"143","A37PTN17UH3H1","Dec 05 2013","04:09:24",18,6,"Switch",1,"Novel55",1,"Novel55",1,1092,"eyescenter2","4","0",1,0,(Dec 05 2013 04:09:24),TRUE,TRUE,NA,4,0
"144","A37PTN17UH3H1","Dec 05 2013","04:09:24",20,7,"Same",0,"Novel111",1,"Novel111",3,702,"eyescenter2","4","0",1,0,(Dec 05 2013 04:09:24),TRUE,TRUE,NA,4,0
"145","A38PDFJ9KGQGLV","Dec 05 2013","03:16:31",6,0,"Switch",0,"Novel51",3,"Novel51",0,3203,"eyescenter2","4","0",1,0,(Dec 05 2013 03:16:31),TRUE,TRUE,TRUE,4,0
"146","A38PDFJ9KGQGLV","Dec 05 2013","03:16:31",8,1,"Same",0,"Novel124",2,"Novel70",2,3922,"eyescenter2","4","0",1,0,(Dec 05 2013 03:16:31),FALSE,TRUE,NA,4,0
"147","A38PDFJ9KGQGLV","Dec 05 2013","03:16:31",10,2,"Switch",1,"Novel60",1,"Novel55",2,2422,"eyescenter2","4","0",1,0,(Dec 05 2013 03:16:31),FALSE,TRUE,NA,4,0
"148","A38PDFJ9KGQGLV","Dec 05 2013","03:16:31",12,3,"Same",0,"Novel54",2,"Novel54",0,1328,"eyescenter2","4","0",1,0,(Dec 05 2013 03:16:31),TRUE,TRUE,NA,4,0
"149","A38PDFJ9KGQGLV","Dec 05 2013","03:16:31",14,4,"Switch",1,"Novel83",3,"Novel83",3,1594,"eyescenter2","4","0",1,0,(Dec 05 2013 03:16:31),TRUE,TRUE,NA,4,0
"150","A38PDFJ9KGQGLV","Dec 05 2013","03:16:31",16,5,"Same",1,"Novel8",0,"Novel6",1,4078,"eyescenter2","4","0",1,0,(Dec 05 2013 03:16:31),FALSE,TRUE,NA,4,0
"151","A38PDFJ9KGQGLV","Dec 05 2013","03:16:31",18,6,"Switch",0,"Novel138",2,"Novel16",0,2671,"eyescenter2","4","0",1,0,(Dec 05 2013 03:16:31),FALSE,TRUE,NA,4,0
"152","A38PDFJ9KGQGLV","Dec 05 2013","03:16:31",20,7,"Same",1,"Novel130",2,"Novel130",2,813,"eyescenter2","4","0",1,0,(Dec 05 2013 03:16:31),TRUE,TRUE,NA,4,0
"153","A3D4U1VY8VSDI6","Dec 05 2013","04:30:17",6,0,"Same",1,"Novel134",2,"Novel134",2,6453,"eyescenter2","4","0",1,0,(Dec 05 2013 04:30:17),TRUE,TRUE,TRUE,4,0
"154","A3D4U1VY8VSDI6","Dec 05 2013","04:30:17",8,1,"Switch",1,"Novel2",2,"Novel2",2,2672,"eyescenter2","4","0",1,0,(Dec 05 2013 04:30:17),TRUE,TRUE,NA,4,0
"155","A3D4U1VY8VSDI6","Dec 05 2013","04:30:17",10,2,"Same",0,"Novel61",1,"Novel61",3,1266,"eyescenter2","4","0",1,0,(Dec 05 2013 04:30:17),TRUE,TRUE,NA,4,0
"156","A3D4U1VY8VSDI6","Dec 05 2013","04:30:17",12,3,"Switch",0,"Novel41",1,"Novel41",0,3484,"eyescenter2","4","0",1,0,(Dec 05 2013 04:30:17),TRUE,TRUE,NA,4,0
"157","A3D4U1VY8VSDI6","Dec 05 2013","04:30:17",14,4,"Same",0,"Novel103",2,"Novel103",1,1094,"eyescenter2","4","0",1,0,(Dec 05 2013 04:30:17),TRUE,TRUE,NA,4,0
"158","A3D4U1VY8VSDI6","Dec 05 2013","04:30:17",16,5,"Switch",0,"Novel122",1,"Novel21",2,3375,"eyescenter2","4","0",1,0,(Dec 05 2013 04:30:17),FALSE,TRUE,NA,4,0
"159","A3D4U1VY8VSDI6","Dec 05 2013","04:30:17",18,6,"Same",1,"Novel108",0,"Novel108",0,3640,"eyescenter2","4","0",1,0,(Dec 05 2013 04:30:17),TRUE,TRUE,NA,4,0
"160","A3D4U1VY8VSDI6","Dec 05 2013","04:30:17",20,7,"Switch",1,"Novel120",2,"Novel127",0,1828,"eyescenter2","4","0",1,0,(Dec 05 2013 04:30:17),FALSE,TRUE,NA,4,0
"161","A3JNV32JQW4DTC","Dec 05 2013","04:21:13",6,0,"Switch",1,"Novel2",2,"Novel90",1,6583,"eyescenter2","4","0",1,0,(Dec 05 2013 04:21:13),FALSE,TRUE,TRUE,4,0
"162","A3JNV32JQW4DTC","Dec 05 2013","04:21:13",8,1,"Same",1,"Novel139",2,"Novel139",2,1342,"eyescenter2","4","0",1,0,(Dec 05 2013 04:21:13),TRUE,TRUE,NA,4,0
"163","A3JNV32JQW4DTC","Dec 05 2013","04:21:13",10,2,"Switch",0,"Novel99",2,"Novel106",3,3479,"eyescenter2","4","0",1,0,(Dec 05 2013 04:21:13),FALSE,TRUE,NA,4,0
"164","A3JNV32JQW4DTC","Dec 05 2013","04:21:13",12,3,"Same",0,"Novel85",3,"Novel85",0,4587,"eyescenter2","4","0",1,0,(Dec 05 2013 04:21:13),TRUE,TRUE,NA,4,0
"165","A3JNV32JQW4DTC","Dec 05 2013","04:21:13",14,4,"Switch",1,"Novel23",1,"Novel27",2,968,"eyescenter2","4","0",1,0,(Dec 05 2013 04:21:13),FALSE,TRUE,NA,4,0
"166","A3JNV32JQW4DTC","Dec 05 2013","04:21:13",16,5,"Same",0,"Novel65",2,"Novel65",3,265,"eyescenter2","4","0",1,0,(Dec 05 2013 04:21:13),TRUE,TRUE,NA,4,0
"167","A3JNV32JQW4DTC","Dec 05 2013","04:21:13",18,6,"Switch",0,"Novel36",1,"Novel110",3,2574,"eyescenter2","4","0",1,0,(Dec 05 2013 04:21:13),FALSE,TRUE,NA,4,0
"168","A3JNV32JQW4DTC","Dec 05 2013","04:21:13",20,7,"Same",1,"Novel31",0,"Novel31",0,764,"eyescenter2","4","0",1,0,(Dec 05 2013 04:21:13),TRUE,TRUE,NA,4,0
"169","A3K1UZBNGXZ7X5","Dec 05 2013","04:29:26",6,0,"Same",1,"Novel138",1,"Novel138",1,2340,"eyescenter2","4","0",1,0,(Dec 05 2013 04:29:26),TRUE,TRUE,TRUE,4,0
"170","A3K1UZBNGXZ7X5","Dec 05 2013","04:29:26",8,1,"Switch",0,"Novel115",0,"Novel115",2,2262,"eyescenter2","4","0",1,0,(Dec 05 2013 04:29:26),TRUE,TRUE,NA,4,0
"171","A3K1UZBNGXZ7X5","Dec 05 2013","04:29:26",10,2,"Same",0,"Novel101",1,"Novel101",0,1217,"eyescenter2","4","0",1,0,(Dec 05 2013 04:29:26),TRUE,TRUE,NA,4,0
"172","A3K1UZBNGXZ7X5","Dec 05 2013","04:29:26",12,3,"Switch",1,"Novel28",2,"Novel28",2,2793,"eyescenter2","4","0",1,0,(Dec 05 2013 04:29:26),TRUE,TRUE,NA,4,0
"173","A3K1UZBNGXZ7X5","Dec 05 2013","04:29:26",14,4,"Same",0,"Novel108",0,"Novel108",3,1264,"eyescenter2","4","0",1,0,(Dec 05 2013 04:29:26),TRUE,TRUE,NA,4,0
"174","A3K1UZBNGXZ7X5","Dec 05 2013","04:29:26",16,5,"Switch",1,"Novel46",0,"Novel64",2,2075,"eyescenter2","4","0",1,0,(Dec 05 2013 04:29:26),FALSE,TRUE,NA,4,0
"175","A3K1UZBNGXZ7X5","Dec 05 2013","04:29:26",18,6,"Same",1,"Novel109",2,"Novel109",2,1373,"eyescenter2","4","0",1,0,(Dec 05 2013 04:29:26),TRUE,TRUE,NA,4,0
"176","A3K1UZBNGXZ7X5","Dec 05 2013","04:29:26",20,7,"Switch",0,"Novel42",0,"Novel42",1,1170,"eyescenter2","4","0",1,0,(Dec 05 2013 04:29:26),TRUE,TRUE,NA,4,0
"177","ABHKIR4MLWULZ","Dec 05 2013","04:16:05",6,0,"Same",1,"Novel134",0,"Novel134",0,1185,"eyescenter2","4","0",1,0,(Dec 05 2013 04:16:05),TRUE,TRUE,TRUE,4,0
"178","ABHKIR4MLWULZ","Dec 05 2013","04:16:05",8,1,"Switch",1,"Novel78",3,"Novel78",3,4999,"eyescenter2","4","0",1,0,(Dec 05 2013 04:16:05),TRUE,TRUE,NA,4,0
"179","ABHKIR4MLWULZ","Dec 05 2013","04:16:05",10,2,"Same",0,"Novel125",2,"Novel125",1,811,"eyescenter2","4","0",1,0,(Dec 05 2013 04:16:05),TRUE,TRUE,NA,4,0
"180","ABHKIR4MLWULZ","Dec 05 2013","04:16:05",12,3,"Switch",0,"Novel107",3,"Novel107",1,1498,"eyescenter2","4","0",1,0,(Dec 05 2013 04:16:05),TRUE,TRUE,NA,4,0
"181","ABHKIR4MLWULZ","Dec 05 2013","04:16:05",14,4,"Same",0,"Novel70",1,"Novel70",3,1092,"eyescenter2","4","0",1,0,(Dec 05 2013 04:16:05),TRUE,TRUE,NA,4,0
"182","ABHKIR4MLWULZ","Dec 05 2013","04:16:05",16,5,"Switch",1,"Novel6",2,"Novel99",1,826,"eyescenter2","4","0",1,0,(Dec 05 2013 04:16:05),FALSE,TRUE,NA,4,0
"183","ABHKIR4MLWULZ","Dec 05 2013","04:16:05",18,6,"Same",1,"Novel29",3,"Novel29",3,670,"eyescenter2","4","0",1,0,(Dec 05 2013 04:16:05),TRUE,TRUE,NA,4,0
"184","ABHKIR4MLWULZ","Dec 05 2013","04:16:05",20,7,"Switch",0,"Novel128",2,"Novel50",2,593,"eyescenter2","4","0",1,0,(Dec 05 2013 04:16:05),FALSE,TRUE,NA,4,0
"185","AEKCK3L7OKCY9","Dec 05 2013","04:11:37",6,0,"Same",1,"Novel71",2,"Novel71",2,1092,"eyescenter2","4","0",1,0,(Dec 05 2013 04:11:37),TRUE,TRUE,TRUE,4,0
"186","AEKCK3L7OKCY9","Dec 05 2013","04:11:37",8,1,"Switch",1,"Novel38",2,"Novel22",1,6037,"eyescenter2","4","0",1,0,(Dec 05 2013 04:11:37),FALSE,TRUE,NA,4,0
"187","AEKCK3L7OKCY9","Dec 05 2013","04:11:37",10,2,"Same",0,"Novel92",2,"Novel92",0,1529,"eyescenter2","4","0",1,0,(Dec 05 2013 04:11:37),TRUE,TRUE,NA,4,0
"188","AEKCK3L7OKCY9","Dec 05 2013","04:11:37",12,3,"Switch",0,"Novel46",2,"Novel48",2,5117,"eyescenter2","4","0",1,0,(Dec 05 2013 04:11:37),FALSE,TRUE,NA,4,0
"189","AEKCK3L7OKCY9","Dec 05 2013","04:11:37",14,4,"Same",1,"Novel55",0,"Novel55",0,1560,"eyescenter2","4","0",1,0,(Dec 05 2013 04:11:37),TRUE,TRUE,NA,4,0
"190","AEKCK3L7OKCY9","Dec 05 2013","04:11:37",16,5,"Switch",1,"Novel3",3,"Novel90",1,2527,"eyescenter2","4","0",1,0,(Dec 05 2013 04:11:37),FALSE,TRUE,NA,4,0
"191","AEKCK3L7OKCY9","Dec 05 2013","04:11:37",18,6,"Same",0,"Novel85",3,"Novel85",2,655,"eyescenter2","4","0",1,0,(Dec 05 2013 04:11:37),TRUE,TRUE,NA,4,0
"192","AEKCK3L7OKCY9","Dec 05 2013","04:11:37",20,7,"Switch",0,"Novel110",1,"Novel89",3,2450,"eyescenter2","4","0",1,0,(Dec 05 2013 04:11:37),FALSE,TRUE,NA,4,0
"193","AGU3P5LLHVI5X","Dec 05 2013","04:21:06",6,0,"Switch",0,"Novel91",3,"Novel91",1,2762,"eyescenter2","4","0",1,0,(Dec 05 2013 04:21:06),TRUE,TRUE,TRUE,4,0
"194","AGU3P5LLHVI5X","Dec 05 2013","04:21:06",8,1,"Same",0,"Novel93",1,"Novel93",3,748,"eyescenter2","4","0",1,0,(Dec 05 2013 04:21:06),TRUE,TRUE,NA,4,0
"195","AGU3P5LLHVI5X","Dec 05 2013","04:21:06",10,2,"Switch",1,"Novel119",3,"Novel13",0,2028,"eyescenter2","4","0",1,0,(Dec 05 2013 04:21:06),FALSE,TRUE,NA,4,0
"196","AGU3P5LLHVI5X","Dec 05 2013","04:21:06",12,3,"Same",1,"Novel57",1,"Novel57",1,733,"eyescenter2","4","0",1,0,(Dec 05 2013 04:21:06),TRUE,TRUE,NA,4,0
"197","AGU3P5LLHVI5X","Dec 05 2013","04:21:06",14,4,"Switch",1,"Novel139",0,"Novel1",2,1186,"eyescenter2","4","0",1,0,(Dec 05 2013 04:21:06),FALSE,TRUE,NA,4,0
"198","AGU3P5LLHVI5X","Dec 05 2013","04:21:06",16,5,"Same",0,"Novel116",3,"Novel116",1,140,"eyescenter2","4","0",1,0,(Dec 05 2013 04:21:06),TRUE,TRUE,NA,4,0
"199","AGU3P5LLHVI5X","Dec 05 2013","04:21:06",18,6,"Switch",0,"Novel82",1,"Novel82",0,1092,"eyescenter2","4","0",1,0,(Dec 05 2013 04:21:06),TRUE,TRUE,NA,4,0
"200","AGU3P5LLHVI5X","Dec 05 2013","04:21:06",20,7,"Same",1,"Novel115",2,"Novel115",2,531,"eyescenter2","4","0",1,0,(Dec 05 2013 04:21:06),TRUE,TRUE,NA,4,0
"201","AK96E3Z3RFYU3","Dec 05 2013","04:30:14",6,0,"Same",0,"Novel91",1,"Novel91",2,2622,"eyescenter2","4","0",1,0,(Dec 05 2013 04:30:14),TRUE,TRUE,TRUE,4,0
"202","AK96E3Z3RFYU3","Dec 05 2013","04:30:14",8,1,"Switch",0,"Novel110",0,"Novel128",1,6706,"eyescenter2","4","0",1,0,(Dec 05 2013 04:30:14),FALSE,TRUE,NA,4,0
"203","AK96E3Z3RFYU3","Dec 05 2013","04:30:14",10,2,"Same",0,"Novel49",0,"Novel49",3,1331,"eyescenter2","4","0",1,0,(Dec 05 2013 04:30:14),TRUE,TRUE,NA,4,0
"204","AK96E3Z3RFYU3","Dec 05 2013","04:30:14",12,3,"Switch",0,"Novel100",1,"Novel122",3,2650,"eyescenter2","4","0",1,0,(Dec 05 2013 04:30:14),FALSE,TRUE,NA,4,0
"205","AK96E3Z3RFYU3","Dec 05 2013","04:30:14",14,4,"Same",1,"Novel64",2,"Novel64",2,1931,"eyescenter2","4","0",1,0,(Dec 05 2013 04:30:14),TRUE,TRUE,NA,4,0
"206","AK96E3Z3RFYU3","Dec 05 2013","04:30:14",16,5,"Switch",1,"Novel74",3,"Novel74",3,1453,"eyescenter2","4","0",1,0,(Dec 05 2013 04:30:14),TRUE,TRUE,NA,4,0
"207","AK96E3Z3RFYU3","Dec 05 2013","04:30:14",18,6,"Same",1,"Novel43",1,"Novel43",1,1070,"eyescenter2","4","0",1,0,(Dec 05 2013 04:30:14),TRUE,TRUE,NA,4,0
"208","AK96E3Z3RFYU3","Dec 05 2013","04:30:14",20,7,"Switch",1,"Novel26",1,"Novel112",3,842,"eyescenter2","4","0",1,0,(Dec 05 2013 04:30:14),FALSE,TRUE,NA,4,0
"209","AM3E6SVW2M0X3","Dec 05 2013","03:15:31",6,0,"Switch",1,"Novel104",2,"Novel58",0,1846,"eyescenter2","4","0",1,0,(Dec 05 2013 03:15:31),FALSE,TRUE,TRUE,4,0
"210","AM3E6SVW2M0X3","Dec 05 2013","03:15:31",8,1,"Same",1,"Novel88",1,"Novel88",1,1679,"eyescenter2","4","0",1,0,(Dec 05 2013 03:15:31),TRUE,TRUE,NA,4,0
"211","AM3E6SVW2M0X3","Dec 05 2013","03:15:31",10,2,"Switch",1,"Novel84",2,"Novel5",3,4254,"eyescenter2","4","0",1,0,(Dec 05 2013 03:15:31),FALSE,TRUE,NA,4,0
"212","AM3E6SVW2M0X3","Dec 05 2013","03:15:31",12,3,"Same",0,"Novel80",1,"Novel17",1,24047,"eyescenter2","4","0",1,0,(Dec 05 2013 03:15:31),FALSE,TRUE,NA,4,0
"213","AM3E6SVW2M0X3","Dec 05 2013","03:15:31",14,4,"Switch",0,"Novel126",1,"Novel53",0,2833,"eyescenter2","4","0",1,0,(Dec 05 2013 03:15:31),FALSE,TRUE,NA,4,0
"214","AM3E6SVW2M0X3","Dec 05 2013","03:15:31",16,5,"Same",1,"Novel94",0,"Novel94",0,973,"eyescenter2","4","0",1,0,(Dec 05 2013 03:15:31),TRUE,TRUE,NA,4,0
"215","AM3E6SVW2M0X3","Dec 05 2013","03:15:31",18,6,"Switch",0,"Novel101",1,"Novel121",3,837,"eyescenter2","4","0",1,0,(Dec 05 2013 03:15:31),FALSE,TRUE,NA,4,0
"216","AM3E6SVW2M0X3","Dec 05 2013","03:15:31",20,7,"Same",0,"Novel125",3,"Novel125",2,1073,"eyescenter2","4","0",1,0,(Dec 05 2013 03:15:31),TRUE,TRUE,NA,4,0
"217","AN5MSKMMSUXGQ","Dec 05 2013","04:32:56",6,0,"Same",0,"Novel131",2,"Novel131",1,2007,"eyescenter2","4","0",1,0,(Dec 05 2013 04:32:56),TRUE,TRUE,TRUE,4,0
"218","AN5MSKMMSUXGQ","Dec 05 2013","04:32:56",8,1,"Switch",1,"Novel13",1,"Novel97",0,10303,"eyescenter2","4","0",1,0,(Dec 05 2013 04:32:56),FALSE,TRUE,NA,4,0
"219","AN5MSKMMSUXGQ","Dec 05 2013","04:32:56",10,2,"Same",1,"Novel14",2,"Novel14",2,1155,"eyescenter2","4","0",1,0,(Dec 05 2013 04:32:56),TRUE,TRUE,NA,4,0
"220","AN5MSKMMSUXGQ","Dec 05 2013","04:32:56",12,3,"Switch",0,"Novel138",2,"Novel15",3,1306,"eyescenter2","4","0",1,0,(Dec 05 2013 04:32:56),FALSE,TRUE,NA,4,0
"221","AN5MSKMMSUXGQ","Dec 05 2013","04:32:56",14,4,"Same",0,"Novel67",3,"Novel67",2,1154,"eyescenter2","4","0",1,0,(Dec 05 2013 04:32:56),TRUE,TRUE,NA,4,0
"222","AN5MSKMMSUXGQ","Dec 05 2013","04:32:56",16,5,"Switch",0,"Novel68",2,"Novel129",0,11324,"eyescenter2","4","0",1,0,(Dec 05 2013 04:32:56),FALSE,TRUE,NA,4,0
"223","AN5MSKMMSUXGQ","Dec 05 2013","04:32:56",18,6,"Same",1,"Novel48",2,"Novel48",2,983,"eyescenter2","4","0",1,0,(Dec 05 2013 04:32:56),TRUE,TRUE,NA,4,0
"224","AN5MSKMMSUXGQ","Dec 05 2013","04:32:56",20,7,"Switch",1,"Novel85",2,"Novel105",0,4471,"eyescenter2","4","0",1,0,(Dec 05 2013 04:32:56),FALSE,TRUE,NA,4,0
"225","APUDEHJUFAFZV","Dec 05 2013","04:17:53",6,0,"Same",1,"Novel68",0,"Novel68",0,1794,"eyescenter2","4","0",1,0,(Dec 05 2013 04:17:53),TRUE,TRUE,TRUE,4,0
"226","APUDEHJUFAFZV","Dec 05 2013","04:17:53",8,1,"Switch",0,"Novel53",0,"Novel53",1,4587,"eyescenter2","4","0",1,0,(Dec 05 2013 04:17:53),TRUE,TRUE,NA,4,0
"227","APUDEHJUFAFZV","Dec 05 2013","04:17:53",10,2,"Same",1,"Novel111",1,"Novel111",1,952,"eyescenter2","4","0",1,0,(Dec 05 2013 04:17:53),TRUE,TRUE,NA,4,0
"228","APUDEHJUFAFZV","Dec 05 2013","04:17:53",12,3,"Switch",1,"Novel30",3,"Novel30",3,1092,"eyescenter2","4","0",1,0,(Dec 05 2013 04:17:53),TRUE,TRUE,NA,4,0
"229","APUDEHJUFAFZV","Dec 05 2013","04:17:53",14,4,"Same",0,"Novel77",0,"Novel89",0,3120,"eyescenter2","4","0",1,0,(Dec 05 2013 04:17:53),FALSE,TRUE,NA,4,0
"230","APUDEHJUFAFZV","Dec 05 2013","04:17:53",16,5,"Switch",1,"Novel65",3,"Novel65",3,1326,"eyescenter2","4","0",1,0,(Dec 05 2013 04:17:53),TRUE,TRUE,NA,4,0
"231","APUDEHJUFAFZV","Dec 05 2013","04:17:53",18,6,"Same",0,"Novel24",1,"Novel24",0,1607,"eyescenter2","4","0",1,0,(Dec 05 2013 04:17:53),TRUE,TRUE,NA,4,0
"232","APUDEHJUFAFZV","Dec 05 2013","04:17:53",20,7,"Switch",0,"Novel56",2,"Novel120",2,1778,"eyescenter2","4","0",1,0,(Dec 05 2013 04:17:53),FALSE,TRUE,NA,4,0
"233","ARQQHT1JIRORV","Dec 05 2013","04:28:46",6,0,"Switch",0,"Novel38",2,"Novel38",3,7129,"eyescenter2","4","0",1,0,(Dec 05 2013 04:28:46),TRUE,TRUE,TRUE,4,0
"234","ARQQHT1JIRORV","Dec 05 2013","04:28:46",8,1,"Same",0,"Novel70",1,"Novel70",0,1139,"eyescenter2","4","0",1,0,(Dec 05 2013 04:28:46),TRUE,TRUE,NA,4,0
"235","ARQQHT1JIRORV","Dec 05 2013","04:28:46",10,2,"Switch",1,"Novel126",0,"Novel134",1,3463,"eyescenter2","4","0",1,0,(Dec 05 2013 04:28:46),FALSE,TRUE,NA,4,0
"236","ARQQHT1JIRORV","Dec 05 2013","04:28:46",12,3,"Same",1,"Novel17",1,"Novel17",1,1311,"eyescenter2","4","0",1,0,(Dec 05 2013 04:28:46),TRUE,TRUE,NA,4,0
"237","ARQQHT1JIRORV","Dec 05 2013","04:28:46",14,4,"Switch",0,"Novel128",1,"Novel56",0,2247,"eyescenter2","4","0",1,0,(Dec 05 2013 04:28:46),FALSE,TRUE,NA,4,0
"238","ARQQHT1JIRORV","Dec 05 2013","04:28:46",16,5,"Same",0,"Novel80",2,"Novel80",0,1341,"eyescenter2","4","0",1,0,(Dec 05 2013 04:28:46),TRUE,TRUE,NA,4,0
"239","ARQQHT1JIRORV","Dec 05 2013","04:28:46",18,6,"Switch",1,"Novel129",2,"Novel129",2,2184,"eyescenter2","4","0",1,0,(Dec 05 2013 04:28:46),TRUE,TRUE,NA,4,0
"240","ARQQHT1JIRORV","Dec 05 2013","04:28:46",20,7,"Same",1,"Novel3",0,"Novel3",0,983,"eyescenter2","4","0",1,0,(Dec 05 2013 04:28:46),TRUE,TRUE,NA,4,0
