"","subid","submit.date","submit.time","trial.num","itemNum","trialType","samePos","chosen","chosenIdx","kept","keptIdx","rt","numPic","interval","test","day.and.time","correct","include","first.trial","numPicN","intervalN"
"1","A0017268R9SKD8U2Y3F","Aug 11 2013","18:45:03",13,0,"Same",1,"Novel28",1,"Novel28",1,2124,"3","7",1,(Aug 11 2013 18:45:03),TRUE,TRUE,TRUE,3,7
"2","A0017268R9SKD8U2Y3F","Aug 11 2013","18:45:03",14,1,"Switch",1,"Novel118",2,"Novel118",2,2475,"3","7",1,(Aug 11 2013 18:45:03),TRUE,TRUE,FALSE,3,7
"3","A0017268R9SKD8U2Y3F","Aug 11 2013","18:45:03",15,2,"Same",0,"Novel96",2,"Novel96",1,1669,"3","7",1,(Aug 11 2013 18:45:03),TRUE,TRUE,FALSE,3,7
"4","A0017268R9SKD8U2Y3F","Aug 11 2013","18:45:03",16,3,"Switch",1,"Novel68",1,"Novel134",0,3223,"3","7",1,(Aug 11 2013 18:45:03),FALSE,TRUE,FALSE,3,7
"5","A0017268R9SKD8U2Y3F","Aug 11 2013","18:45:03",17,4,"Same",1,"Novel88",1,"Novel88",1,1518,"3","7",1,(Aug 11 2013 18:45:03),TRUE,TRUE,FALSE,3,7
"6","A0017268R9SKD8U2Y3F","Aug 11 2013","18:45:03",18,5,"Switch",0,"Novel7",2,"Novel7",0,5950,"3","7",1,(Aug 11 2013 18:45:03),TRUE,TRUE,FALSE,3,7
"7","A0017268R9SKD8U2Y3F","Aug 11 2013","18:45:03",19,6,"Same",0,"Novel139",0,"Novel139",1,1643,"3","7",1,(Aug 11 2013 18:45:03),TRUE,TRUE,FALSE,3,7
"8","A0017268R9SKD8U2Y3F","Aug 11 2013","18:45:03",20,7,"Switch",0,"Novel27",2,"Novel72",0,2333,"3","7",1,(Aug 11 2013 18:45:03),FALSE,TRUE,FALSE,3,7
"9","A00236363DL2ZN8A4FD78","Apr 02 2013","16:25:45",6,0,"Switch",1,"Novel74",3,"Novel22",2,2010,"8","0",1,(Apr 02 2013 16:25:45),FALSE,TRUE,TRUE,8,0
"10","A00236363DL2ZN8A4FD78","Apr 02 2013","16:25:45",8,1,"Same",1,"Novel87",7,"Novel87",7,1991,"8","0",1,(Apr 02 2013 16:25:45),TRUE,TRUE,FALSE,8,0
"11","A00236363DL2ZN8A4FD78","Apr 02 2013","16:25:45",10,2,"Switch",0,"Novel139",1,"Novel98",0,7460,"8","0",1,(Apr 02 2013 16:25:45),FALSE,TRUE,FALSE,8,0
"12","A00236363DL2ZN8A4FD78","Apr 02 2013","16:25:45",12,3,"Same",1,"Novel53",6,"Novel53",6,1519,"8","0",1,(Apr 02 2013 16:25:45),TRUE,TRUE,FALSE,8,0
"13","A00236363DL2ZN8A4FD78","Apr 02 2013","16:25:45",14,4,"Switch",0,"Novel109",3,"Novel33",4,2751,"8","0",1,(Apr 02 2013 16:25:45),FALSE,TRUE,FALSE,8,0
"14","A00236363DL2ZN8A4FD78","Apr 02 2013","16:25:45",16,5,"Same",0,"Novel60",2,"Novel60",5,973,"8","0",1,(Apr 02 2013 16:25:45),TRUE,TRUE,FALSE,8,0
"15","A00236363DL2ZN8A4FD78","Apr 02 2013","16:25:45",18,6,"Switch",1,"Novel73",2,"Novel48",7,2898,"8","0",1,(Apr 02 2013 16:25:45),FALSE,TRUE,FALSE,8,0
"16","A00236363DL2ZN8A4FD78","Apr 02 2013","16:25:45",20,7,"Same",0,"Novel84",3,"Novel84",4,1120,"8","0",1,(Apr 02 2013 16:25:45),TRUE,TRUE,FALSE,8,0
"17","A09265903LS1OKAES4KAC","Apr 03 2013","04:30:47",13,0,"Switch",0,"Novel75",1,"Novel75",7,3465,"8","7",1,(Apr 03 2013 04:30:47),TRUE,TRUE,TRUE,8,7
"18","A09265903LS1OKAES4KAC","Apr 03 2013","04:30:47",14,1,"Same",1,"Novel103",0,"Novel103",0,1865,"8","7",1,(Apr 03 2013 04:30:47),TRUE,TRUE,FALSE,8,7
"19","A09265903LS1OKAES4KAC","Apr 03 2013","04:30:47",15,2,"Switch",1,"Novel140",4,"Novel58",7,3474,"8","7",1,(Apr 03 2013 04:30:47),FALSE,TRUE,FALSE,8,7
"20","A09265903LS1OKAES4KAC","Apr 03 2013","04:30:47",16,3,"Same",0,"Novel138",0,"Novel138",1,1456,"8","7",1,(Apr 03 2013 04:30:47),TRUE,TRUE,FALSE,8,7
"21","A09265903LS1OKAES4KAC","Apr 03 2013","04:30:47",17,4,"Switch",1,"Novel65",3,"Novel35",2,4801,"8","7",1,(Apr 03 2013 04:30:47),FALSE,TRUE,FALSE,8,7
"22","A09265903LS1OKAES4KAC","Apr 03 2013","04:30:47",18,5,"Same",0,"Novel89",2,"Novel9",3,1737,"8","7",1,(Apr 03 2013 04:30:47),FALSE,TRUE,FALSE,8,7
"23","A09265903LS1OKAES4KAC","Apr 03 2013","04:30:47",19,6,"Switch",0,"Novel131",1,"Novel131",2,4294,"8","7",1,(Apr 03 2013 04:30:47),TRUE,TRUE,FALSE,8,7
"24","A09265903LS1OKAES4KAC","Apr 03 2013","04:30:47",20,7,"Same",1,"Novel15",0,"Novel109",4,2024,"8","7",1,(Apr 03 2013 04:30:47),FALSE,TRUE,FALSE,8,7
"25","A0987913304TQJJ683IBA","Aug 11 2013","13:11:47",6,0,"Switch",0,"Novel6",0,"Novel6",1,3225,"2","0",1,(Aug 11 2013 13:11:47),TRUE,TRUE,TRUE,2,0
"26","A0987913304TQJJ683IBA","Aug 11 2013","13:11:47",8,1,"Same",0,"Novel111",0,"Novel111",1,1496,"2","0",1,(Aug 11 2013 13:11:47),TRUE,TRUE,FALSE,2,0
"27","A0987913304TQJJ683IBA","Aug 11 2013","13:11:47",10,2,"Switch",1,"Novel5",0,"Novel103",1,827,"2","0",1,(Aug 11 2013 13:11:47),FALSE,TRUE,FALSE,2,0
"28","A0987913304TQJJ683IBA","Aug 11 2013","13:11:47",12,3,"Same",1,"Novel46",0,"Novel46",0,1105,"2","0",1,(Aug 11 2013 13:11:47),TRUE,TRUE,FALSE,2,0
"29","A0987913304TQJJ683IBA","Aug 11 2013","13:11:47",14,4,"Switch",1,"Novel94",1,"Novel2",0,1267,"2","0",1,(Aug 11 2013 13:11:47),FALSE,TRUE,FALSE,2,0
"30","A0987913304TQJJ683IBA","Aug 11 2013","13:11:47",16,5,"Same",0,"Novel134",0,"Novel134",1,905,"2","0",1,(Aug 11 2013 13:11:47),TRUE,TRUE,FALSE,2,0
"31","A0987913304TQJJ683IBA","Aug 11 2013","13:11:47",18,6,"Switch",0,"Novel137",1,"Novel137",0,3468,"2","0",1,(Aug 11 2013 13:11:47),TRUE,TRUE,FALSE,2,0
"32","A0987913304TQJJ683IBA","Aug 11 2013","13:11:47",20,7,"Same",1,"Novel36",1,"Novel36",1,1673,"2","0",1,(Aug 11 2013 13:11:47),TRUE,TRUE,FALSE,2,0
"33","A1015EI76K26I3","Aug 11 2013","12:40:04",13,0,"Switch",1,"Novel64",3,"Novel4",4,23659,"8","7",1,(Aug 11 2013 12:40:04),FALSE,TRUE,TRUE,8,7
"34","A1015EI76K26I3","Aug 11 2013","12:40:04",14,1,"Same",0,"Novel121",4,"Novel121",6,5525,"8","7",1,(Aug 11 2013 12:40:04),TRUE,TRUE,FALSE,8,7
"35","A1015EI76K26I3","Aug 11 2013","12:40:04",15,2,"Switch",0,"Novel19",7,"Novel16",2,2442,"8","7",1,(Aug 11 2013 12:40:04),FALSE,TRUE,FALSE,8,7
"36","A1015EI76K26I3","Aug 11 2013","12:40:04",16,3,"Same",1,"Novel63",5,"Novel65",7,1857,"8","7",1,(Aug 11 2013 12:40:04),FALSE,TRUE,FALSE,8,7
"37","A1015EI76K26I3","Aug 11 2013","12:40:04",17,4,"Switch",0,"Novel29",7,"Novel123",7,2011,"8","7",1,(Aug 11 2013 12:40:04),FALSE,TRUE,FALSE,8,7
"38","A1015EI76K26I3","Aug 11 2013","12:40:04",18,5,"Same",0,"Novel122",1,"Novel98",0,1453,"8","7",1,(Aug 11 2013 12:40:04),FALSE,TRUE,FALSE,8,7
"39","A1015EI76K26I3","Aug 11 2013","12:40:04",19,6,"Switch",1,"Novel77",4,"Novel44",6,1520,"8","7",1,(Aug 11 2013 12:40:04),FALSE,TRUE,FALSE,8,7
"40","A1015EI76K26I3","Aug 11 2013","12:40:04",20,7,"Same",1,"Novel37",4,"Novel105",0,1290,"8","7",1,(Aug 11 2013 12:40:04),FALSE,TRUE,FALSE,8,7
"41","A101KWAN3V926J","Aug 11 2013","23:57:47",6,0,"Switch",1,"Novel52",0,"Novel52",0,2526,"2","0",1,(Aug 11 2013 23:57:47),TRUE,TRUE,TRUE,2,0
"42","A101KWAN3V926J","Aug 11 2013","23:57:47",8,1,"Same",0,"Novel135",1,"Novel135",0,2523,"2","0",1,(Aug 11 2013 23:57:47),TRUE,TRUE,FALSE,2,0
"43","A101KWAN3V926J","Aug 11 2013","23:57:47",10,2,"Switch",1,"Novel45",0,"Novel45",0,1918,"2","0",1,(Aug 11 2013 23:57:47),TRUE,TRUE,FALSE,2,0
"44","A101KWAN3V926J","Aug 11 2013","23:57:47",12,3,"Same",1,"Novel73",0,"Novel73",0,1221,"2","0",1,(Aug 11 2013 23:57:47),TRUE,TRUE,FALSE,2,0
"45","A101KWAN3V926J","Aug 11 2013","23:57:47",14,4,"Switch",0,"Novel41",1,"Novel41",0,1271,"2","0",1,(Aug 11 2013 23:57:47),TRUE,TRUE,FALSE,2,0
"46","A101KWAN3V926J","Aug 11 2013","23:57:47",16,5,"Same",1,"Novel128",1,"Novel128",1,931,"2","0",1,(Aug 11 2013 23:57:47),TRUE,TRUE,FALSE,2,0
"47","A101KWAN3V926J","Aug 11 2013","23:57:47",18,6,"Switch",0,"Novel23",0,"Novel23",1,1200,"2","0",1,(Aug 11 2013 23:57:47),TRUE,TRUE,FALSE,2,0
"48","A101KWAN3V926J","Aug 11 2013","23:57:47",20,7,"Same",0,"Novel55",0,"Novel55",1,903,"2","0",1,(Aug 11 2013 23:57:47),TRUE,TRUE,FALSE,2,0
"49","A102RC1Y60DUS4","Aug 11 2013","18:22:51",7,0,"Same",1,"Novel44",1,"Novel49",0,5408,"2","1",1,(Aug 11 2013 18:22:51),FALSE,TRUE,TRUE,2,1
"50","A102RC1Y60DUS4","Aug 11 2013","18:22:51",8,1,"Switch",1,"Novel83",0,"Novel31",1,2306,"2","1",1,(Aug 11 2013 18:22:51),FALSE,TRUE,FALSE,2,1
"51","A102RC1Y60DUS4","Aug 11 2013","18:22:51",11,2,"Same",1,"Novel20",1,"Novel20",1,2365,"2","1",1,(Aug 11 2013 18:22:51),TRUE,TRUE,FALSE,2,1
"52","A102RC1Y60DUS4","Aug 11 2013","18:22:51",12,3,"Switch",0,"Novel130",1,"Novel130",0,4549,"2","1",1,(Aug 11 2013 18:22:51),TRUE,TRUE,FALSE,2,1
"53","A102RC1Y60DUS4","Aug 11 2013","18:22:51",15,4,"Same",0,"Novel5",0,"Novel5",1,1682,"2","1",1,(Aug 11 2013 18:22:51),TRUE,TRUE,FALSE,2,1
"54","A102RC1Y60DUS4","Aug 11 2013","18:22:51",16,5,"Switch",0,"Novel129",1,"Novel129",0,1732,"2","1",1,(Aug 11 2013 18:22:51),TRUE,TRUE,FALSE,2,1
"55","A102RC1Y60DUS4","Aug 11 2013","18:22:51",19,6,"Same",0,"Novel64",1,"Novel82",1,1809,"2","1",1,(Aug 11 2013 18:22:51),FALSE,TRUE,FALSE,2,1
"56","A102RC1Y60DUS4","Aug 11 2013","18:22:51",20,7,"Switch",1,"Novel7",1,"Novel7",1,2124,"2","1",1,(Aug 11 2013 18:22:51),TRUE,TRUE,FALSE,2,1
"57","A102Z6M3FALPXT","Aug 11 2013","23:01:20",9,0,"Same",0,"Novel82",2,"Novel82",1,1804,"4","3",1,(Aug 11 2013 23:01:20),TRUE,TRUE,TRUE,4,3
"58","A102Z6M3FALPXT","Aug 11 2013","23:01:20",10,1,"Switch",0,"Novel56",1,"Novel77",3,1864,"4","3",1,(Aug 11 2013 23:01:20),FALSE,TRUE,FALSE,4,3
"59","A102Z6M3FALPXT","Aug 11 2013","23:01:20",11,2,"Same",0,"Novel53",0,"Novel53",2,2412,"4","3",1,(Aug 11 2013 23:01:20),TRUE,TRUE,FALSE,4,3
"60","A102Z6M3FALPXT","Aug 11 2013","23:01:20",12,3,"Switch",1,"Novel133",2,"Novel99",1,1488,"4","3",1,(Aug 11 2013 23:01:20),FALSE,TRUE,FALSE,4,3
"61","A102Z6M3FALPXT","Aug 11 2013","23:01:20",17,4,"Same",1,"Novel83",2,"Novel68",1,1034,"4","3",1,(Aug 11 2013 23:01:20),FALSE,TRUE,FALSE,4,3
"62","A102Z6M3FALPXT","Aug 11 2013","23:01:20",18,5,"Switch",1,"Novel104",1,"Novel123",3,1052,"4","3",1,(Aug 11 2013 23:01:20),FALSE,TRUE,FALSE,4,3
"63","A102Z6M3FALPXT","Aug 11 2013","23:01:20",19,6,"Same",1,"Novel61",1,"Novel61",1,1422,"4","3",1,(Aug 11 2013 23:01:20),TRUE,TRUE,FALSE,4,3
"64","A102Z6M3FALPXT","Aug 11 2013","23:01:20",20,7,"Switch",0,"Novel7",2,"Novel59",2,1770,"4","3",1,(Aug 11 2013 23:01:20),FALSE,TRUE,FALSE,4,3
"65","A104336318AW2NFOC4SE3","Aug 11 2013","16:04:40",7,0,"Same",0,"Novel121",0,"Novel121",1,1885,"2","1",1,(Aug 11 2013 16:04:40),TRUE,TRUE,TRUE,2,1
"66","A104336318AW2NFOC4SE3","Aug 11 2013","16:04:40",8,1,"Switch",1,"Novel130",1,"Novel130",1,3804,"2","1",1,(Aug 11 2013 16:04:40),TRUE,TRUE,FALSE,2,1
"67","A104336318AW2NFOC4SE3","Aug 11 2013","16:04:40",11,2,"Same",0,"Novel17",0,"Novel17",1,1552,"2","1",1,(Aug 11 2013 16:04:40),TRUE,TRUE,FALSE,2,1
"68","A104336318AW2NFOC4SE3","Aug 11 2013","16:04:40",12,3,"Switch",1,"Novel76",0,"Novel76",0,1159,"2","1",1,(Aug 11 2013 16:04:40),TRUE,TRUE,FALSE,2,1
"69","A104336318AW2NFOC4SE3","Aug 11 2013","16:04:40",15,4,"Same",1,"Novel40",0,"Novel40",0,3401,"2","1",1,(Aug 11 2013 16:04:40),TRUE,TRUE,FALSE,2,1
"70","A104336318AW2NFOC4SE3","Aug 11 2013","16:04:40",16,5,"Switch",0,"Novel25",0,"Novel25",1,1084,"2","1",1,(Aug 11 2013 16:04:40),TRUE,TRUE,FALSE,2,1
"71","A104336318AW2NFOC4SE3","Aug 11 2013","16:04:40",19,6,"Same",1,"Novel67",1,"Novel67",1,3453,"2","1",1,(Aug 11 2013 16:04:40),TRUE,TRUE,FALSE,2,1
"72","A104336318AW2NFOC4SE3","Aug 11 2013","16:04:40",20,7,"Switch",0,"Novel69",0,"Novel69",1,1174,"2","1",1,(Aug 11 2013 16:04:40),TRUE,TRUE,FALSE,2,1
"73","A104N820YHGZDI","Aug 11 2013","18:04:41",7,0,"Same",0,"Novel73",3,"Novel73",0,2559,"4","1",1,(Aug 11 2013 18:04:41),TRUE,TRUE,TRUE,4,1
"74","A104N820YHGZDI","Aug 11 2013","18:04:41",8,1,"Switch",1,"Novel121",0,"Novel101",2,2713,"4","1",1,(Aug 11 2013 18:04:41),FALSE,TRUE,FALSE,4,1
"75","A104N820YHGZDI","Aug 11 2013","18:04:41",11,2,"Same",0,"Novel131",2,"Novel131",3,2913,"4","1",1,(Aug 11 2013 18:04:41),TRUE,TRUE,FALSE,4,1
"76","A104N820YHGZDI","Aug 11 2013","18:04:41",12,3,"Switch",0,"Novel67",0,"Novel139",3,2787,"4","1",1,(Aug 11 2013 18:04:41),FALSE,TRUE,FALSE,4,1
"77","A104N820YHGZDI","Aug 11 2013","18:04:41",15,4,"Same",1,"Novel106",3,"Novel106",3,2376,"4","1",1,(Aug 11 2013 18:04:41),TRUE,TRUE,FALSE,4,1
"78","A104N820YHGZDI","Aug 11 2013","18:04:41",16,5,"Switch",1,"Novel20",0,"Novel64",1,2164,"4","1",1,(Aug 11 2013 18:04:41),FALSE,TRUE,FALSE,4,1
"79","A104N820YHGZDI","Aug 11 2013","18:04:41",19,6,"Same",1,"Novel37",2,"Novel138",3,3003,"4","1",1,(Aug 11 2013 18:04:41),FALSE,TRUE,FALSE,4,1
"80","A104N820YHGZDI","Aug 11 2013","18:04:41",20,7,"Switch",0,"Novel43",1,"Novel21",3,2942,"4","1",1,(Aug 11 2013 18:04:41),FALSE,TRUE,FALSE,4,1
"81","A105ETHFWRUGM7","Aug 11 2013","21:38:04",7,0,"Same",0,"Novel53",2,"Novel53",0,1257,"3","1",1,(Aug 11 2013 21:38:04),TRUE,TRUE,TRUE,3,1
"82","A105ETHFWRUGM7","Aug 11 2013","21:38:04",8,1,"Switch",0,"Novel35",1,"Novel64",1,4723,"3","1",1,(Aug 11 2013 21:38:04),FALSE,TRUE,FALSE,3,1
"83","A105ETHFWRUGM7","Aug 11 2013","21:38:04",11,2,"Same",1,"Novel13",0,"Novel13",0,818,"3","1",1,(Aug 11 2013 21:38:04),TRUE,TRUE,FALSE,3,1
"84","A105ETHFWRUGM7","Aug 11 2013","21:38:04",12,3,"Switch",1,"Novel116",0,"Novel116",0,2482,"3","1",1,(Aug 11 2013 21:38:04),TRUE,TRUE,FALSE,3,1
"85","A105ETHFWRUGM7","Aug 11 2013","21:38:04",15,4,"Same",1,"Novel32",1,"Novel32",1,1193,"3","1",1,(Aug 11 2013 21:38:04),TRUE,TRUE,FALSE,3,1
"86","A105ETHFWRUGM7","Aug 11 2013","21:38:04",16,5,"Switch",1,"Novel87",0,"Novel107",2,3951,"3","1",1,(Aug 11 2013 21:38:04),FALSE,TRUE,FALSE,3,1
"87","A105ETHFWRUGM7","Aug 11 2013","21:38:04",19,6,"Same",0,"Novel76",2,"Novel1",2,1664,"3","1",1,(Aug 11 2013 21:38:04),FALSE,TRUE,FALSE,3,1
"88","A105ETHFWRUGM7","Aug 11 2013","21:38:04",20,7,"Switch",0,"Novel111",2,"Novel111",0,1395,"3","1",1,(Aug 11 2013 21:38:04),TRUE,TRUE,FALSE,3,1
"89","A10B7OQ3GMIFD3","Apr 07 2013","12:42:52",9,0,"Switch",0,"Novel7",0,"Novel28",1,3518,"3","3",1,(Apr 07 2013 12:42:52),FALSE,TRUE,TRUE,3,3
"90","A10B7OQ3GMIFD3","Apr 07 2013","12:42:52",10,1,"Same",0,"Novel3",2,"Novel3",1,1964,"3","3",1,(Apr 07 2013 12:42:52),TRUE,TRUE,FALSE,3,3
"91","A10B7OQ3GMIFD3","Apr 07 2013","12:42:52",11,2,"Switch",1,"Novel118",2,"Novel23",1,3996,"3","3",1,(Apr 07 2013 12:42:52),FALSE,TRUE,FALSE,3,3
"92","A10B7OQ3GMIFD3","Apr 07 2013","12:42:52",12,3,"Same",1,"Novel60",1,"Novel60",1,1268,"3","3",1,(Apr 07 2013 12:42:52),TRUE,TRUE,FALSE,3,3
"93","A10B7OQ3GMIFD3","Apr 07 2013","12:42:52",17,4,"Switch",0,"Novel86",2,"Novel38",2,4131,"3","3",1,(Apr 07 2013 12:42:52),FALSE,TRUE,FALSE,3,3
"94","A10B7OQ3GMIFD3","Apr 07 2013","12:42:52",18,5,"Same",1,"Novel32",1,"Novel32",1,3016,"3","3",1,(Apr 07 2013 12:42:52),TRUE,TRUE,FALSE,3,3
"95","A10B7OQ3GMIFD3","Apr 07 2013","12:42:52",19,6,"Switch",1,"Novel30",1,"Novel30",1,3349,"3","3",1,(Apr 07 2013 12:42:52),TRUE,TRUE,FALSE,3,3
"96","A10B7OQ3GMIFD3","Apr 07 2013","12:42:52",20,7,"Same",0,"Novel10",1,"Novel10",0,1758,"3","3",1,(Apr 07 2013 12:42:52),TRUE,TRUE,FALSE,3,3
"97","A10CKZJTAF6OCS","Aug 11 2013","20:48:49",7,0,"Same",0,"Novel27",0,"Novel27",1,1797,"2","1",1,(Aug 11 2013 20:48:49),TRUE,TRUE,TRUE,2,1
"98","A10CKZJTAF6OCS","Aug 11 2013","20:48:49",8,1,"Switch",0,"Novel72",0,"Novel72",1,2363,"2","1",1,(Aug 11 2013 20:48:49),TRUE,TRUE,FALSE,2,1
"99","A10CKZJTAF6OCS","Aug 11 2013","20:48:49",11,2,"Same",1,"Novel96",0,"Novel96",0,1525,"2","1",1,(Aug 11 2013 20:48:49),TRUE,TRUE,FALSE,2,1
"100","A10CKZJTAF6OCS","Aug 11 2013","20:48:49",12,3,"Switch",1,"Novel28",1,"Novel15",0,5203,"2","1",1,(Aug 11 2013 20:48:49),FALSE,TRUE,FALSE,2,1
"101","A10CKZJTAF6OCS","Aug 11 2013","20:48:49",15,4,"Same",1,"Novel136",0,"Novel136",0,906,"2","1",1,(Aug 11 2013 20:48:49),TRUE,TRUE,FALSE,2,1
"102","A10CKZJTAF6OCS","Aug 11 2013","20:48:49",16,5,"Switch",0,"Novel88",0,"Novel88",1,1026,"2","1",1,(Aug 11 2013 20:48:49),TRUE,TRUE,FALSE,2,1
"103","A10CKZJTAF6OCS","Aug 11 2013","20:48:49",19,6,"Same",0,"Novel39",1,"Novel39",0,3426,"2","1",1,(Aug 11 2013 20:48:49),TRUE,TRUE,FALSE,2,1
"104","A10CKZJTAF6OCS","Aug 11 2013","20:48:49",20,7,"Switch",1,"Novel84",0,"Novel84",0,1030,"2","1",1,(Aug 11 2013 20:48:49),TRUE,TRUE,FALSE,2,1
"105","A10MEXRNAC2LV2","Apr 06 2013","16:29:49",13,0,"Same",1,"Novel119",1,"Novel119",1,1544,"3","7",1,(Apr 06 2013 16:29:49),TRUE,TRUE,TRUE,3,7
"106","A10MEXRNAC2LV2","Apr 06 2013","16:29:49",14,1,"Switch",1,"Novel87",1,"Novel87",1,4037,"3","7",1,(Apr 06 2013 16:29:49),TRUE,TRUE,FALSE,3,7
"107","A10MEXRNAC2LV2","Apr 06 2013","16:29:49",15,2,"Same",1,"Novel78",0,"Novel78",0,2188,"3","7",1,(Apr 06 2013 16:29:49),TRUE,TRUE,FALSE,3,7
"108","A10MEXRNAC2LV2","Apr 06 2013","16:29:49",16,3,"Switch",0,"Novel100",2,"Novel100",0,2531,"3","7",1,(Apr 06 2013 16:29:49),TRUE,TRUE,FALSE,3,7
"109","A10MEXRNAC2LV2","Apr 06 2013","16:29:49",17,4,"Same",0,"Novel24",0,"Novel24",1,2682,"3","7",1,(Apr 06 2013 16:29:49),TRUE,TRUE,FALSE,3,7
"110","A10MEXRNAC2LV2","Apr 06 2013","16:29:49",18,5,"Switch",0,"Novel50",2,"Novel50",0,6371,"3","7",1,(Apr 06 2013 16:29:49),TRUE,TRUE,FALSE,3,7
"111","A10MEXRNAC2LV2","Apr 06 2013","16:29:49",19,6,"Same",0,"Novel19",0,"Novel19",1,2341,"3","7",1,(Apr 06 2013 16:29:49),TRUE,TRUE,FALSE,3,7
"112","A10MEXRNAC2LV2","Apr 06 2013","16:29:49",20,7,"Switch",1,"Novel70",1,"Novel140",0,2211,"3","7",1,(Apr 06 2013 16:29:49),FALSE,TRUE,FALSE,3,7
"113","A10MW1BTKLF1FD","Aug 11 2013","22:47:23",6,0,"Same",1,"Novel68",1,"Novel68",1,773,"3","0",1,(Aug 11 2013 22:47:23),TRUE,TRUE,TRUE,3,0
"114","A10MW1BTKLF1FD","Aug 11 2013","22:47:23",8,1,"Switch",0,"Novel128",2,"Novel20",1,781,"3","0",1,(Aug 11 2013 22:47:23),FALSE,TRUE,FALSE,3,0
"115","A10MW1BTKLF1FD","Aug 11 2013","22:47:23",10,2,"Same",1,"Novel79",0,"Novel79",0,529,"3","0",1,(Aug 11 2013 22:47:23),TRUE,TRUE,FALSE,3,0
"116","A10MW1BTKLF1FD","Aug 11 2013","22:47:23",12,3,"Switch",1,"Novel72",0,"Novel72",0,697,"3","0",1,(Aug 11 2013 22:47:23),TRUE,TRUE,FALSE,3,0
"117","A10MW1BTKLF1FD","Aug 11 2013","22:47:23",14,4,"Same",0,"Novel22",2,"Novel22",0,404,"3","0",1,(Aug 11 2013 22:47:23),TRUE,TRUE,FALSE,3,0
"118","A10MW1BTKLF1FD","Aug 11 2013","22:47:23",16,5,"Switch",1,"Novel103",0,"Novel103",0,483,"3","0",1,(Aug 11 2013 22:47:23),TRUE,TRUE,FALSE,3,0
"119","A10MW1BTKLF1FD","Aug 11 2013","22:47:23",18,6,"Same",0,"Novel70",0,"Novel70",2,588,"3","0",1,(Aug 11 2013 22:47:23),TRUE,TRUE,FALSE,3,0
"120","A10MW1BTKLF1FD","Aug 11 2013","22:47:23",20,7,"Switch",0,"Novel129",0,"Novel129",2,533,"3","0",1,(Aug 11 2013 22:47:23),TRUE,TRUE,FALSE,3,0
"121","A10NAKQZQ4I9NH","Apr 03 2013","20:27:34",7,0,"Same",0,"Novel71",2,"Novel71",1,1442,"4","1",1,(Apr 03 2013 20:27:34),TRUE,TRUE,TRUE,4,1
"122","A10NAKQZQ4I9NH","Apr 03 2013","20:27:34",8,1,"Switch",1,"Novel47",1,"Novel47",1,3826,"4","1",1,(Apr 03 2013 20:27:34),TRUE,TRUE,FALSE,4,1
"123","A10NAKQZQ4I9NH","Apr 03 2013","20:27:34",11,2,"Same",0,"Novel122",1,"Novel122",2,1013,"4","1",1,(Apr 03 2013 20:27:34),TRUE,TRUE,FALSE,4,1
"124","A10NAKQZQ4I9NH","Apr 03 2013","20:27:34",12,3,"Switch",1,"Novel82",0,"Novel82",0,4012,"4","1",1,(Apr 03 2013 20:27:34),TRUE,TRUE,FALSE,4,1
"125","A10NAKQZQ4I9NH","Apr 03 2013","20:27:34",15,4,"Same",1,"Novel24",3,"Novel24",3,1360,"4","1",1,(Apr 03 2013 20:27:34),TRUE,TRUE,FALSE,4,1
"126","A10NAKQZQ4I9NH","Apr 03 2013","20:27:34",16,5,"Switch",0,"Novel131",3,"Novel68",3,3808,"4","1",1,(Apr 03 2013 20:27:34),FALSE,TRUE,FALSE,4,1
"127","A10NAKQZQ4I9NH","Apr 03 2013","20:27:34",19,6,"Same",1,"Novel48",1,"Novel48",1,2790,"4","1",1,(Apr 03 2013 20:27:34),TRUE,TRUE,FALSE,4,1
"128","A10NAKQZQ4I9NH","Apr 03 2013","20:27:34",20,7,"Switch",0,"Novel111",0,"Novel21",1,3655,"4","1",1,(Apr 03 2013 20:27:34),FALSE,TRUE,FALSE,4,1
"129","A10NEFAVKVWB8H","Aug 11 2013","22:05:02",6,0,"Same",0,"Novel42",6,"Novel42",0,4738,"8","0",1,(Aug 11 2013 22:05:02),TRUE,TRUE,TRUE,8,0
"130","A10NEFAVKVWB8H","Aug 11 2013","22:05:02",8,1,"Switch",1,"Novel63",0,"Novel125",5,7820,"8","0",1,(Aug 11 2013 22:05:02),FALSE,TRUE,FALSE,8,0
"131","A10NEFAVKVWB8H","Aug 11 2013","22:05:02",10,2,"Same",1,"Novel97",3,"Novel97",3,1514,"8","0",1,(Aug 11 2013 22:05:02),TRUE,TRUE,FALSE,8,0
"132","A10NEFAVKVWB8H","Aug 11 2013","22:05:02",12,3,"Switch",0,"Novel77",3,"Novel119",2,3569,"8","0",1,(Aug 11 2013 22:05:02),FALSE,TRUE,FALSE,8,0
"133","A10NEFAVKVWB8H","Aug 11 2013","22:05:02",14,4,"Same",1,"Novel45",7,"Novel45",7,1244,"8","0",1,(Aug 11 2013 22:05:02),TRUE,TRUE,FALSE,8,0
"134","A10NEFAVKVWB8H","Aug 11 2013","22:05:02",16,5,"Switch",1,"Novel11",3,"Novel31",4,4289,"8","0",1,(Aug 11 2013 22:05:02),FALSE,TRUE,FALSE,8,0
"135","A10NEFAVKVWB8H","Aug 11 2013","22:05:02",18,6,"Same",0,"Novel69",0,"Novel15",1,3792,"8","0",1,(Aug 11 2013 22:05:02),FALSE,TRUE,FALSE,8,0
"136","A10NEFAVKVWB8H","Aug 11 2013","22:05:02",20,7,"Switch",0,"Novel66",2,"Novel12",4,2857,"8","0",1,(Aug 11 2013 22:05:02),FALSE,TRUE,FALSE,8,0
"137","A10XYFXQYJKBXF","Aug 11 2013","12:25:03",9,0,"Switch",1,"Novel78",1,"Novel78",1,2365,"2","3",1,(Aug 11 2013 12:25:03),TRUE,TRUE,TRUE,2,3
"138","A10XYFXQYJKBXF","Aug 11 2013","12:25:03",10,1,"Same",1,"Novel120",0,"Novel120",0,2148,"2","3",1,(Aug 11 2013 12:25:03),TRUE,TRUE,FALSE,2,3
"139","A10XYFXQYJKBXF","Aug 11 2013","12:25:03",11,2,"Switch",0,"Novel37",1,"Novel37",0,1789,"2","3",1,(Aug 11 2013 12:25:03),TRUE,TRUE,FALSE,2,3
"140","A10XYFXQYJKBXF","Aug 11 2013","12:25:03",12,3,"Same",0,"Novel49",0,"Novel49",1,2764,"2","3",1,(Aug 11 2013 12:25:03),TRUE,TRUE,FALSE,2,3
"141","A10XYFXQYJKBXF","Aug 11 2013","12:25:03",17,4,"Switch",1,"Novel106",0,"Novel14",1,1373,"2","3",1,(Aug 11 2013 12:25:03),FALSE,TRUE,FALSE,2,3
"142","A10XYFXQYJKBXF","Aug 11 2013","12:25:03",18,5,"Same",0,"Novel131",0,"Novel105",0,1348,"2","3",1,(Aug 11 2013 12:25:03),FALSE,TRUE,FALSE,2,3
"143","A10XYFXQYJKBXF","Aug 11 2013","12:25:03",19,6,"Switch",0,"Novel101",1,"Novel101",0,1832,"2","3",1,(Aug 11 2013 12:25:03),TRUE,TRUE,FALSE,2,3
"144","A10XYFXQYJKBXF","Aug 11 2013","12:25:03",20,7,"Same",1,"Novel74",0,"Novel63",1,1385,"2","3",1,(Aug 11 2013 12:25:03),FALSE,TRUE,FALSE,2,3
"145","A113WRFSPYMYVR","Aug 12 2013","06:47:19",13,0,"Same",0,"Novel11",0,"Novel11",1,1048,"3","7",1,(Aug 12 2013 06:47:19),TRUE,TRUE,TRUE,3,7
"146","A113WRFSPYMYVR","Aug 12 2013","06:47:19",14,1,"Switch",1,"Novel69",1,"Novel69",1,2216,"3","7",1,(Aug 12 2013 06:47:19),TRUE,TRUE,FALSE,3,7
"147","A113WRFSPYMYVR","Aug 12 2013","06:47:19",15,2,"Same",0,"Novel128",0,"Novel128",1,2076,"3","7",1,(Aug 12 2013 06:47:19),TRUE,TRUE,FALSE,3,7
"148","A113WRFSPYMYVR","Aug 12 2013","06:47:19",16,3,"Switch",1,"Novel1",1,"Novel1",1,2051,"3","7",1,(Aug 12 2013 06:47:19),TRUE,TRUE,FALSE,3,7
"149","A113WRFSPYMYVR","Aug 12 2013","06:47:19",17,4,"Same",1,"Novel133",0,"Novel133",0,2649,"3","7",1,(Aug 12 2013 06:47:19),TRUE,TRUE,FALSE,3,7
"150","A113WRFSPYMYVR","Aug 12 2013","06:47:19",18,5,"Switch",0,"Novel104",2,"Novel104",1,1022,"3","7",1,(Aug 12 2013 06:47:19),TRUE,TRUE,FALSE,3,7
"151","A113WRFSPYMYVR","Aug 12 2013","06:47:19",19,6,"Same",1,"Novel93",1,"Novel93",1,1896,"3","7",1,(Aug 12 2013 06:47:19),TRUE,TRUE,FALSE,3,7
"152","A113WRFSPYMYVR","Aug 12 2013","06:47:19",20,7,"Switch",0,"Novel90",2,"Novel102",0,1465,"3","7",1,(Aug 12 2013 06:47:19),FALSE,TRUE,FALSE,3,7
"153","A11ANA7JWRJUZG","Apr 07 2013","10:55:15",13,0,"Switch",0,"Novel113",2,"Novel113",1,3610,"3","7",1,(Apr 07 2013 10:55:15),TRUE,TRUE,TRUE,3,7
"154","A11ANA7JWRJUZG","Apr 07 2013","10:55:15",14,1,"Same",1,"Novel94",1,"Novel94",1,1612,"3","7",1,(Apr 07 2013 10:55:15),TRUE,TRUE,FALSE,3,7
"155","A11ANA7JWRJUZG","Apr 07 2013","10:55:15",15,2,"Switch",1,"Novel112",1,"Novel112",1,1360,"3","7",1,(Apr 07 2013 10:55:15),TRUE,TRUE,FALSE,3,7
"156","A11ANA7JWRJUZG","Apr 07 2013","10:55:15",16,3,"Same",0,"Novel69",2,"Novel69",0,1063,"3","7",1,(Apr 07 2013 10:55:15),TRUE,TRUE,FALSE,3,7
"157","A11ANA7JWRJUZG","Apr 07 2013","10:55:15",17,4,"Switch",0,"Novel27",0,"Novel27",1,1267,"3","7",1,(Apr 07 2013 10:55:15),TRUE,TRUE,FALSE,3,7
"158","A11ANA7JWRJUZG","Apr 07 2013","10:55:15",18,5,"Same",1,"Novel75",1,"Novel75",1,1044,"3","7",1,(Apr 07 2013 10:55:15),TRUE,TRUE,FALSE,3,7
"159","A11ANA7JWRJUZG","Apr 07 2013","10:55:15",19,6,"Switch",1,"Novel50",1,"Novel50",1,1354,"3","7",1,(Apr 07 2013 10:55:15),TRUE,TRUE,FALSE,3,7
"160","A11ANA7JWRJUZG","Apr 07 2013","10:55:15",20,7,"Same",0,"Novel140",0,"Novel140",2,994,"3","7",1,(Apr 07 2013 10:55:15),TRUE,TRUE,FALSE,3,7
"161","A11RULJVT562QN","Aug 11 2013","23:16:09",7,0,"Switch",1,"Novel98",2,"Novel98",2,1870,"3","1",1,(Aug 11 2013 23:16:09),TRUE,TRUE,TRUE,3,1
"162","A11RULJVT562QN","Aug 11 2013","23:16:09",8,1,"Same",0,"Novel133",2,"Novel126",1,2573,"3","1",1,(Aug 11 2013 23:16:09),FALSE,TRUE,FALSE,3,1
"163","A11RULJVT562QN","Aug 11 2013","23:16:09",11,2,"Switch",1,"Novel136",0,"Novel136",0,1943,"3","1",1,(Aug 11 2013 23:16:09),TRUE,TRUE,FALSE,3,1
"164","A11RULJVT562QN","Aug 11 2013","23:16:09",12,3,"Same",1,"Novel88",0,"Novel88",0,2044,"3","1",1,(Aug 11 2013 23:16:09),TRUE,TRUE,FALSE,3,1
"165","A11RULJVT562QN","Aug 11 2013","23:16:09",15,4,"Switch",0,"Novel123",2,"Novel122",1,2269,"3","1",1,(Aug 11 2013 23:16:09),FALSE,TRUE,FALSE,3,1
"166","A11RULJVT562QN","Aug 11 2013","23:16:09",16,5,"Same",0,"Novel87",2,"Novel87",1,1640,"3","1",1,(Aug 11 2013 23:16:09),TRUE,TRUE,FALSE,3,1
"167","A11RULJVT562QN","Aug 11 2013","23:16:09",19,6,"Switch",0,"Novel76",2,"Novel76",0,1507,"3","1",1,(Aug 11 2013 23:16:09),TRUE,TRUE,FALSE,3,1
"168","A11RULJVT562QN","Aug 11 2013","23:16:09",20,7,"Same",1,"Novel37",0,"Novel37",0,2199,"3","1",1,(Aug 11 2013 23:16:09),TRUE,TRUE,FALSE,3,1
"169","A11YOOX5ZN0Z9C","Aug 11 2013","13:48:35",6,0,"Switch",1,"Novel27",1,"Novel27",1,2240,"3","0",1,(Aug 11 2013 13:48:35),TRUE,TRUE,TRUE,3,0
"170","A11YOOX5ZN0Z9C","Aug 11 2013","13:48:35",8,1,"Same",0,"Novel139",1,"Novel139",0,1260,"3","0",1,(Aug 11 2013 13:48:35),TRUE,TRUE,FALSE,3,0
"171","A11YOOX5ZN0Z9C","Aug 11 2013","13:48:35",10,2,"Switch",0,"Novel21",0,"Novel21",2,1355,"3","0",1,(Aug 11 2013 13:48:35),TRUE,TRUE,FALSE,3,0
"172","A11YOOX5ZN0Z9C","Aug 11 2013","13:48:35",12,3,"Same",1,"Novel98",2,"Novel98",2,661,"3","0",1,(Aug 11 2013 13:48:35),TRUE,TRUE,FALSE,3,0
"173","A11YOOX5ZN0Z9C","Aug 11 2013","13:48:35",14,4,"Switch",0,"Novel133",0,"Novel133",1,1115,"3","0",1,(Aug 11 2013 13:48:35),TRUE,TRUE,FALSE,3,0
"174","A11YOOX5ZN0Z9C","Aug 11 2013","13:48:35",16,5,"Same",1,"Novel138",1,"Novel138",1,717,"3","0",1,(Aug 11 2013 13:48:35),TRUE,TRUE,FALSE,3,0
"175","A11YOOX5ZN0Z9C","Aug 11 2013","13:48:35",18,6,"Switch",1,"Novel85",1,"Novel85",1,1606,"3","0",1,(Aug 11 2013 13:48:35),TRUE,TRUE,FALSE,3,0
"176","A11YOOX5ZN0Z9C","Aug 11 2013","13:48:35",20,7,"Same",0,"Novel89",1,"Novel89",2,1020,"3","0",1,(Aug 11 2013 13:48:35),TRUE,TRUE,FALSE,3,0
"177","A11YS0T8MV3Q7C","Aug 12 2013","04:53:22",7,0,"Same",0,"Novel59",7,"Novel59",5,1750,"8","1",1,(Aug 12 2013 04:53:22),TRUE,TRUE,TRUE,8,1
"178","A11YS0T8MV3Q7C","Aug 12 2013","04:53:22",8,1,"Switch",1,"Novel51",7,"Novel82",5,4783,"8","1",1,(Aug 12 2013 04:53:22),FALSE,TRUE,FALSE,8,1
"179","A11YS0T8MV3Q7C","Aug 12 2013","04:53:22",11,2,"Same",1,"Novel81",0,"Novel81",0,1971,"8","1",1,(Aug 12 2013 04:53:22),TRUE,TRUE,FALSE,8,1
"180","A11YS0T8MV3Q7C","Aug 12 2013","04:53:22",12,3,"Switch",0,"Novel5",4,"Novel10",7,5988,"8","1",1,(Aug 12 2013 04:53:22),FALSE,TRUE,FALSE,8,1
"181","A11YS0T8MV3Q7C","Aug 12 2013","04:53:22",15,4,"Same",1,"Novel52",4,"Novel52",4,1645,"8","1",1,(Aug 12 2013 04:53:22),TRUE,TRUE,FALSE,8,1
"182","A11YS0T8MV3Q7C","Aug 12 2013","04:53:22",16,5,"Switch",1,"Novel21",2,"Novel21",2,2594,"8","1",1,(Aug 12 2013 04:53:22),TRUE,TRUE,FALSE,8,1
"183","A11YS0T8MV3Q7C","Aug 12 2013","04:53:22",19,6,"Same",0,"Novel33",0,"Novel33",1,2042,"8","1",1,(Aug 12 2013 04:53:22),TRUE,TRUE,FALSE,8,1
"184","A11YS0T8MV3Q7C","Aug 12 2013","04:53:22",20,7,"Switch",0,"Novel58",3,"Novel58",7,5345,"8","1",1,(Aug 12 2013 04:53:22),TRUE,TRUE,FALSE,8,1
"185","A11ZZ2OY04S64C","Apr 03 2013","03:51:50",9,0,"Same",0,"Novel45",5,"Novel45",7,2899,"8","3",1,(Apr 03 2013 03:51:50),TRUE,TRUE,TRUE,8,3
"186","A11ZZ2OY04S64C","Apr 03 2013","03:51:50",10,1,"Switch",0,"Novel136",4,"Novel47",0,6421,"8","3",1,(Apr 03 2013 03:51:50),FALSE,TRUE,FALSE,8,3
"187","A11ZZ2OY04S64C","Apr 03 2013","03:51:50",11,2,"Same",1,"Novel138",4,"Novel138",4,2204,"8","3",1,(Apr 03 2013 03:51:50),TRUE,TRUE,FALSE,8,3
"188","A11ZZ2OY04S64C","Apr 03 2013","03:51:50",12,3,"Switch",0,"Novel8",6,"Novel8",1,6153,"8","3",1,(Apr 03 2013 03:51:50),TRUE,TRUE,FALSE,8,3
"189","A11ZZ2OY04S64C","Apr 03 2013","03:51:50",17,4,"Same",0,"Novel22",7,"Novel22",1,1956,"8","3",1,(Apr 03 2013 03:51:50),TRUE,TRUE,FALSE,8,3
"190","A11ZZ2OY04S64C","Apr 03 2013","03:51:50",18,5,"Switch",1,"Novel85",0,"Novel85",0,4657,"8","3",1,(Apr 03 2013 03:51:50),TRUE,TRUE,FALSE,8,3
"191","A11ZZ2OY04S64C","Apr 03 2013","03:51:50",19,6,"Same",1,"Novel30",7,"Novel30",7,2750,"8","3",1,(Apr 03 2013 03:51:50),TRUE,TRUE,FALSE,8,3
"192","A11ZZ2OY04S64C","Apr 03 2013","03:51:50",20,7,"Switch",1,"Novel37",7,"Novel72",2,3736,"8","3",1,(Apr 03 2013 03:51:50),FALSE,TRUE,FALSE,8,3
"193","A124IF79B16MHB","Aug 11 2013","21:04:44",9,0,"Same",0,"Novel112",4,"Novel92",3,5579,"8","3",1,(Aug 11 2013 21:04:44),FALSE,TRUE,TRUE,8,3
"194","A124IF79B16MHB","Aug 11 2013","21:04:44",10,1,"Switch",0,"Novel46",4,"Novel86",4,7287,"8","3",1,(Aug 11 2013 21:04:44),FALSE,TRUE,FALSE,8,3
"195","A124IF79B16MHB","Aug 11 2013","21:04:44",11,2,"Same",0,"Novel104",3,"Novel104",1,2385,"8","3",1,(Aug 11 2013 21:04:44),TRUE,TRUE,FALSE,8,3
"196","A124IF79B16MHB","Aug 11 2013","21:04:44",12,3,"Switch",0,"Novel49",5,"Novel6",7,8153,"8","3",1,(Aug 11 2013 21:04:44),FALSE,TRUE,FALSE,8,3
"197","A124IF79B16MHB","Aug 11 2013","21:04:44",17,4,"Same",1,"Novel134",2,"Novel63",1,10912,"8","3",1,(Aug 11 2013 21:04:44),FALSE,TRUE,FALSE,8,3
"198","A124IF79B16MHB","Aug 11 2013","21:04:44",18,5,"Switch",1,"Novel55",7,"Novel115",3,3422,"8","3",1,(Aug 11 2013 21:04:44),FALSE,TRUE,FALSE,8,3
"199","A124IF79B16MHB","Aug 11 2013","21:04:44",19,6,"Same",1,"Novel73",5,"Novel71",3,3737,"8","3",1,(Aug 11 2013 21:04:44),FALSE,TRUE,FALSE,8,3
"200","A124IF79B16MHB","Aug 11 2013","21:04:44",20,7,"Switch",1,"Novel103",4,"Novel103",4,5079,"8","3",1,(Aug 11 2013 21:04:44),TRUE,TRUE,FALSE,8,3
"201","A124T5AVHGY5C2","Aug 11 2013","20:02:53",6,0,"Same",0,"Novel126",1,"Novel126",0,761,"4","0",1,(Aug 11 2013 20:02:53),TRUE,TRUE,TRUE,4,0
"202","A124T5AVHGY5C2","Aug 11 2013","20:02:53",8,1,"Switch",1,"Novel34",3,"Novel130",1,1918,"4","0",1,(Aug 11 2013 20:02:53),FALSE,TRUE,FALSE,4,0
"203","A124T5AVHGY5C2","Aug 11 2013","20:02:53",10,2,"Same",1,"Novel58",2,"Novel58",2,701,"4","0",1,(Aug 11 2013 20:02:53),TRUE,TRUE,FALSE,4,0
"204","A124T5AVHGY5C2","Aug 11 2013","20:02:53",12,3,"Switch",0,"Novel8",3,"Novel96",2,819,"4","0",1,(Aug 11 2013 20:02:53),FALSE,TRUE,FALSE,4,0
"205","A124T5AVHGY5C2","Aug 11 2013","20:02:53",14,4,"Same",1,"Novel12",1,"Novel12",1,634,"4","0",1,(Aug 11 2013 20:02:53),TRUE,TRUE,FALSE,4,0
"206","A124T5AVHGY5C2","Aug 11 2013","20:02:53",16,5,"Switch",1,"Novel36",3,"Novel24",1,756,"4","0",1,(Aug 11 2013 20:02:53),FALSE,TRUE,FALSE,4,0
"207","A124T5AVHGY5C2","Aug 11 2013","20:02:53",18,6,"Same",0,"Novel121",0,"Novel121",2,696,"4","0",1,(Aug 11 2013 20:02:53),TRUE,TRUE,FALSE,4,0
"208","A124T5AVHGY5C2","Aug 11 2013","20:02:53",20,7,"Switch",0,"Novel38",0,"Novel23",1,616,"4","0",1,(Aug 11 2013 20:02:53),FALSE,TRUE,FALSE,4,0
"209","A126BDE73YE05F","Aug 11 2013","13:07:17",13,0,"Switch",0,"Novel87",1,"Novel76",1,2655,"3","7",1,(Aug 11 2013 13:07:17),FALSE,TRUE,TRUE,3,7
"210","A126BDE73YE05F","Aug 11 2013","13:07:17",14,1,"Same",0,"Novel45",0,"Novel68",0,1956,"3","7",1,(Aug 11 2013 13:07:17),FALSE,TRUE,FALSE,3,7
"211","A126BDE73YE05F","Aug 11 2013","13:07:17",15,2,"Switch",0,"Novel15",2,"Novel15",0,2642,"3","7",1,(Aug 11 2013 13:07:17),TRUE,TRUE,FALSE,3,7
"212","A126BDE73YE05F","Aug 11 2013","13:07:17",16,3,"Same",1,"Novel10",0,"Novel10",0,1828,"3","7",1,(Aug 11 2013 13:07:17),TRUE,TRUE,FALSE,3,7
"213","A126BDE73YE05F","Aug 11 2013","13:07:17",17,4,"Switch",1,"Novel74",0,"Novel27",1,3295,"3","7",1,(Aug 11 2013 13:07:17),FALSE,TRUE,FALSE,3,7
"214","A126BDE73YE05F","Aug 11 2013","13:07:17",18,5,"Same",0,"Novel112",0,"Novel112",1,2189,"3","7",1,(Aug 11 2013 13:07:17),TRUE,TRUE,FALSE,3,7
"215","A126BDE73YE05F","Aug 11 2013","13:07:17",19,6,"Switch",1,"Novel88",2,"Novel88",2,3484,"3","7",1,(Aug 11 2013 13:07:17),TRUE,TRUE,FALSE,3,7
"216","A126BDE73YE05F","Aug 11 2013","13:07:17",20,7,"Same",1,"Novel57",2,"Novel31",0,3417,"3","7",1,(Aug 11 2013 13:07:17),FALSE,TRUE,FALSE,3,7
"217","A12GJUCS7AJ4K","Aug 11 2013","16:58:11",9,0,"Same",1,"Novel126",0,"Novel126",0,5813,"2","3",1,(Aug 11 2013 16:58:11),TRUE,TRUE,TRUE,2,3
"218","A12GJUCS7AJ4K","Aug 11 2013","16:58:11",10,1,"Switch",0,"Novel106",1,"Novel106",0,5305,"2","3",1,(Aug 11 2013 16:58:11),TRUE,TRUE,FALSE,2,3
"219","A12GJUCS7AJ4K","Aug 11 2013","16:58:11",11,2,"Same",1,"Novel82",1,"Novel82",1,1339,"2","3",1,(Aug 11 2013 16:58:11),TRUE,TRUE,FALSE,2,3
"220","A12GJUCS7AJ4K","Aug 11 2013","16:58:11",12,3,"Switch",1,"Novel136",1,"Novel136",1,11285,"2","3",1,(Aug 11 2013 16:58:11),TRUE,TRUE,FALSE,2,3
"221","A12GJUCS7AJ4K","Aug 11 2013","16:58:11",17,4,"Same",0,"Novel13",1,"Novel13",0,2195,"2","3",1,(Aug 11 2013 16:58:11),TRUE,TRUE,FALSE,2,3
"222","A12GJUCS7AJ4K","Aug 11 2013","16:58:11",18,5,"Switch",1,"Novel100",0,"Novel100",0,2464,"2","3",1,(Aug 11 2013 16:58:11),TRUE,TRUE,FALSE,2,3
"223","A12GJUCS7AJ4K","Aug 11 2013","16:58:11",19,6,"Same",0,"Novel117",0,"Novel117",1,2188,"2","3",1,(Aug 11 2013 16:58:11),TRUE,TRUE,FALSE,2,3
"224","A12GJUCS7AJ4K","Aug 11 2013","16:58:11",20,7,"Switch",0,"Novel7",0,"Novel7",1,1966,"2","3",1,(Aug 11 2013 16:58:11),TRUE,TRUE,FALSE,2,3
"225","A12MPTF7WBVAFZ","Apr 04 2013","16:14:37",13,0,"Switch",1,"Novel28",0,"Novel28",0,3899,"4","7",1,(Apr 04 2013 16:14:37),TRUE,TRUE,TRUE,4,7
"226","A12MPTF7WBVAFZ","Apr 04 2013","16:14:37",14,1,"Same",0,"Novel82",0,"Novel43",0,2398,"4","7",1,(Apr 04 2013 16:14:37),FALSE,TRUE,FALSE,4,7
"227","A12MPTF7WBVAFZ","Apr 04 2013","16:14:37",15,2,"Switch",0,"Novel123",1,"Novel105",1,2094,"4","7",1,(Apr 04 2013 16:14:37),FALSE,TRUE,FALSE,4,7
"228","A12MPTF7WBVAFZ","Apr 04 2013","16:14:37",16,3,"Same",1,"Novel80",1,"Novel80",1,1062,"4","7",1,(Apr 04 2013 16:14:37),TRUE,TRUE,FALSE,4,7
"229","A12MPTF7WBVAFZ","Apr 04 2013","16:14:37",17,4,"Switch",1,"Novel108",2,"Novel108",2,2272,"4","7",1,(Apr 04 2013 16:14:37),TRUE,TRUE,FALSE,4,7
"230","A12MPTF7WBVAFZ","Apr 04 2013","16:14:37",18,5,"Same",1,"Novel102",1,"Novel102",1,1223,"4","7",1,(Apr 04 2013 16:14:37),TRUE,TRUE,FALSE,4,7
"231","A12MPTF7WBVAFZ","Apr 04 2013","16:14:37",19,6,"Switch",0,"Novel16",0,"Novel16",3,1564,"4","7",1,(Apr 04 2013 16:14:37),TRUE,TRUE,FALSE,4,7
"232","A12MPTF7WBVAFZ","Apr 04 2013","16:14:37",20,7,"Same",0,"Novel32",1,"Novel32",3,1213,"4","7",1,(Apr 04 2013 16:14:37),TRUE,TRUE,FALSE,4,7
"233","A12QTJG76CSU4S","Aug 11 2013","12:09:10",6,0,"Switch",1,"Novel27",3,"Novel79",1,2745,"4","0",1,(Aug 11 2013 12:09:10),FALSE,TRUE,TRUE,4,0
"234","A12QTJG76CSU4S","Aug 11 2013","12:09:10",8,1,"Same",0,"Novel44",0,"Novel44",1,1759,"4","0",1,(Aug 11 2013 12:09:10),TRUE,TRUE,FALSE,4,0
"235","A12QTJG76CSU4S","Aug 11 2013","12:09:10",10,2,"Switch",1,"Novel83",1,"Novel50",2,1826,"4","0",1,(Aug 11 2013 12:09:10),FALSE,TRUE,FALSE,4,0
"236","A12QTJG76CSU4S","Aug 11 2013","12:09:10",12,3,"Same",0,"Novel140",3,"Novel140",1,1192,"4","0",1,(Aug 11 2013 12:09:10),TRUE,TRUE,FALSE,4,0
"237","A12QTJG76CSU4S","Aug 11 2013","12:09:10",14,4,"Switch",0,"Novel59",1,"Novel59",2,2139,"4","0",1,(Aug 11 2013 12:09:10),TRUE,TRUE,FALSE,4,0
"238","A12QTJG76CSU4S","Aug 11 2013","12:09:10",16,5,"Same",1,"Novel33",0,"Novel33",0,1513,"4","0",1,(Aug 11 2013 12:09:10),TRUE,TRUE,FALSE,4,0
"239","A12QTJG76CSU4S","Aug 11 2013","12:09:10",18,6,"Switch",0,"Novel124",2,"Novel124",0,1203,"4","0",1,(Aug 11 2013 12:09:10),TRUE,TRUE,FALSE,4,0
"240","A12QTJG76CSU4S","Aug 11 2013","12:09:10",20,7,"Same",1,"Novel84",3,"Novel84",3,775,"4","0",1,(Aug 11 2013 12:09:10),TRUE,TRUE,FALSE,4,0
"241","A12TIM3OYMOVWT","Aug 12 2013","05:16:55",6,0,"Switch",1,"Novel20",2,"Novel20",2,3033,"3","0",1,(Aug 12 2013 05:16:55),TRUE,TRUE,TRUE,3,0
"242","A12TIM3OYMOVWT","Aug 12 2013","05:16:55",8,1,"Same",1,"Novel21",1,"Novel21",1,675,"3","0",1,(Aug 12 2013 05:16:55),TRUE,TRUE,FALSE,3,0
"243","A12TIM3OYMOVWT","Aug 12 2013","05:16:55",10,2,"Switch",0,"Novel9",0,"Novel116",0,4256,"3","0",1,(Aug 12 2013 05:16:55),FALSE,TRUE,FALSE,3,0
"244","A12TIM3OYMOVWT","Aug 12 2013","05:16:55",12,3,"Same",1,"Novel51",1,"Novel51",1,224,"3","0",1,(Aug 12 2013 05:16:55),TRUE,TRUE,FALSE,3,0
"245","A12TIM3OYMOVWT","Aug 12 2013","05:16:55",14,4,"Switch",0,"Novel80",1,"Novel85",1,2133,"3","0",1,(Aug 12 2013 05:16:55),FALSE,TRUE,FALSE,3,0
"246","A12TIM3OYMOVWT","Aug 12 2013","05:16:55",16,5,"Same",0,"Novel64",0,"Novel64",2,652,"3","0",1,(Aug 12 2013 05:16:55),TRUE,TRUE,FALSE,3,0
"247","A12TIM3OYMOVWT","Aug 12 2013","05:16:55",18,6,"Switch",1,"Novel117",0,"Novel52",1,2350,"3","0",1,(Aug 12 2013 05:16:55),FALSE,TRUE,FALSE,3,0
"248","A12TIM3OYMOVWT","Aug 12 2013","05:16:55",20,7,"Same",0,"Novel11",0,"Novel11",1,589,"3","0",1,(Aug 12 2013 05:16:55),TRUE,TRUE,FALSE,3,0
"249","A12ZU22BL5VIWV","Apr 08 2013","17:28:36",7,0,"Same",1,"Novel51",1,"Novel77",0,9016,"2","1",1,(Apr 08 2013 17:28:36),FALSE,TRUE,TRUE,2,1
"250","A12ZU22BL5VIWV","Apr 08 2013","17:28:36",8,1,"Switch",0,"Novel1",1,"Novel1",0,1433,"2","1",1,(Apr 08 2013 17:28:36),TRUE,TRUE,FALSE,2,1
"251","A12ZU22BL5VIWV","Apr 08 2013","17:28:36",11,2,"Same",0,"Novel9",1,"Novel9",0,1614,"2","1",1,(Apr 08 2013 17:28:36),TRUE,TRUE,FALSE,2,1
"252","A12ZU22BL5VIWV","Apr 08 2013","17:28:36",12,3,"Switch",1,"Novel104",0,"Novel104",0,2869,"2","1",1,(Apr 08 2013 17:28:36),TRUE,TRUE,FALSE,2,1
"253","A12ZU22BL5VIWV","Apr 08 2013","17:28:36",15,4,"Same",1,"Novel140",0,"Novel140",0,1207,"2","1",1,(Apr 08 2013 17:28:36),TRUE,TRUE,FALSE,2,1
"254","A12ZU22BL5VIWV","Apr 08 2013","17:28:36",16,5,"Switch",1,"Novel30",0,"Novel30",0,1132,"2","1",1,(Apr 08 2013 17:28:36),TRUE,TRUE,FALSE,2,1
"255","A12ZU22BL5VIWV","Apr 08 2013","17:28:36",19,6,"Same",0,"Novel114",0,"Novel114",1,1579,"2","1",1,(Apr 08 2013 17:28:36),TRUE,TRUE,FALSE,2,1
"256","A12ZU22BL5VIWV","Apr 08 2013","17:28:36",20,7,"Switch",0,"Novel56",0,"Novel56",1,1570,"2","1",1,(Apr 08 2013 17:28:36),TRUE,TRUE,FALSE,2,1
"257","A132OGUCBF0KDL","Apr 03 2013","23:14:41",13,0,"Switch",1,"Novel111",1,"Novel111",1,3308,"4","7",1,(Apr 03 2013 23:14:41),TRUE,TRUE,TRUE,4,7
"258","A132OGUCBF0KDL","Apr 03 2013","23:14:41",14,1,"Same",0,"Novel28",0,"Novel28",3,2136,"4","7",1,(Apr 03 2013 23:14:41),TRUE,TRUE,FALSE,4,7
"259","A132OGUCBF0KDL","Apr 03 2013","23:14:41",15,2,"Switch",0,"Novel50",3,"Novel50",2,1805,"4","7",1,(Apr 03 2013 23:14:41),TRUE,TRUE,FALSE,4,7
"260","A132OGUCBF0KDL","Apr 03 2013","23:14:41",16,3,"Same",1,"Novel18",1,"Novel18",1,3343,"4","7",1,(Apr 03 2013 23:14:41),TRUE,TRUE,FALSE,4,7
"261","A132OGUCBF0KDL","Apr 03 2013","23:14:41",17,4,"Switch",0,"Novel48",1,"Novel48",0,1986,"4","7",1,(Apr 03 2013 23:14:41),TRUE,TRUE,FALSE,4,7
"262","A132OGUCBF0KDL","Apr 03 2013","23:14:41",18,5,"Same",1,"Novel62",2,"Novel62",2,2275,"4","7",1,(Apr 03 2013 23:14:41),TRUE,TRUE,FALSE,4,7
"263","A132OGUCBF0KDL","Apr 03 2013","23:14:41",19,6,"Switch",1,"Novel37",0,"Novel9",1,5275,"4","7",1,(Apr 03 2013 23:14:41),FALSE,TRUE,FALSE,4,7
"264","A132OGUCBF0KDL","Apr 03 2013","23:14:41",20,7,"Same",0,"Novel70",3,"Novel70",1,2684,"4","7",1,(Apr 03 2013 23:14:41),TRUE,TRUE,FALSE,4,7
"273","A13A4R9NNZVU2P","Aug 11 2013","17:39:58",13,0,"Switch",1,"Novel10",0,"Novel1",1,2605,"2","7",1,(Aug 11 2013 17:39:58),FALSE,TRUE,TRUE,2,7
"274","A13A4R9NNZVU2P","Aug 11 2013","17:39:58",14,1,"Same",1,"Novel21",0,"Novel21",0,2980,"2","7",1,(Aug 11 2013 17:39:58),TRUE,TRUE,FALSE,2,7
"275","A13A4R9NNZVU2P","Aug 11 2013","17:39:58",15,2,"Switch",0,"Novel32",0,"Novel32",1,1628,"2","7",1,(Aug 11 2013 17:39:58),TRUE,TRUE,FALSE,2,7
"276","A13A4R9NNZVU2P","Aug 11 2013","17:39:58",16,3,"Same",0,"Novel22",1,"Novel22",0,2358,"2","7",1,(Aug 11 2013 17:39:58),TRUE,TRUE,FALSE,2,7
"277","A13A4R9NNZVU2P","Aug 11 2013","17:39:58",17,4,"Switch",1,"Novel80",0,"Novel80",0,2075,"2","7",1,(Aug 11 2013 17:39:58),TRUE,TRUE,FALSE,2,7
"278","A13A4R9NNZVU2P","Aug 11 2013","17:39:58",18,5,"Same",1,"Novel92",1,"Novel92",1,1139,"2","7",1,(Aug 11 2013 17:39:58),TRUE,TRUE,FALSE,2,7
"279","A13A4R9NNZVU2P","Aug 11 2013","17:39:58",19,6,"Switch",0,"Novel18",1,"Novel18",0,4686,"2","7",1,(Aug 11 2013 17:39:58),TRUE,TRUE,FALSE,2,7
"280","A13A4R9NNZVU2P","Aug 11 2013","17:39:58",20,7,"Same",0,"Novel35",1,"Novel35",0,2690,"2","7",1,(Aug 11 2013 17:39:58),TRUE,TRUE,FALSE,2,7
"281","A13PP95I89HW09","Apr 02 2013","16:27:15",6,0,"Switch",0,"Novel17",7,"Novel136",1,5001,"8","0",1,(Apr 02 2013 16:27:15),FALSE,TRUE,TRUE,8,0
"282","A13PP95I89HW09","Apr 02 2013","16:27:15",8,1,"Same",1,"Novel95",3,"Novel95",3,1768,"8","0",1,(Apr 02 2013 16:27:15),TRUE,TRUE,FALSE,8,0
"283","A13PP95I89HW09","Apr 02 2013","16:27:15",10,2,"Switch",1,"Novel43",0,"Novel104",4,4646,"8","0",1,(Apr 02 2013 16:27:15),FALSE,TRUE,FALSE,8,0
"284","A13PP95I89HW09","Apr 02 2013","16:27:15",12,3,"Same",0,"Novel98",6,"Novel98",3,2294,"8","0",1,(Apr 02 2013 16:27:15),TRUE,TRUE,FALSE,8,0
"285","A13PP95I89HW09","Apr 02 2013","16:27:15",14,4,"Switch",1,"Novel36",1,"Novel102",3,2872,"8","0",1,(Apr 02 2013 16:27:15),FALSE,TRUE,FALSE,8,0
"286","A13PP95I89HW09","Apr 02 2013","16:27:15",16,5,"Same",0,"Novel123",6,"Novel123",0,1468,"8","0",1,(Apr 02 2013 16:27:15),TRUE,TRUE,FALSE,8,0
"287","A13PP95I89HW09","Apr 02 2013","16:27:15",18,6,"Switch",0,"Novel79",7,"Novel79",3,4715,"8","0",1,(Apr 02 2013 16:27:15),TRUE,TRUE,FALSE,8,0
"288","A13PP95I89HW09","Apr 02 2013","16:27:15",20,7,"Same",1,"Novel7",4,"Novel7",4,1796,"8","0",1,(Apr 02 2013 16:27:15),TRUE,TRUE,FALSE,8,0
"289","A13VIJ7G997ZCY","Aug 11 2013","15:26:26",13,0,"Same",0,"Novel81",3,"Novel81",1,2829,"4","7",1,(Aug 11 2013 15:26:26),TRUE,TRUE,TRUE,4,7
"290","A13VIJ7G997ZCY","Aug 11 2013","15:26:26",14,1,"Switch",1,"Novel9",1,"Novel76",3,2310,"4","7",1,(Aug 11 2013 15:26:26),FALSE,TRUE,FALSE,4,7
"291","A13VIJ7G997ZCY","Aug 11 2013","15:26:26",15,2,"Same",1,"Novel115",2,"Novel96",3,3836,"4","7",1,(Aug 11 2013 15:26:26),FALSE,TRUE,FALSE,4,7
"292","A13VIJ7G997ZCY","Aug 11 2013","15:26:26",16,3,"Switch",0,"Novel113",3,"Novel6",0,5449,"4","7",1,(Aug 11 2013 15:26:26),FALSE,TRUE,FALSE,4,7
"293","A13VIJ7G997ZCY","Aug 11 2013","15:26:26",17,4,"Same",1,"Novel124",1,"Novel124",1,2346,"4","7",1,(Aug 11 2013 15:26:26),TRUE,TRUE,FALSE,4,7
"294","A13VIJ7G997ZCY","Aug 11 2013","15:26:26",18,5,"Switch",1,"Novel63",3,"Novel114",0,4498,"4","7",1,(Aug 11 2013 15:26:26),FALSE,TRUE,FALSE,4,7
"295","A13VIJ7G997ZCY","Aug 11 2013","15:26:26",19,6,"Same",0,"Novel98",0,"Novel109",3,4444,"4","7",1,(Aug 11 2013 15:26:26),FALSE,TRUE,FALSE,4,7
"296","A13VIJ7G997ZCY","Aug 11 2013","15:26:26",20,7,"Switch",0,"Novel30",1,"Novel125",1,4127,"4","7",1,(Aug 11 2013 15:26:26),FALSE,TRUE,FALSE,4,7
"297","A13ZTVO5PFXYY5","Aug 11 2013","15:42:01",13,0,"Switch",1,"Novel58",1,"Novel58",1,4011,"3","7",1,(Aug 11 2013 15:42:01),TRUE,TRUE,TRUE,3,7
"298","A13ZTVO5PFXYY5","Aug 11 2013","15:42:01",14,1,"Same",1,"Novel134",2,"Novel134",2,1924,"3","7",1,(Aug 11 2013 15:42:01),TRUE,TRUE,FALSE,3,7
"299","A13ZTVO5PFXYY5","Aug 11 2013","15:42:01",15,2,"Switch",0,"Novel71",1,"Novel71",2,3190,"3","7",1,(Aug 11 2013 15:42:01),TRUE,TRUE,FALSE,3,7
"300","A13ZTVO5PFXYY5","Aug 11 2013","15:42:01",16,3,"Same",0,"Novel2",0,"Novel2",2,1497,"3","7",1,(Aug 11 2013 15:42:01),TRUE,TRUE,FALSE,3,7
"301","A13ZTVO5PFXYY5","Aug 11 2013","15:42:01",17,4,"Switch",1,"Novel124",1,"Novel124",1,3116,"3","7",1,(Aug 11 2013 15:42:01),TRUE,TRUE,FALSE,3,7
"302","A13ZTVO5PFXYY5","Aug 11 2013","15:42:01",18,5,"Same",1,"Novel54",2,"Novel54",2,3082,"3","7",1,(Aug 11 2013 15:42:01),TRUE,TRUE,FALSE,3,7
"303","A13ZTVO5PFXYY5","Aug 11 2013","15:42:01",19,6,"Switch",0,"Novel118",1,"Novel118",2,2323,"3","7",1,(Aug 11 2013 15:42:01),TRUE,TRUE,FALSE,3,7
"304","A13ZTVO5PFXYY5","Aug 11 2013","15:42:01",20,7,"Same",0,"Novel22",1,"Novel22",2,1955,"3","7",1,(Aug 11 2013 15:42:01),TRUE,TRUE,FALSE,3,7
"305","A140VVNG5TWAB1","Aug 12 2013","03:36:36",6,0,"Switch",1,"Novel6",1,"Novel6",1,4874,"4","0",1,(Aug 12 2013 03:36:36),TRUE,TRUE,TRUE,4,0
"306","A140VVNG5TWAB1","Aug 12 2013","03:36:36",8,1,"Same",0,"Novel136",2,"Novel136",1,2195,"4","0",1,(Aug 12 2013 03:36:36),TRUE,TRUE,FALSE,4,0
"307","A140VVNG5TWAB1","Aug 12 2013","03:36:36",10,2,"Switch",0,"Novel32",2,"Novel32",0,1775,"4","0",1,(Aug 12 2013 03:36:36),TRUE,TRUE,FALSE,4,0
"308","A140VVNG5TWAB1","Aug 12 2013","03:36:36",12,3,"Same",1,"Novel118",2,"Novel118",2,1208,"4","0",1,(Aug 12 2013 03:36:36),TRUE,TRUE,FALSE,4,0
"309","A140VVNG5TWAB1","Aug 12 2013","03:36:36",14,4,"Switch",1,"Novel128",1,"Novel135",3,5181,"4","0",1,(Aug 12 2013 03:36:36),FALSE,TRUE,FALSE,4,0
"310","A140VVNG5TWAB1","Aug 12 2013","03:36:36",16,5,"Same",0,"Novel115",0,"Novel115",1,1395,"4","0",1,(Aug 12 2013 03:36:36),TRUE,TRUE,FALSE,4,0
"311","A140VVNG5TWAB1","Aug 12 2013","03:36:36",18,6,"Switch",0,"Novel5",0,"Novel101",0,7260,"4","0",1,(Aug 12 2013 03:36:36),FALSE,TRUE,FALSE,4,0
"312","A140VVNG5TWAB1","Aug 12 2013","03:36:36",20,7,"Same",1,"Novel105",1,"Novel105",1,947,"4","0",1,(Aug 12 2013 03:36:36),TRUE,TRUE,FALSE,4,0
"321","A14B4ENOC876Y5","Aug 12 2013","07:06:55",7,0,"Same",0,"Novel78",2,"Novel78",7,1782,"8","1",1,(Aug 12 2013 07:06:55),TRUE,TRUE,TRUE,8,1
"322","A14B4ENOC876Y5","Aug 12 2013","07:06:55",8,1,"Switch",0,"Novel102",6,"Novel6",5,3665,"8","1",1,(Aug 12 2013 07:06:55),FALSE,TRUE,FALSE,8,1
"323","A14B4ENOC876Y5","Aug 12 2013","07:06:55",11,2,"Same",1,"Novel11",7,"Novel11",7,692,"8","1",1,(Aug 12 2013 07:06:55),TRUE,TRUE,FALSE,8,1
"324","A14B4ENOC876Y5","Aug 12 2013","07:06:55",12,3,"Switch",1,"Novel96",4,"Novel85",6,1532,"8","1",1,(Aug 12 2013 07:06:55),FALSE,TRUE,FALSE,8,1
"325","A14B4ENOC876Y5","Aug 12 2013","07:06:55",15,4,"Same",1,"Novel139",2,"Novel139",2,2838,"8","1",1,(Aug 12 2013 07:06:55),TRUE,TRUE,FALSE,8,1
"326","A14B4ENOC876Y5","Aug 12 2013","07:06:55",16,5,"Switch",1,"Novel88",5,"Novel129",3,1033,"8","1",1,(Aug 12 2013 07:06:55),FALSE,TRUE,FALSE,8,1
"327","A14B4ENOC876Y5","Aug 12 2013","07:06:55",19,6,"Same",0,"Novel130",5,"Novel130",4,2393,"8","1",1,(Aug 12 2013 07:06:55),TRUE,TRUE,FALSE,8,1
"328","A14B4ENOC876Y5","Aug 12 2013","07:06:55",20,7,"Switch",0,"Novel69",5,"Novel47",5,1027,"8","1",1,(Aug 12 2013 07:06:55),FALSE,TRUE,FALSE,8,1
"329","A14CK8RNV54SBW","Aug 11 2013","13:35:28",13,0,"Same",0,"Novel56",7,"Novel83",3,2773,"8","7",1,(Aug 11 2013 13:35:28),FALSE,TRUE,TRUE,8,7
"330","A14CK8RNV54SBW","Aug 11 2013","13:35:28",14,1,"Switch",1,"Novel110",0,"Novel14",6,6469,"8","7",1,(Aug 11 2013 13:35:28),FALSE,TRUE,FALSE,8,7
"331","A14CK8RNV54SBW","Aug 11 2013","13:35:28",15,2,"Same",0,"Novel93",7,"Novel98",1,2449,"8","7",1,(Aug 11 2013 13:35:28),FALSE,TRUE,FALSE,8,7
"332","A14CK8RNV54SBW","Aug 11 2013","13:35:28",16,3,"Switch",0,"Novel90",3,"Novel54",4,1618,"8","7",1,(Aug 11 2013 13:35:28),FALSE,TRUE,FALSE,8,7
"333","A14CK8RNV54SBW","Aug 11 2013","13:35:28",17,4,"Same",1,"Novel91",4,"Novel97",3,1982,"8","7",1,(Aug 11 2013 13:35:28),FALSE,TRUE,FALSE,8,7
"334","A14CK8RNV54SBW","Aug 11 2013","13:35:28",18,5,"Switch",0,"Novel92",2,"Novel99",7,2128,"8","7",1,(Aug 11 2013 13:35:28),FALSE,TRUE,FALSE,8,7
"335","A14CK8RNV54SBW","Aug 11 2013","13:35:28",19,6,"Same",1,"Novel72",5,"Novel63",4,4754,"8","7",1,(Aug 11 2013 13:35:28),FALSE,TRUE,FALSE,8,7
"336","A14CK8RNV54SBW","Aug 11 2013","13:35:28",20,7,"Switch",1,"Novel9",3,"Novel96",0,2349,"8","7",1,(Aug 11 2013 13:35:28),FALSE,TRUE,FALSE,8,7
"337","A14HW1BW5DR1HY","Aug 11 2013","16:31:17",6,0,"Same",0,"Novel133",2,"Novel133",1,2013,"3","0",1,(Aug 11 2013 16:31:17),TRUE,TRUE,TRUE,3,0
"338","A14HW1BW5DR1HY","Aug 11 2013","16:31:17",8,1,"Switch",0,"Novel127",0,"Novel127",2,2860,"3","0",1,(Aug 11 2013 16:31:17),TRUE,TRUE,FALSE,3,0
"339","A14HW1BW5DR1HY","Aug 11 2013","16:31:17",10,2,"Same",1,"Novel126",2,"Novel126",2,1129,"3","0",1,(Aug 11 2013 16:31:17),TRUE,TRUE,FALSE,3,0
"340","A14HW1BW5DR1HY","Aug 11 2013","16:31:17",12,3,"Switch",0,"Novel51",0,"Novel51",2,2764,"3","0",1,(Aug 11 2013 16:31:17),TRUE,TRUE,FALSE,3,0
"341","A14HW1BW5DR1HY","Aug 11 2013","16:31:17",14,4,"Same",1,"Novel110",0,"Novel110",0,1273,"3","0",1,(Aug 11 2013 16:31:17),TRUE,TRUE,FALSE,3,0
"342","A14HW1BW5DR1HY","Aug 11 2013","16:31:17",16,5,"Switch",1,"Novel2",2,"Novel96",0,1187,"3","0",1,(Aug 11 2013 16:31:17),FALSE,TRUE,FALSE,3,0
"343","A14HW1BW5DR1HY","Aug 11 2013","16:31:17",18,6,"Same",0,"Novel50",2,"Novel50",1,1042,"3","0",1,(Aug 11 2013 16:31:17),TRUE,TRUE,FALSE,3,0
"344","A14HW1BW5DR1HY","Aug 11 2013","16:31:17",20,7,"Switch",1,"Novel125",1,"Novel64",0,1492,"3","0",1,(Aug 11 2013 16:31:17),FALSE,TRUE,FALSE,3,0
"345","A14IR7TO5YHC6J","Apr 09 2013","04:11:18",7,0,"Switch",1,"Novel80",1,"Novel80",1,4054,"2","1",1,(Apr 09 2013 04:11:18),TRUE,TRUE,TRUE,2,1
"346","A14IR7TO5YHC6J","Apr 09 2013","04:11:18",8,1,"Same",0,"Novel69",1,"Novel69",0,1629,"2","1",1,(Apr 09 2013 04:11:18),TRUE,TRUE,FALSE,2,1
"347","A14IR7TO5YHC6J","Apr 09 2013","04:11:18",11,2,"Switch",0,"Novel54",0,"Novel54",1,3683,"2","1",1,(Apr 09 2013 04:11:18),TRUE,TRUE,FALSE,2,1
"348","A14IR7TO5YHC6J","Apr 09 2013","04:11:18",12,3,"Same",0,"Novel111",1,"Novel111",0,945,"2","1",1,(Apr 09 2013 04:11:18),TRUE,TRUE,FALSE,2,1
"349","A14IR7TO5YHC6J","Apr 09 2013","04:11:18",15,4,"Switch",0,"Novel15",0,"Novel15",1,5328,"2","1",1,(Apr 09 2013 04:11:18),TRUE,TRUE,FALSE,2,1
"350","A14IR7TO5YHC6J","Apr 09 2013","04:11:18",16,5,"Same",1,"Novel65",0,"Novel65",0,1385,"2","1",1,(Apr 09 2013 04:11:18),TRUE,TRUE,FALSE,2,1
"351","A14IR7TO5YHC6J","Apr 09 2013","04:11:18",19,6,"Switch",1,"Novel63",0,"Novel63",0,1591,"2","1",1,(Apr 09 2013 04:11:18),TRUE,TRUE,FALSE,2,1
"352","A14IR7TO5YHC6J","Apr 09 2013","04:11:18",20,7,"Same",1,"Novel71",1,"Novel71",1,1874,"2","1",1,(Apr 09 2013 04:11:18),TRUE,TRUE,FALSE,2,1
"353","A14S7I1507EL47","Aug 12 2013","05:32:36",9,0,"Switch",0,"Novel6",1,"Novel6",0,3451,"2","3",1,(Aug 12 2013 05:32:36),TRUE,TRUE,TRUE,2,3
"354","A14S7I1507EL47","Aug 12 2013","05:32:36",10,1,"Same",0,"Novel21",0,"Novel21",1,2109,"2","3",1,(Aug 12 2013 05:32:36),TRUE,TRUE,FALSE,2,3
"355","A14S7I1507EL47","Aug 12 2013","05:32:36",11,2,"Switch",1,"Novel129",0,"Novel35",1,2710,"2","3",1,(Aug 12 2013 05:32:36),FALSE,TRUE,FALSE,2,3
"356","A14S7I1507EL47","Aug 12 2013","05:32:36",12,3,"Same",1,"Novel80",0,"Novel80",0,1270,"2","3",1,(Aug 12 2013 05:32:36),TRUE,TRUE,FALSE,2,3
"357","A14S7I1507EL47","Aug 12 2013","05:32:36",17,4,"Switch",0,"Novel51",0,"Novel83",0,1445,"2","3",1,(Aug 12 2013 05:32:36),FALSE,TRUE,FALSE,2,3
"358","A14S7I1507EL47","Aug 12 2013","05:32:36",18,5,"Same",1,"Novel34",1,"Novel41",0,1180,"2","3",1,(Aug 12 2013 05:32:36),FALSE,TRUE,FALSE,2,3
"359","A14S7I1507EL47","Aug 12 2013","05:32:36",19,6,"Switch",1,"Novel94",1,"Novel115",0,1347,"2","3",1,(Aug 12 2013 05:32:36),FALSE,TRUE,FALSE,2,3
"360","A14S7I1507EL47","Aug 12 2013","05:32:36",20,7,"Same",0,"Novel50",1,"Novel139",1,1334,"2","3",1,(Aug 12 2013 05:32:36),FALSE,TRUE,FALSE,2,3
"361","A14Y6KQ02JXBU3","Aug 11 2013","19:34:11",7,0,"Same",0,"Novel21",2,"Novel21",0,2201,"4","1",1,(Aug 11 2013 19:34:11),TRUE,TRUE,TRUE,4,1
"362","A14Y6KQ02JXBU3","Aug 11 2013","19:34:11",8,1,"Switch",1,"Novel138",0,"Novel132",1,4492,"4","1",1,(Aug 11 2013 19:34:11),FALSE,TRUE,FALSE,4,1
"363","A14Y6KQ02JXBU3","Aug 11 2013","19:34:11",11,2,"Same",1,"Novel42",2,"Novel42",2,3037,"4","1",1,(Aug 11 2013 19:34:11),TRUE,TRUE,FALSE,4,1
"364","A14Y6KQ02JXBU3","Aug 11 2013","19:34:11",12,3,"Switch",0,"Novel11",3,"Novel11",1,1866,"4","1",1,(Aug 11 2013 19:34:11),TRUE,TRUE,FALSE,4,1
"365","A14Y6KQ02JXBU3","Aug 11 2013","19:34:11",15,4,"Same",1,"Novel120",1,"Novel120",1,2052,"4","1",1,(Aug 11 2013 19:34:11),TRUE,TRUE,FALSE,4,1
"366","A14Y6KQ02JXBU3","Aug 11 2013","19:34:11",16,5,"Switch",1,"Novel85",3,"Novel85",3,3524,"4","1",1,(Aug 11 2013 19:34:11),TRUE,TRUE,FALSE,4,1
"367","A14Y6KQ02JXBU3","Aug 11 2013","19:34:11",19,6,"Same",0,"Novel58",0,"Novel99",3,3959,"4","1",1,(Aug 11 2013 19:34:11),FALSE,TRUE,FALSE,4,1
"368","A14Y6KQ02JXBU3","Aug 11 2013","19:34:11",20,7,"Switch",0,"Novel63",2,"Novel45",0,2669,"4","1",1,(Aug 11 2013 19:34:11),FALSE,TRUE,FALSE,4,1
"369","A150O9YIKFHN9I","Apr 09 2013","17:05:00",13,0,"Switch",0,"Novel18",0,"Novel18",1,3492,"2","7",1,(Apr 09 2013 17:05:00),TRUE,TRUE,TRUE,2,7
"370","A150O9YIKFHN9I","Apr 09 2013","17:05:00",14,1,"Same",0,"Novel56",1,"Novel56",0,2023,"2","7",1,(Apr 09 2013 17:05:00),TRUE,TRUE,FALSE,2,7
"371","A150O9YIKFHN9I","Apr 09 2013","17:05:00",15,2,"Switch",1,"Novel133",0,"Novel133",0,1953,"2","7",1,(Apr 09 2013 17:05:00),TRUE,TRUE,FALSE,2,7
"372","A150O9YIKFHN9I","Apr 09 2013","17:05:00",16,3,"Same",1,"Novel50",0,"Novel50",0,1528,"2","7",1,(Apr 09 2013 17:05:00),TRUE,TRUE,FALSE,2,7
"373","A150O9YIKFHN9I","Apr 09 2013","17:05:00",17,4,"Switch",1,"Novel137",0,"Novel137",0,1547,"2","7",1,(Apr 09 2013 17:05:00),TRUE,TRUE,FALSE,2,7
"374","A150O9YIKFHN9I","Apr 09 2013","17:05:00",18,5,"Same",0,"Novel30",0,"Novel30",1,1586,"2","7",1,(Apr 09 2013 17:05:00),TRUE,TRUE,FALSE,2,7
"375","A150O9YIKFHN9I","Apr 09 2013","17:05:00",19,6,"Switch",0,"Novel127",0,"Novel127",1,1832,"2","7",1,(Apr 09 2013 17:05:00),TRUE,TRUE,FALSE,2,7
"376","A150O9YIKFHN9I","Apr 09 2013","17:05:00",20,7,"Same",1,"Novel93",0,"Novel93",0,1335,"2","7",1,(Apr 09 2013 17:05:00),TRUE,TRUE,FALSE,2,7
"377","A15600V2C2TK1Y","Aug 12 2013","09:04:58",13,0,"Switch",1,"Novel103",0,"Novel103",0,2804,"2","7",1,(Aug 12 2013 09:04:58),TRUE,TRUE,TRUE,2,7
"378","A15600V2C2TK1Y","Aug 12 2013","09:04:58",14,1,"Same",0,"Novel53",0,"Novel53",1,1626,"2","7",1,(Aug 12 2013 09:04:58),TRUE,TRUE,FALSE,2,7
"379","A15600V2C2TK1Y","Aug 12 2013","09:04:58",15,2,"Switch",0,"Novel129",1,"Novel129",0,1825,"2","7",1,(Aug 12 2013 09:04:58),TRUE,TRUE,FALSE,2,7
"380","A15600V2C2TK1Y","Aug 12 2013","09:04:58",16,3,"Same",0,"Novel139",1,"Novel139",0,2187,"2","7",1,(Aug 12 2013 09:04:58),TRUE,TRUE,FALSE,2,7
"381","A15600V2C2TK1Y","Aug 12 2013","09:04:58",17,4,"Switch",1,"Novel23",1,"Novel23",1,3620,"2","7",1,(Aug 12 2013 09:04:58),TRUE,TRUE,FALSE,2,7
"382","A15600V2C2TK1Y","Aug 12 2013","09:04:58",18,5,"Same",1,"Novel15",0,"Novel15",0,2472,"2","7",1,(Aug 12 2013 09:04:58),TRUE,TRUE,FALSE,2,7
"383","A15600V2C2TK1Y","Aug 12 2013","09:04:58",19,6,"Switch",0,"Novel7",0,"Novel46",0,1712,"2","7",1,(Aug 12 2013 09:04:58),FALSE,TRUE,FALSE,2,7
"384","A15600V2C2TK1Y","Aug 12 2013","09:04:58",20,7,"Same",1,"Novel40",1,"Novel40",1,2881,"2","7",1,(Aug 12 2013 09:04:58),TRUE,TRUE,FALSE,2,7
"385","A159KOV1KTDC96","Aug 12 2013","06:08:52",7,0,"Switch",1,"Novel21",1,"Novel2",0,3557,"3","1",1,(Aug 12 2013 06:08:52),FALSE,TRUE,TRUE,3,1
"386","A159KOV1KTDC96","Aug 12 2013","06:08:52",8,1,"Same",0,"Novel122",1,"Novel122",0,879,"3","1",1,(Aug 12 2013 06:08:52),TRUE,TRUE,FALSE,3,1
"387","A159KOV1KTDC96","Aug 12 2013","06:08:52",11,2,"Switch",1,"Novel75",2,"Novel74",1,1416,"3","1",1,(Aug 12 2013 06:08:52),FALSE,TRUE,FALSE,3,1
"388","A159KOV1KTDC96","Aug 12 2013","06:08:52",12,3,"Same",1,"Novel86",1,"Novel86",1,1055,"3","1",1,(Aug 12 2013 06:08:52),TRUE,TRUE,FALSE,3,1
"389","A159KOV1KTDC96","Aug 12 2013","06:08:52",15,4,"Switch",0,"Novel85",2,"Novel53",2,1063,"3","1",1,(Aug 12 2013 06:08:52),FALSE,TRUE,FALSE,3,1
"390","A159KOV1KTDC96","Aug 12 2013","06:08:52",16,5,"Same",1,"Novel22",1,"Novel22",1,1186,"3","1",1,(Aug 12 2013 06:08:52),TRUE,TRUE,FALSE,3,1
"391","A159KOV1KTDC96","Aug 12 2013","06:08:52",19,6,"Switch",0,"Novel129",2,"Novel35",0,1846,"3","1",1,(Aug 12 2013 06:08:52),FALSE,TRUE,FALSE,3,1
"392","A159KOV1KTDC96","Aug 12 2013","06:08:52",20,7,"Same",0,"Novel140",1,"Novel140",0,993,"3","1",1,(Aug 12 2013 06:08:52),TRUE,TRUE,FALSE,3,1
"393","A15C96Z8TZEV6D","Aug 11 2013","12:22:24",6,0,"Same",1,"Novel59",2,"Novel59",2,1819,"8","0",1,(Aug 11 2013 12:22:24),TRUE,TRUE,TRUE,8,0
"394","A15C96Z8TZEV6D","Aug 11 2013","12:22:24",8,1,"Switch",0,"Novel115",5,"Novel73",0,4403,"8","0",1,(Aug 11 2013 12:22:24),FALSE,TRUE,FALSE,8,0
"395","A15C96Z8TZEV6D","Aug 11 2013","12:22:24",10,2,"Same",0,"Novel127",3,"Novel127",0,2041,"8","0",1,(Aug 11 2013 12:22:24),TRUE,TRUE,FALSE,8,0
"396","A15C96Z8TZEV6D","Aug 11 2013","12:22:24",12,3,"Switch",1,"Novel13",2,"Novel91",4,807,"8","0",1,(Aug 11 2013 12:22:24),FALSE,TRUE,FALSE,8,0
"397","A15C96Z8TZEV6D","Aug 11 2013","12:22:24",14,4,"Same",0,"Novel122",3,"Novel122",0,1123,"8","0",1,(Aug 11 2013 12:22:24),TRUE,TRUE,FALSE,8,0
"398","A15C96Z8TZEV6D","Aug 11 2013","12:22:24",16,5,"Switch",1,"Novel78",4,"Novel60",7,4182,"8","0",1,(Aug 11 2013 12:22:24),FALSE,TRUE,FALSE,8,0
"399","A15C96Z8TZEV6D","Aug 11 2013","12:22:24",18,6,"Same",1,"Novel6",5,"Novel6",5,1385,"8","0",1,(Aug 11 2013 12:22:24),TRUE,TRUE,FALSE,8,0
"400","A15C96Z8TZEV6D","Aug 11 2013","12:22:24",20,7,"Switch",0,"Novel88",4,"Novel96",0,1227,"8","0",1,(Aug 11 2013 12:22:24),FALSE,TRUE,FALSE,8,0
"409","A15IGBKW3W35RE","Aug 11 2013","12:44:58",13,0,"Switch",1,"Novel46",1,"Novel46",1,5852,"3","7",1,(Aug 11 2013 12:44:58),TRUE,TRUE,TRUE,3,7
"410","A15IGBKW3W35RE","Aug 11 2013","12:44:58",14,1,"Same",1,"Novel114",2,"Novel114",2,4667,"3","7",1,(Aug 11 2013 12:44:58),TRUE,TRUE,FALSE,3,7
"411","A15IGBKW3W35RE","Aug 11 2013","12:44:58",15,2,"Switch",1,"Novel49",1,"Novel68",0,5603,"3","7",1,(Aug 11 2013 12:44:58),FALSE,TRUE,FALSE,3,7
"412","A15IGBKW3W35RE","Aug 11 2013","12:44:58",16,3,"Same",1,"Novel128",2,"Novel128",2,3101,"3","7",1,(Aug 11 2013 12:44:58),TRUE,TRUE,FALSE,3,7
"413","A15IGBKW3W35RE","Aug 11 2013","12:44:58",17,4,"Switch",0,"Novel13",2,"Novel13",0,3500,"3","7",1,(Aug 11 2013 12:44:58),TRUE,TRUE,FALSE,3,7
"414","A15IGBKW3W35RE","Aug 11 2013","12:44:58",18,5,"Same",0,"Novel121",2,"Novel121",0,1883,"3","7",1,(Aug 11 2013 12:44:58),TRUE,TRUE,FALSE,3,7
"415","A15IGBKW3W35RE","Aug 11 2013","12:44:58",19,6,"Switch",0,"Novel15",2,"Novel15",1,2912,"3","7",1,(Aug 11 2013 12:44:58),TRUE,TRUE,FALSE,3,7
"416","A15IGBKW3W35RE","Aug 11 2013","12:44:58",20,7,"Same",0,"Novel47",1,"Novel47",2,2701,"3","7",1,(Aug 11 2013 12:44:58),TRUE,TRUE,FALSE,3,7
"417","A15R3VLTEP8GE4","Apr 09 2013","23:15:37",7,0,"Switch",0,"Novel132",1,"Novel132",0,1071,"2","1",1,(Apr 09 2013 23:15:37),TRUE,TRUE,TRUE,2,1
"418","A15R3VLTEP8GE4","Apr 09 2013","23:15:37",8,1,"Same",1,"Novel8",1,"Novel8",1,1449,"2","1",1,(Apr 09 2013 23:15:37),TRUE,TRUE,FALSE,2,1
"419","A15R3VLTEP8GE4","Apr 09 2013","23:15:37",11,2,"Switch",1,"Novel14",1,"Novel14",1,3306,"2","1",1,(Apr 09 2013 23:15:37),TRUE,TRUE,FALSE,2,1
"420","A15R3VLTEP8GE4","Apr 09 2013","23:15:37",12,3,"Same",1,"Novel27",1,"Novel27",1,1783,"2","1",1,(Apr 09 2013 23:15:37),TRUE,TRUE,FALSE,2,1
"421","A15R3VLTEP8GE4","Apr 09 2013","23:15:37",15,4,"Switch",0,"Novel69",0,"Novel69",1,1940,"2","1",1,(Apr 09 2013 23:15:37),TRUE,TRUE,FALSE,2,1
"422","A15R3VLTEP8GE4","Apr 09 2013","23:15:37",16,5,"Same",0,"Novel15",0,"Novel15",1,1908,"2","1",1,(Apr 09 2013 23:15:37),TRUE,TRUE,FALSE,2,1
"423","A15R3VLTEP8GE4","Apr 09 2013","23:15:37",19,6,"Switch",1,"Novel55",0,"Novel55",0,2162,"2","1",1,(Apr 09 2013 23:15:37),TRUE,TRUE,FALSE,2,1
"424","A15R3VLTEP8GE4","Apr 09 2013","23:15:37",20,7,"Same",0,"Novel72",1,"Novel72",0,1589,"2","1",1,(Apr 09 2013 23:15:37),TRUE,TRUE,FALSE,2,1
"425","A15URDDVKL570N","Apr 05 2013","09:22:59",9,0,"Switch",0,"Novel25",2,"Novel25",1,6049,"3","3",1,(Apr 05 2013 09:22:59),TRUE,TRUE,TRUE,3,3
"426","A15URDDVKL570N","Apr 05 2013","09:22:59",10,1,"Same",1,"Novel12",0,"Novel12",0,4385,"3","3",1,(Apr 05 2013 09:22:59),TRUE,TRUE,FALSE,3,3
"427","A15URDDVKL570N","Apr 05 2013","09:22:59",11,2,"Switch",0,"Novel131",2,"Novel92",0,8548,"3","3",1,(Apr 05 2013 09:22:59),FALSE,TRUE,FALSE,3,3
"428","A15URDDVKL570N","Apr 05 2013","09:22:59",12,3,"Same",1,"Novel91",0,"Novel91",0,4645,"3","3",1,(Apr 05 2013 09:22:59),TRUE,TRUE,FALSE,3,3
"429","A15URDDVKL570N","Apr 05 2013","09:22:59",17,4,"Switch",1,"Novel106",1,"Novel108",0,5234,"3","3",1,(Apr 05 2013 09:22:59),FALSE,TRUE,FALSE,3,3
"430","A15URDDVKL570N","Apr 05 2013","09:22:59",18,5,"Same",0,"Novel102",1,"Novel109",1,6949,"3","3",1,(Apr 05 2013 09:22:59),FALSE,TRUE,FALSE,3,3
"431","A15URDDVKL570N","Apr 05 2013","09:22:59",19,6,"Switch",1,"Novel18",0,"Novel59",2,5235,"3","3",1,(Apr 05 2013 09:22:59),FALSE,TRUE,FALSE,3,3
"432","A15URDDVKL570N","Apr 05 2013","09:22:59",20,7,"Same",0,"Novel1",2,"Novel1",1,6941,"3","3",1,(Apr 05 2013 09:22:59),TRUE,TRUE,FALSE,3,3
"433","A163FYZL8BTVX9","Aug 11 2013","14:06:29",7,0,"Switch",0,"Novel138",2,"Novel138",1,2052,"3","1",1,(Aug 11 2013 14:06:29),TRUE,TRUE,TRUE,3,1
"434","A163FYZL8BTVX9","Aug 11 2013","14:06:29",8,1,"Same",1,"Novel84",2,"Novel84",2,1791,"3","1",1,(Aug 11 2013 14:06:29),TRUE,TRUE,FALSE,3,1
"435","A163FYZL8BTVX9","Aug 11 2013","14:06:29",11,2,"Switch",1,"Novel70",1,"Novel70",1,4916,"3","1",1,(Aug 11 2013 14:06:29),TRUE,TRUE,FALSE,3,1
"436","A163FYZL8BTVX9","Aug 11 2013","14:06:29",12,3,"Same",1,"Novel12",1,"Novel12",1,963,"3","1",1,(Aug 11 2013 14:06:29),TRUE,TRUE,FALSE,3,1
"437","A163FYZL8BTVX9","Aug 11 2013","14:06:29",15,4,"Switch",1,"Novel119",1,"Novel90",2,2781,"3","1",1,(Aug 11 2013 14:06:29),FALSE,TRUE,FALSE,3,1
"438","A163FYZL8BTVX9","Aug 11 2013","14:06:29",16,5,"Same",0,"Novel33",2,"Novel33",0,1070,"3","1",1,(Aug 11 2013 14:06:29),TRUE,TRUE,FALSE,3,1
"439","A163FYZL8BTVX9","Aug 11 2013","14:06:29",19,6,"Switch",0,"Novel105",2,"Novel105",0,1429,"3","1",1,(Aug 11 2013 14:06:29),TRUE,TRUE,FALSE,3,1
"440","A163FYZL8BTVX9","Aug 11 2013","14:06:29",20,7,"Same",0,"Novel60",1,"Novel86",2,2181,"3","1",1,(Aug 11 2013 14:06:29),FALSE,TRUE,FALSE,3,1
"441","A164BJI1Z6EJCZ","Aug 12 2013","05:22:13",7,0,"Same",0,"Novel131",2,"Novel131",0,1496,"8","1",1,(Aug 12 2013 05:22:13),TRUE,TRUE,TRUE,8,1
"442","A164BJI1Z6EJCZ","Aug 12 2013","05:22:13",8,1,"Switch",1,"Novel78",1,"Novel124",0,4673,"8","1",1,(Aug 12 2013 05:22:13),FALSE,TRUE,FALSE,8,1
"443","A164BJI1Z6EJCZ","Aug 12 2013","05:22:13",11,2,"Same",1,"Novel105",0,"Novel105",0,1592,"8","1",1,(Aug 12 2013 05:22:13),TRUE,TRUE,FALSE,8,1
"444","A164BJI1Z6EJCZ","Aug 12 2013","05:22:13",12,3,"Switch",0,"Novel5",4,"Novel139",1,5898,"8","1",1,(Aug 12 2013 05:22:13),FALSE,TRUE,FALSE,8,1
"445","A164BJI1Z6EJCZ","Aug 12 2013","05:22:13",15,4,"Same",0,"Novel137",0,"Novel137",7,2108,"8","1",1,(Aug 12 2013 05:22:13),TRUE,TRUE,FALSE,8,1
"446","A164BJI1Z6EJCZ","Aug 12 2013","05:22:13",16,5,"Switch",1,"Novel24",6,"Novel59",1,3414,"8","1",1,(Aug 12 2013 05:22:13),FALSE,TRUE,FALSE,8,1
"447","A164BJI1Z6EJCZ","Aug 12 2013","05:22:13",19,6,"Same",1,"Novel84",2,"Novel84",2,2073,"8","1",1,(Aug 12 2013 05:22:13),TRUE,TRUE,FALSE,8,1
"448","A164BJI1Z6EJCZ","Aug 12 2013","05:22:13",20,7,"Switch",0,"Novel72",4,"Novel35",4,1673,"8","1",1,(Aug 12 2013 05:22:13),FALSE,TRUE,FALSE,8,1
"449","A164RBTU9AO3G7","Aug 11 2013","20:00:32",6,0,"Switch",1,"Novel41",5,"Novel109",2,3138,"8","0",1,(Aug 11 2013 20:00:32),FALSE,TRUE,TRUE,8,0
"450","A164RBTU9AO3G7","Aug 11 2013","20:00:32",8,1,"Same",0,"Novel79",6,"Novel79",2,2168,"8","0",1,(Aug 11 2013 20:00:32),TRUE,TRUE,FALSE,8,0
"451","A164RBTU9AO3G7","Aug 11 2013","20:00:32",10,2,"Switch",1,"Novel116",2,"Novel135",4,3827,"8","0",1,(Aug 11 2013 20:00:32),FALSE,TRUE,FALSE,8,0
"452","A164RBTU9AO3G7","Aug 11 2013","20:00:32",12,3,"Same",1,"Novel128",1,"Novel95",3,5801,"8","0",1,(Aug 11 2013 20:00:32),FALSE,TRUE,FALSE,8,0
"453","A164RBTU9AO3G7","Aug 11 2013","20:00:32",14,4,"Switch",0,"Novel131",1,"Novel124",5,5845,"8","0",1,(Aug 11 2013 20:00:32),FALSE,TRUE,FALSE,8,0
"454","A164RBTU9AO3G7","Aug 11 2013","20:00:32",16,5,"Same",1,"Novel40",4,"Novel40",4,2577,"8","0",1,(Aug 11 2013 20:00:32),TRUE,TRUE,FALSE,8,0
"455","A164RBTU9AO3G7","Aug 11 2013","20:00:32",18,6,"Switch",0,"Novel39",0,"Novel80",4,3822,"8","0",1,(Aug 11 2013 20:00:32),FALSE,TRUE,FALSE,8,0
"456","A164RBTU9AO3G7","Aug 11 2013","20:00:32",20,7,"Same",0,"Novel45",4,"Novel101",5,4539,"8","0",1,(Aug 11 2013 20:00:32),FALSE,TRUE,FALSE,8,0
"457","A1656W5DTX0RD8","Apr 09 2013","13:09:49",7,0,"Switch",1,"Novel13",1,"Novel13",1,1403,"2","1",1,(Apr 09 2013 13:09:49),TRUE,TRUE,TRUE,2,1
"458","A1656W5DTX0RD8","Apr 09 2013","13:09:49",8,1,"Same",1,"Novel96",1,"Novel96",1,968,"2","1",1,(Apr 09 2013 13:09:49),TRUE,TRUE,FALSE,2,1
"459","A1656W5DTX0RD8","Apr 09 2013","13:09:49",11,2,"Switch",1,"Novel121",0,"Novel61",1,2424,"2","1",1,(Apr 09 2013 13:09:49),FALSE,TRUE,FALSE,2,1
"460","A1656W5DTX0RD8","Apr 09 2013","13:09:49",12,3,"Same",0,"Novel19",0,"Novel19",1,1224,"2","1",1,(Apr 09 2013 13:09:49),TRUE,TRUE,FALSE,2,1
"461","A1656W5DTX0RD8","Apr 09 2013","13:09:49",15,4,"Switch",0,"Novel109",1,"Novel109",0,1135,"2","1",1,(Apr 09 2013 13:09:49),TRUE,TRUE,FALSE,2,1
"462","A1656W5DTX0RD8","Apr 09 2013","13:09:49",16,5,"Same",1,"Novel47",0,"Novel47",0,2076,"2","1",1,(Apr 09 2013 13:09:49),TRUE,TRUE,FALSE,2,1
"463","A1656W5DTX0RD8","Apr 09 2013","13:09:49",19,6,"Switch",0,"Novel49",1,"Novel49",0,1795,"2","1",1,(Apr 09 2013 13:09:49),TRUE,TRUE,FALSE,2,1
"464","A1656W5DTX0RD8","Apr 09 2013","13:09:49",20,7,"Same",0,"Novel82",1,"Novel82",0,1242,"2","1",1,(Apr 09 2013 13:09:49),TRUE,TRUE,FALSE,2,1
"465","A1662KZ3DCOHHJ","Aug 12 2013","07:23:13",13,0,"Switch",1,"Novel41",2,"Novel63",0,1694,"3","7",1,(Aug 12 2013 07:23:13),FALSE,TRUE,TRUE,3,7
"466","A1662KZ3DCOHHJ","Aug 12 2013","07:23:13",14,1,"Same",0,"Novel108",2,"Novel108",1,4904,"3","7",1,(Aug 12 2013 07:23:13),TRUE,TRUE,FALSE,3,7
"467","A1662KZ3DCOHHJ","Aug 12 2013","07:23:13",15,2,"Switch",0,"Novel61",0,"Novel61",2,1710,"3","7",1,(Aug 12 2013 07:23:13),TRUE,TRUE,FALSE,3,7
"468","A1662KZ3DCOHHJ","Aug 12 2013","07:23:13",16,3,"Same",0,"Novel78",1,"Novel105",1,3869,"3","7",1,(Aug 12 2013 07:23:13),FALSE,TRUE,FALSE,3,7
"469","A1662KZ3DCOHHJ","Aug 12 2013","07:23:13",17,4,"Switch",0,"Novel112",2,"Novel15",0,2676,"3","7",1,(Aug 12 2013 07:23:13),FALSE,TRUE,FALSE,3,7
"470","A1662KZ3DCOHHJ","Aug 12 2013","07:23:13",18,5,"Same",1,"Novel122",1,"Novel122",1,1490,"3","7",1,(Aug 12 2013 07:23:13),TRUE,TRUE,FALSE,3,7
"471","A1662KZ3DCOHHJ","Aug 12 2013","07:23:13",19,6,"Switch",1,"Novel40",2,"Novel40",2,2910,"3","7",1,(Aug 12 2013 07:23:13),TRUE,TRUE,FALSE,3,7
"472","A1662KZ3DCOHHJ","Aug 12 2013","07:23:13",20,7,"Same",1,"Novel84",1,"Novel84",1,1811,"3","7",1,(Aug 12 2013 07:23:13),TRUE,TRUE,FALSE,3,7
"473","A166A2M31CW2C7","Aug 11 2013","12:44:32",9,0,"Same",1,"Novel84",0,"Novel82",2,1091,"4","3",1,(Aug 11 2013 12:44:32),FALSE,TRUE,TRUE,4,3
"474","A166A2M31CW2C7","Aug 11 2013","12:44:32",10,1,"Switch",1,"Novel15",3,"Novel15",3,985,"4","3",1,(Aug 11 2013 12:44:32),TRUE,TRUE,FALSE,4,3
"475","A166A2M31CW2C7","Aug 11 2013","12:44:32",11,2,"Same",0,"Novel18",0,"Novel18",1,1198,"4","3",1,(Aug 11 2013 12:44:32),TRUE,TRUE,FALSE,4,3
"476","A166A2M31CW2C7","Aug 11 2013","12:44:32",12,3,"Switch",0,"Novel116",1,"Novel13",3,1196,"4","3",1,(Aug 11 2013 12:44:32),FALSE,TRUE,FALSE,4,3
"477","A166A2M31CW2C7","Aug 11 2013","12:44:32",17,4,"Same",1,"Novel70",0,"Novel60",2,59,"4","3",1,(Aug 11 2013 12:44:32),FALSE,TRUE,FALSE,4,3
"478","A166A2M31CW2C7","Aug 11 2013","12:44:32",18,5,"Switch",0,"Novel103",3,"Novel103",2,100,"4","3",1,(Aug 11 2013 12:44:32),TRUE,TRUE,FALSE,4,3
"479","A166A2M31CW2C7","Aug 11 2013","12:44:32",19,6,"Same",0,"Novel104",1,"Novel104",2,131,"4","3",1,(Aug 11 2013 12:44:32),TRUE,TRUE,FALSE,4,3
"480","A166A2M31CW2C7","Aug 11 2013","12:44:32",20,7,"Switch",1,"Novel22",0,"Novel28",2,9,"4","3",1,(Aug 11 2013 12:44:32),FALSE,TRUE,FALSE,4,3
"481","A166AQH78FSFBK","Aug 11 2013","12:06:30",9,0,"Switch",1,"Novel112",0,"Novel112",0,1363,"2","3",1,(Aug 11 2013 12:06:30),TRUE,TRUE,TRUE,2,3
"482","A166AQH78FSFBK","Aug 11 2013","12:06:30",10,1,"Same",1,"Novel38",1,"Novel78",0,1471,"2","3",1,(Aug 11 2013 12:06:30),FALSE,TRUE,FALSE,2,3
"483","A166AQH78FSFBK","Aug 11 2013","12:06:30",11,2,"Switch",1,"Novel126",1,"Novel126",1,1244,"2","3",1,(Aug 11 2013 12:06:30),TRUE,TRUE,FALSE,2,3
"484","A166AQH78FSFBK","Aug 11 2013","12:06:30",12,3,"Same",0,"Novel13",1,"Novel13",0,1060,"2","3",1,(Aug 11 2013 12:06:30),TRUE,TRUE,FALSE,2,3
"485","A166AQH78FSFBK","Aug 11 2013","12:06:30",17,4,"Switch",0,"Novel98",0,"Novel98",1,1507,"2","3",1,(Aug 11 2013 12:06:30),TRUE,TRUE,FALSE,2,3
"486","A166AQH78FSFBK","Aug 11 2013","12:06:30",18,5,"Same",0,"Novel22",1,"Novel22",0,1305,"2","3",1,(Aug 11 2013 12:06:30),TRUE,TRUE,FALSE,2,3
"487","A166AQH78FSFBK","Aug 11 2013","12:06:30",19,6,"Switch",0,"Novel106",0,"Novel106",1,1499,"2","3",1,(Aug 11 2013 12:06:30),TRUE,TRUE,FALSE,2,3
"488","A166AQH78FSFBK","Aug 11 2013","12:06:30",20,7,"Same",1,"Novel37",1,"Novel37",1,976,"2","3",1,(Aug 11 2013 12:06:30),TRUE,TRUE,FALSE,2,3
"489","A1679PPBZWKKQD","Aug 11 2013","13:42:11",7,0,"Switch",0,"Novel30",0,"Novel30",1,4000,"2","1",1,(Aug 11 2013 13:42:11),TRUE,TRUE,TRUE,2,1
"490","A1679PPBZWKKQD","Aug 11 2013","13:42:11",8,1,"Same",0,"Novel64",1,"Novel64",0,937,"2","1",1,(Aug 11 2013 13:42:11),TRUE,TRUE,FALSE,2,1
"491","A1679PPBZWKKQD","Aug 11 2013","13:42:11",11,2,"Switch",0,"Novel116",0,"Novel116",1,2538,"2","1",1,(Aug 11 2013 13:42:11),TRUE,TRUE,FALSE,2,1
"492","A1679PPBZWKKQD","Aug 11 2013","13:42:11",12,3,"Same",1,"Novel124",0,"Novel124",0,1409,"2","1",1,(Aug 11 2013 13:42:11),TRUE,TRUE,FALSE,2,1
"493","A1679PPBZWKKQD","Aug 11 2013","13:42:11",15,4,"Switch",1,"Novel58",1,"Novel58",1,794,"2","1",1,(Aug 11 2013 13:42:11),TRUE,TRUE,FALSE,2,1
"494","A1679PPBZWKKQD","Aug 11 2013","13:42:11",16,5,"Same",0,"Novel21",1,"Novel21",0,818,"2","1",1,(Aug 11 2013 13:42:11),TRUE,TRUE,FALSE,2,1
"495","A1679PPBZWKKQD","Aug 11 2013","13:42:11",19,6,"Switch",1,"Novel15",1,"Novel15",1,1023,"2","1",1,(Aug 11 2013 13:42:11),TRUE,TRUE,FALSE,2,1
"496","A1679PPBZWKKQD","Aug 11 2013","13:42:11",20,7,"Same",1,"Novel112",0,"Novel112",0,726,"2","1",1,(Aug 11 2013 13:42:11),TRUE,TRUE,FALSE,2,1
"497","A1685NC807SCZG","Apr 07 2013","09:24:51",9,0,"Same",0,"Novel111",1,"Novel111",2,1388,"3","3",1,(Apr 07 2013 09:24:51),TRUE,TRUE,TRUE,3,3
"498","A1685NC807SCZG","Apr 07 2013","09:24:51",10,1,"Switch",1,"Novel129",1,"Novel2",2,3212,"3","3",1,(Apr 07 2013 09:24:51),FALSE,TRUE,FALSE,3,3
"499","A1685NC807SCZG","Apr 07 2013","09:24:51",11,2,"Same",1,"Novel105",1,"Novel105",1,1091,"3","3",1,(Apr 07 2013 09:24:51),TRUE,TRUE,FALSE,3,3
"500","A1685NC807SCZG","Apr 07 2013","09:24:51",12,3,"Switch",0,"Novel93",0,"Novel93",2,3053,"3","3",1,(Apr 07 2013 09:24:51),TRUE,TRUE,FALSE,3,3
"501","A1685NC807SCZG","Apr 07 2013","09:24:51",17,4,"Same",1,"Novel75",2,"Novel75",2,2828,"3","3",1,(Apr 07 2013 09:24:51),TRUE,TRUE,FALSE,3,3
"502","A1685NC807SCZG","Apr 07 2013","09:24:51",18,5,"Switch",1,"Novel107",0,"Novel107",0,1995,"3","3",1,(Apr 07 2013 09:24:51),TRUE,TRUE,FALSE,3,3
"503","A1685NC807SCZG","Apr 07 2013","09:24:51",19,6,"Same",0,"Novel62",0,"Novel62",1,1344,"3","3",1,(Apr 07 2013 09:24:51),TRUE,TRUE,FALSE,3,3
"504","A1685NC807SCZG","Apr 07 2013","09:24:51",20,7,"Switch",0,"Novel99",0,"Novel99",1,3949,"3","3",1,(Apr 07 2013 09:24:51),TRUE,TRUE,FALSE,3,3
"505","A16B132DDD6ZK3","Aug 11 2013","13:32:06",13,0,"Switch",0,"Novel59",2,"Novel38",0,1381,"4","7",1,(Aug 11 2013 13:32:06),FALSE,TRUE,TRUE,4,7
"506","A16B132DDD6ZK3","Aug 11 2013","13:32:06",14,1,"Same",0,"Novel119",3,"Novel119",1,2610,"4","7",1,(Aug 11 2013 13:32:06),TRUE,TRUE,FALSE,4,7
"507","A16B132DDD6ZK3","Aug 11 2013","13:32:06",15,2,"Switch",0,"Novel98",1,"Novel27",3,2881,"4","7",1,(Aug 11 2013 13:32:06),FALSE,TRUE,FALSE,4,7
"508","A16B132DDD6ZK3","Aug 11 2013","13:32:06",16,3,"Same",1,"Novel5",3,"Novel5",3,1261,"4","7",1,(Aug 11 2013 13:32:06),TRUE,TRUE,FALSE,4,7
"509","A16B132DDD6ZK3","Aug 11 2013","13:32:06",17,4,"Switch",1,"Novel1",2,"Novel1",2,1135,"4","7",1,(Aug 11 2013 13:32:06),TRUE,TRUE,FALSE,4,7
"510","A16B132DDD6ZK3","Aug 11 2013","13:32:06",18,5,"Same",1,"Novel24",0,"Novel24",0,780,"4","7",1,(Aug 11 2013 13:32:06),TRUE,TRUE,FALSE,4,7
"511","A16B132DDD6ZK3","Aug 11 2013","13:32:06",19,6,"Switch",1,"Novel93",3,"Novel66",1,3418,"4","7",1,(Aug 11 2013 13:32:06),FALSE,TRUE,FALSE,4,7
"512","A16B132DDD6ZK3","Aug 11 2013","13:32:06",20,7,"Same",0,"Novel63",0,"Novel32",3,1551,"4","7",1,(Aug 11 2013 13:32:06),FALSE,TRUE,FALSE,4,7
"513","A16KGGZY2VZ9O5","Aug 11 2013","15:13:11",13,0,"Switch",0,"Novel131",2,"Novel131",0,3473,"3","7",1,(Aug 11 2013 15:13:11),TRUE,TRUE,TRUE,3,7
"514","A16KGGZY2VZ9O5","Aug 11 2013","15:13:11",14,1,"Same",1,"Novel72",0,"Novel72",0,1447,"3","7",1,(Aug 11 2013 15:13:11),TRUE,TRUE,FALSE,3,7
"515","A16KGGZY2VZ9O5","Aug 11 2013","15:13:11",15,2,"Switch",1,"Novel79",2,"Novel79",2,2987,"3","7",1,(Aug 11 2013 15:13:11),TRUE,TRUE,FALSE,3,7
"516","A16KGGZY2VZ9O5","Aug 11 2013","15:13:11",16,3,"Same",0,"Novel47",2,"Novel47",1,1531,"3","7",1,(Aug 11 2013 15:13:11),TRUE,TRUE,FALSE,3,7
"517","A16KGGZY2VZ9O5","Aug 11 2013","15:13:11",17,4,"Switch",1,"Novel46",0,"Novel46",0,3424,"3","7",1,(Aug 11 2013 15:13:11),TRUE,TRUE,FALSE,3,7
"518","A16KGGZY2VZ9O5","Aug 11 2013","15:13:11",18,5,"Same",0,"Novel53",0,"Novel53",2,1853,"3","7",1,(Aug 11 2013 15:13:11),TRUE,TRUE,FALSE,3,7
"519","A16KGGZY2VZ9O5","Aug 11 2013","15:13:11",19,6,"Switch",0,"Novel12",0,"Novel40",2,2692,"3","7",1,(Aug 11 2013 15:13:11),FALSE,TRUE,FALSE,3,7
"520","A16KGGZY2VZ9O5","Aug 11 2013","15:13:11",20,7,"Same",1,"Novel4",1,"Novel4",1,1651,"3","7",1,(Aug 11 2013 15:13:11),TRUE,TRUE,FALSE,3,7
"521","A16MOH9FHLMCKD","Apr 03 2013","19:12:39",7,0,"Same",0,"Novel88",1,"Novel88",2,1964,"4","1",1,(Apr 03 2013 19:12:39),TRUE,TRUE,TRUE,4,1
"522","A16MOH9FHLMCKD","Apr 03 2013","19:12:39",8,1,"Switch",1,"Novel19",1,"Novel19",1,3440,"4","1",1,(Apr 03 2013 19:12:39),TRUE,TRUE,FALSE,4,1
"523","A16MOH9FHLMCKD","Apr 03 2013","19:12:39",11,2,"Same",0,"Novel4",2,"Novel4",0,1083,"4","1",1,(Apr 03 2013 19:12:39),TRUE,TRUE,FALSE,4,1
"524","A16MOH9FHLMCKD","Apr 03 2013","19:12:39",12,3,"Switch",0,"Novel139",3,"Novel25",2,2500,"4","1",1,(Apr 03 2013 19:12:39),FALSE,TRUE,FALSE,4,1
"525","A16MOH9FHLMCKD","Apr 03 2013","19:12:39",15,4,"Same",1,"Novel59",2,"Novel59",2,3474,"4","1",1,(Apr 03 2013 19:12:39),TRUE,TRUE,FALSE,4,1
"526","A16MOH9FHLMCKD","Apr 03 2013","19:12:39",16,5,"Switch",0,"Novel32",2,"Novel32",0,2623,"4","1",1,(Apr 03 2013 19:12:39),TRUE,TRUE,FALSE,4,1
"527","A16MOH9FHLMCKD","Apr 03 2013","19:12:39",19,6,"Same",1,"Novel103",1,"Novel96",3,2150,"4","1",1,(Apr 03 2013 19:12:39),FALSE,TRUE,FALSE,4,1
"528","A16MOH9FHLMCKD","Apr 03 2013","19:12:39",20,7,"Switch",1,"Novel71",1,"Novel22",0,2904,"4","1",1,(Apr 03 2013 19:12:39),FALSE,TRUE,FALSE,4,1
"529","A16X30JQ00DPUZ","Aug 12 2013","07:05:47",6,0,"Switch",1,"Novel56",2,"Novel56",2,2065,"3","0",1,(Aug 12 2013 07:05:47),TRUE,TRUE,TRUE,3,0
"530","A16X30JQ00DPUZ","Aug 12 2013","07:05:47",8,1,"Same",1,"Novel124",1,"Novel124",1,1018,"3","0",1,(Aug 12 2013 07:05:47),TRUE,TRUE,FALSE,3,0
"531","A16X30JQ00DPUZ","Aug 12 2013","07:05:47",10,2,"Switch",0,"Novel42",1,"Novel42",0,1909,"3","0",1,(Aug 12 2013 07:05:47),TRUE,TRUE,FALSE,3,0
"532","A16X30JQ00DPUZ","Aug 12 2013","07:05:47",12,3,"Same",0,"Novel73",1,"Novel73",0,1046,"3","0",1,(Aug 12 2013 07:05:47),TRUE,TRUE,FALSE,3,0
"533","A16X30JQ00DPUZ","Aug 12 2013","07:05:47",14,4,"Switch",0,"Novel137",2,"Novel137",0,1336,"3","0",1,(Aug 12 2013 07:05:47),TRUE,TRUE,FALSE,3,0
"534","A16X30JQ00DPUZ","Aug 12 2013","07:05:47",16,5,"Same",0,"Novel53",0,"Novel53",1,834,"3","0",1,(Aug 12 2013 07:05:47),TRUE,TRUE,FALSE,3,0
"535","A16X30JQ00DPUZ","Aug 12 2013","07:05:47",18,6,"Switch",1,"Novel7",2,"Novel62",0,1399,"3","0",1,(Aug 12 2013 07:05:47),FALSE,TRUE,FALSE,3,0
"536","A16X30JQ00DPUZ","Aug 12 2013","07:05:47",20,7,"Same",1,"Novel33",0,"Novel33",0,622,"3","0",1,(Aug 12 2013 07:05:47),TRUE,TRUE,FALSE,3,0
"537","A16XXC7Y0KND8V","Aug 11 2013","12:20:03",6,0,"Switch",0,"Novel88",2,"Novel88",3,8692,"4","0",1,(Aug 11 2013 12:20:03),TRUE,TRUE,TRUE,4,0
"538","A16XXC7Y0KND8V","Aug 11 2013","12:20:03",8,1,"Same",0,"Novel16",1,"Novel7",2,7360,"4","0",1,(Aug 11 2013 12:20:03),FALSE,TRUE,FALSE,4,0
"539","A16XXC7Y0KND8V","Aug 11 2013","12:20:03",10,2,"Switch",1,"Novel3",1,"Novel3",1,11993,"4","0",1,(Aug 11 2013 12:20:03),TRUE,TRUE,FALSE,4,0
"540","A16XXC7Y0KND8V","Aug 11 2013","12:20:03",12,3,"Same",1,"Novel74",1,"Novel74",1,10700,"4","0",1,(Aug 11 2013 12:20:03),TRUE,TRUE,FALSE,4,0
"541","A16XXC7Y0KND8V","Aug 11 2013","12:20:03",14,4,"Switch",1,"Novel136",1,"Novel136",1,9299,"4","0",1,(Aug 11 2013 12:20:03),TRUE,TRUE,FALSE,4,0
"542","A16XXC7Y0KND8V","Aug 11 2013","12:20:03",16,5,"Same",0,"Novel92",0,"Novel92",3,9551,"4","0",1,(Aug 11 2013 12:20:03),TRUE,TRUE,FALSE,4,0
"543","A16XXC7Y0KND8V","Aug 11 2013","12:20:03",18,6,"Switch",0,"Novel38",0,"Novel38",3,11847,"4","0",1,(Aug 11 2013 12:20:03),TRUE,TRUE,FALSE,4,0
"544","A16XXC7Y0KND8V","Aug 11 2013","12:20:03",20,7,"Same",1,"Novel69",2,"Novel69",2,13372,"4","0",1,(Aug 11 2013 12:20:03),TRUE,TRUE,FALSE,4,0
"545","A170DBZ0KXC0N3","Aug 12 2013","06:57:13",6,0,"Switch",1,"Novel14",1,"Novel14",1,2598,"3","0",1,(Aug 12 2013 06:57:13),TRUE,TRUE,TRUE,3,0
"546","A170DBZ0KXC0N3","Aug 12 2013","06:57:13",8,1,"Same",0,"Novel6",2,"Novel17",2,1406,"3","0",1,(Aug 12 2013 06:57:13),FALSE,TRUE,FALSE,3,0
"547","A170DBZ0KXC0N3","Aug 12 2013","06:57:13",10,2,"Switch",0,"Novel113",1,"Novel113",0,20440,"3","0",1,(Aug 12 2013 06:57:13),TRUE,TRUE,FALSE,3,0
"548","A170DBZ0KXC0N3","Aug 12 2013","06:57:13",12,3,"Same",1,"Novel82",2,"Novel126",1,1688,"3","0",1,(Aug 12 2013 06:57:13),FALSE,TRUE,FALSE,3,0
"549","A170DBZ0KXC0N3","Aug 12 2013","06:57:13",14,4,"Switch",1,"Novel100",1,"Novel100",1,1820,"3","0",1,(Aug 12 2013 06:57:13),TRUE,TRUE,FALSE,3,0
"550","A170DBZ0KXC0N3","Aug 12 2013","06:57:13",16,5,"Same",0,"Novel66",1,"Novel108",1,2117,"3","0",1,(Aug 12 2013 06:57:13),FALSE,TRUE,FALSE,3,0
"551","A170DBZ0KXC0N3","Aug 12 2013","06:57:13",18,6,"Switch",0,"Novel38",2,"Novel38",0,845,"3","0",1,(Aug 12 2013 06:57:13),TRUE,TRUE,FALSE,3,0
"552","A170DBZ0KXC0N3","Aug 12 2013","06:57:13",20,7,"Same",1,"Novel139",0,"Novel51",1,911,"3","0",1,(Aug 12 2013 06:57:13),FALSE,TRUE,FALSE,3,0
"553","A171S8E9IFSHH2","Aug 11 2013","13:34:25",7,0,"Switch",1,"Novel67",0,"Novel60",1,1238,"8","1",1,(Aug 11 2013 13:34:25),FALSE,TRUE,TRUE,8,1
"554","A171S8E9IFSHH2","Aug 11 2013","13:34:25",8,1,"Same",1,"Novel20",1,"Novel13",6,875,"8","1",1,(Aug 11 2013 13:34:25),FALSE,TRUE,FALSE,8,1
"555","A171S8E9IFSHH2","Aug 11 2013","13:34:25",11,2,"Switch",0,"Novel114",6,"Novel108",6,506,"8","1",1,(Aug 11 2013 13:34:25),FALSE,TRUE,FALSE,8,1
"556","A171S8E9IFSHH2","Aug 11 2013","13:34:25",12,3,"Same",0,"Novel124",3,"Novel124",6,2213,"8","1",1,(Aug 11 2013 13:34:25),TRUE,TRUE,FALSE,8,1
"557","A171S8E9IFSHH2","Aug 11 2013","13:34:25",15,4,"Switch",0,"Novel95",0,"Novel123",0,4305,"8","1",1,(Aug 11 2013 13:34:25),FALSE,TRUE,FALSE,8,1
"558","A171S8E9IFSHH2","Aug 11 2013","13:34:25",16,5,"Same",1,"Novel92",5,"Novel127",7,1069,"8","1",1,(Aug 11 2013 13:34:25),FALSE,TRUE,FALSE,8,1
"559","A171S8E9IFSHH2","Aug 11 2013","13:34:25",19,6,"Switch",1,"Novel57",5,"Novel25",4,2087,"8","1",1,(Aug 11 2013 13:34:25),FALSE,TRUE,FALSE,8,1
"560","A171S8E9IFSHH2","Aug 11 2013","13:34:25",20,7,"Same",0,"Novel31",2,"Novel125",2,717,"8","1",1,(Aug 11 2013 13:34:25),FALSE,TRUE,FALSE,8,1
"561","A172LXG14EKDC6","Aug 11 2013","18:04:34",7,0,"Switch",1,"Novel5",4,"Novel61",1,3624,"8","1",1,(Aug 11 2013 18:04:34),FALSE,TRUE,TRUE,8,1
"562","A172LXG14EKDC6","Aug 11 2013","18:04:34",8,1,"Same",1,"Novel87",1,"Novel87",1,6787,"8","1",1,(Aug 11 2013 18:04:34),TRUE,TRUE,FALSE,8,1
"563","A172LXG14EKDC6","Aug 11 2013","18:04:34",11,2,"Switch",0,"Novel96",6,"Novel97",0,4652,"8","1",1,(Aug 11 2013 18:04:34),FALSE,TRUE,FALSE,8,1
"564","A172LXG14EKDC6","Aug 11 2013","18:04:34",12,3,"Same",0,"Novel32",2,"Novel118",3,7220,"8","1",1,(Aug 11 2013 18:04:34),FALSE,TRUE,FALSE,8,1
"565","A172LXG14EKDC6","Aug 11 2013","18:04:34",15,4,"Switch",0,"Novel70",1,"Novel55",7,4111,"8","1",1,(Aug 11 2013 18:04:34),FALSE,TRUE,FALSE,8,1
"566","A172LXG14EKDC6","Aug 11 2013","18:04:34",16,5,"Same",0,"Novel43",2,"Novel92",3,2196,"8","1",1,(Aug 11 2013 18:04:34),FALSE,TRUE,FALSE,8,1
"567","A172LXG14EKDC6","Aug 11 2013","18:04:34",19,6,"Switch",1,"Novel86",1,"Novel64",3,3527,"8","1",1,(Aug 11 2013 18:04:34),FALSE,TRUE,FALSE,8,1
"568","A172LXG14EKDC6","Aug 11 2013","18:04:34",20,7,"Same",1,"Novel134",7,"Novel27",6,3138,"8","1",1,(Aug 11 2013 18:04:34),FALSE,TRUE,FALSE,8,1
"569","A1762YZ66AIZ9C","Apr 05 2013","09:03:22",6,0,"Switch",1,"Novel105",2,"Novel67",0,8193,"3","0",1,(Apr 05 2013 09:03:22),FALSE,TRUE,TRUE,3,0
"570","A1762YZ66AIZ9C","Apr 05 2013","09:03:22",8,1,"Same",1,"Novel130",2,"Novel58",1,4344,"3","0",1,(Apr 05 2013 09:03:22),FALSE,TRUE,FALSE,3,0
"571","A1762YZ66AIZ9C","Apr 05 2013","09:03:22",10,2,"Switch",0,"Novel2",1,"Novel2",0,2760,"3","0",1,(Apr 05 2013 09:03:22),TRUE,TRUE,FALSE,3,0
"572","A1762YZ66AIZ9C","Apr 05 2013","09:03:22",12,3,"Same",0,"Novel29",0,"Novel29",2,2641,"3","0",1,(Apr 05 2013 09:03:22),TRUE,TRUE,FALSE,3,0
"573","A1762YZ66AIZ9C","Apr 05 2013","09:03:22",14,4,"Switch",1,"Novel16",2,"Novel136",1,3689,"3","0",1,(Apr 05 2013 09:03:22),FALSE,TRUE,FALSE,3,0
"574","A1762YZ66AIZ9C","Apr 05 2013","09:03:22",16,5,"Same",1,"Novel49",2,"Novel23",1,1730,"3","0",1,(Apr 05 2013 09:03:22),FALSE,TRUE,FALSE,3,0
"575","A1762YZ66AIZ9C","Apr 05 2013","09:03:22",18,6,"Switch",0,"Novel54",2,"Novel51",0,3419,"3","0",1,(Apr 05 2013 09:03:22),FALSE,TRUE,FALSE,3,0
"576","A1762YZ66AIZ9C","Apr 05 2013","09:03:22",20,7,"Same",0,"Novel14",0,"Novel14",2,1496,"3","0",1,(Apr 05 2013 09:03:22),TRUE,TRUE,FALSE,3,0
"577","A17RRXPISOSPVG","Aug 12 2013","04:53:19",7,0,"Switch",0,"Novel1",0,"Novel1",1,2228,"3","1",1,(Aug 12 2013 04:53:19),TRUE,TRUE,TRUE,3,1
"578","A17RRXPISOSPVG","Aug 12 2013","04:53:19",8,1,"Same",1,"Novel99",1,"Novel99",1,1121,"3","1",1,(Aug 12 2013 04:53:19),TRUE,TRUE,FALSE,3,1
"579","A17RRXPISOSPVG","Aug 12 2013","04:53:19",11,2,"Switch",1,"Novel93",2,"Novel93",2,1257,"3","1",1,(Aug 12 2013 04:53:19),TRUE,TRUE,FALSE,3,1
"580","A17RRXPISOSPVG","Aug 12 2013","04:53:19",12,3,"Same",0,"Novel136",0,"Novel136",2,1188,"3","1",1,(Aug 12 2013 04:53:19),TRUE,TRUE,FALSE,3,1
"581","A17RRXPISOSPVG","Aug 12 2013","04:53:19",15,4,"Switch",1,"Novel5",2,"Novel5",2,1162,"3","1",1,(Aug 12 2013 04:53:19),TRUE,TRUE,FALSE,3,1
"582","A17RRXPISOSPVG","Aug 12 2013","04:53:19",16,5,"Same",1,"Novel131",0,"Novel131",0,1289,"3","1",1,(Aug 12 2013 04:53:19),TRUE,TRUE,FALSE,3,1
"583","A17RRXPISOSPVG","Aug 12 2013","04:53:19",19,6,"Switch",0,"Novel39",1,"Novel39",0,2625,"3","1",1,(Aug 12 2013 04:53:19),TRUE,TRUE,FALSE,3,1
"584","A17RRXPISOSPVG","Aug 12 2013","04:53:19",20,7,"Same",0,"Novel121",0,"Novel121",2,1809,"3","1",1,(Aug 12 2013 04:53:19),TRUE,TRUE,FALSE,3,1
"585","A17SG541LUM6T9","Aug 12 2013","03:24:04",7,0,"Switch",0,"Novel52",1,"Novel52",2,1046,"4","1",1,(Aug 12 2013 03:24:04),TRUE,TRUE,TRUE,4,1
"586","A17SG541LUM6T9","Aug 12 2013","03:24:04",8,1,"Same",1,"Novel92",2,"Novel92",2,826,"4","1",1,(Aug 12 2013 03:24:04),TRUE,TRUE,FALSE,4,1
"587","A17SG541LUM6T9","Aug 12 2013","03:24:04",11,2,"Switch",1,"Novel62",3,"Novel91",1,916,"4","1",1,(Aug 12 2013 03:24:04),FALSE,TRUE,FALSE,4,1
"588","A17SG541LUM6T9","Aug 12 2013","03:24:04",12,3,"Same",1,"Novel75",1,"Novel75",1,1391,"4","1",1,(Aug 12 2013 03:24:04),TRUE,TRUE,FALSE,4,1
"589","A17SG541LUM6T9","Aug 12 2013","03:24:04",15,4,"Switch",0,"Novel121",2,"Novel101",2,2137,"4","1",1,(Aug 12 2013 03:24:04),FALSE,TRUE,FALSE,4,1
"590","A17SG541LUM6T9","Aug 12 2013","03:24:04",16,5,"Same",0,"Novel25",3,"Novel25",2,1683,"4","1",1,(Aug 12 2013 03:24:04),TRUE,TRUE,FALSE,4,1
"591","A17SG541LUM6T9","Aug 12 2013","03:24:04",19,6,"Switch",1,"Novel31",0,"Novel63",3,3437,"4","1",1,(Aug 12 2013 03:24:04),FALSE,TRUE,FALSE,4,1
"592","A17SG541LUM6T9","Aug 12 2013","03:24:04",20,7,"Same",0,"Novel107",2,"Novel107",3,1976,"4","1",1,(Aug 12 2013 03:24:04),TRUE,TRUE,FALSE,4,1
"593","A183HI4ZV77GJU","Aug 11 2013","17:59:28",6,0,"Switch",1,"Novel42",0,"Novel42",0,4323,"2","0",1,(Aug 11 2013 17:59:28),TRUE,TRUE,TRUE,2,0
"594","A183HI4ZV77GJU","Aug 11 2013","17:59:28",8,1,"Same",0,"Novel109",1,"Novel109",0,1360,"2","0",1,(Aug 11 2013 17:59:28),TRUE,TRUE,FALSE,2,0
"595","A183HI4ZV77GJU","Aug 11 2013","17:59:28",10,2,"Switch",1,"Novel4",0,"Novel4",0,1182,"2","0",1,(Aug 11 2013 17:59:28),TRUE,TRUE,FALSE,2,0
"596","A183HI4ZV77GJU","Aug 11 2013","17:59:28",12,3,"Same",1,"Novel118",1,"Novel118",1,1258,"2","0",1,(Aug 11 2013 17:59:28),TRUE,TRUE,FALSE,2,0
"597","A183HI4ZV77GJU","Aug 11 2013","17:59:28",14,4,"Switch",0,"Novel5",1,"Novel5",0,997,"2","0",1,(Aug 11 2013 17:59:28),TRUE,TRUE,FALSE,2,0
"598","A183HI4ZV77GJU","Aug 11 2013","17:59:28",16,5,"Same",0,"Novel95",0,"Novel95",1,983,"2","0",1,(Aug 11 2013 17:59:28),TRUE,TRUE,FALSE,2,0
"599","A183HI4ZV77GJU","Aug 11 2013","17:59:28",18,6,"Switch",0,"Novel78",0,"Novel78",1,706,"2","0",1,(Aug 11 2013 17:59:28),TRUE,TRUE,FALSE,2,0
"600","A183HI4ZV77GJU","Aug 11 2013","17:59:28",20,7,"Same",1,"Novel112",1,"Novel112",1,914,"2","0",1,(Aug 11 2013 17:59:28),TRUE,TRUE,FALSE,2,0
"601","A18870IXIQMS4","Aug 11 2013","14:07:43",7,0,"Switch",1,"Novel42",0,"Novel42",0,3101,"3","1",1,(Aug 11 2013 14:07:43),TRUE,TRUE,TRUE,3,1
"602","A18870IXIQMS4","Aug 11 2013","14:07:43",8,1,"Same",1,"Novel53",1,"Novel53",1,1661,"3","1",1,(Aug 11 2013 14:07:43),TRUE,TRUE,FALSE,3,1
"603","A18870IXIQMS4","Aug 11 2013","14:07:43",11,2,"Switch",0,"Novel117",0,"Novel117",2,3653,"3","1",1,(Aug 11 2013 14:07:43),TRUE,TRUE,FALSE,3,1
"604","A18870IXIQMS4","Aug 11 2013","14:07:43",12,3,"Same",1,"Novel82",0,"Novel82",0,2326,"3","1",1,(Aug 11 2013 14:07:43),TRUE,TRUE,FALSE,3,1
"605","A18870IXIQMS4","Aug 11 2013","14:07:43",15,4,"Switch",1,"Novel90",2,"Novel133",0,4154,"3","1",1,(Aug 11 2013 14:07:43),FALSE,TRUE,FALSE,3,1
"606","A18870IXIQMS4","Aug 11 2013","14:07:43",16,5,"Same",0,"Novel94",1,"Novel94",2,2111,"3","1",1,(Aug 11 2013 14:07:43),TRUE,TRUE,FALSE,3,1
"607","A18870IXIQMS4","Aug 11 2013","14:07:43",19,6,"Switch",0,"Novel18",0,"Novel57",0,2643,"3","1",1,(Aug 11 2013 14:07:43),FALSE,TRUE,FALSE,3,1
"608","A18870IXIQMS4","Aug 11 2013","14:07:43",20,7,"Same",0,"Novel3",1,"Novel3",0,1645,"3","1",1,(Aug 11 2013 14:07:43),TRUE,TRUE,FALSE,3,1
"609","A18ACKRAVMM8D8","Apr 08 2013","17:23:30",13,0,"Switch",0,"Novel13",0,"Novel13",1,3087,"2","7",1,(Apr 08 2013 17:23:30),TRUE,TRUE,TRUE,2,7
"610","A18ACKRAVMM8D8","Apr 08 2013","17:23:30",14,1,"Same",0,"Novel100",0,"Novel100",1,1667,"2","7",1,(Apr 08 2013 17:23:30),TRUE,TRUE,FALSE,2,7
"611","A18ACKRAVMM8D8","Apr 08 2013","17:23:30",15,2,"Switch",1,"Novel36",0,"Novel36",0,1798,"2","7",1,(Apr 08 2013 17:23:30),TRUE,TRUE,FALSE,2,7
"612","A18ACKRAVMM8D8","Apr 08 2013","17:23:30",16,3,"Same",1,"Novel73",1,"Novel73",1,787,"2","7",1,(Apr 08 2013 17:23:30),TRUE,TRUE,FALSE,2,7
"613","A18ACKRAVMM8D8","Apr 08 2013","17:23:30",17,4,"Switch",0,"Novel64",0,"Novel64",1,2157,"2","7",1,(Apr 08 2013 17:23:30),TRUE,TRUE,FALSE,2,7
"614","A18ACKRAVMM8D8","Apr 08 2013","17:23:30",18,5,"Same",1,"Novel135",0,"Novel135",0,1035,"2","7",1,(Apr 08 2013 17:23:30),TRUE,TRUE,FALSE,2,7
"615","A18ACKRAVMM8D8","Apr 08 2013","17:23:30",19,6,"Switch",1,"Novel90",0,"Novel90",0,1432,"2","7",1,(Apr 08 2013 17:23:30),TRUE,TRUE,FALSE,2,7
"616","A18ACKRAVMM8D8","Apr 08 2013","17:23:30",20,7,"Same",0,"Novel130",1,"Novel130",0,1006,"2","7",1,(Apr 08 2013 17:23:30),TRUE,TRUE,FALSE,2,7
"617","A18GWZX97NTUY1","Aug 12 2013","10:39:58",13,0,"Switch",1,"Novel118",2,"Novel118",2,3170,"3","7",1,(Aug 12 2013 10:39:58),TRUE,TRUE,TRUE,3,7
"618","A18GWZX97NTUY1","Aug 12 2013","10:39:58",14,1,"Same",0,"Novel9",1,"Novel9",2,1406,"3","7",1,(Aug 12 2013 10:39:58),TRUE,TRUE,FALSE,3,7
"619","A18GWZX97NTUY1","Aug 12 2013","10:39:58",15,2,"Switch",0,"Novel4",2,"Novel4",0,1033,"3","7",1,(Aug 12 2013 10:39:58),TRUE,TRUE,FALSE,3,7
"620","A18GWZX97NTUY1","Aug 12 2013","10:39:58",16,3,"Same",0,"Novel90",0,"Novel90",1,1002,"3","7",1,(Aug 12 2013 10:39:58),TRUE,TRUE,FALSE,3,7
"621","A18GWZX97NTUY1","Aug 12 2013","10:39:58",17,4,"Switch",0,"Novel84",1,"Novel84",0,1237,"3","7",1,(Aug 12 2013 10:39:58),TRUE,TRUE,FALSE,3,7
"622","A18GWZX97NTUY1","Aug 12 2013","10:39:58",18,5,"Same",1,"Novel5",1,"Novel5",1,1647,"3","7",1,(Aug 12 2013 10:39:58),TRUE,TRUE,FALSE,3,7
"623","A18GWZX97NTUY1","Aug 12 2013","10:39:58",19,6,"Switch",1,"Novel33",0,"Novel33",0,1856,"3","7",1,(Aug 12 2013 10:39:58),TRUE,TRUE,FALSE,3,7
"624","A18GWZX97NTUY1","Aug 12 2013","10:39:58",20,7,"Same",1,"Novel91",2,"Novel91",2,1042,"3","7",1,(Aug 12 2013 10:39:58),TRUE,TRUE,FALSE,3,7
"625","A18T7E73TNGOKP","Aug 11 2013","18:00:34",7,0,"Switch",1,"Novel97",1,"Novel97",1,1459,"2","1",1,(Aug 11 2013 18:00:34),TRUE,TRUE,TRUE,2,1
"626","A18T7E73TNGOKP","Aug 11 2013","18:00:34",8,1,"Same",0,"Novel50",0,"Novel50",1,624,"2","1",1,(Aug 11 2013 18:00:34),TRUE,TRUE,FALSE,2,1
"627","A18T7E73TNGOKP","Aug 11 2013","18:00:34",11,2,"Switch",0,"Novel101",1,"Novel16",1,1226,"2","1",1,(Aug 11 2013 18:00:34),FALSE,TRUE,FALSE,2,1
"628","A18T7E73TNGOKP","Aug 11 2013","18:00:34",12,3,"Same",1,"Novel42",0,"Novel42",0,856,"2","1",1,(Aug 11 2013 18:00:34),TRUE,TRUE,FALSE,2,1
"629","A18T7E73TNGOKP","Aug 11 2013","18:00:34",15,4,"Switch",1,"Novel134",0,"Novel124",1,1825,"2","1",1,(Aug 11 2013 18:00:34),FALSE,TRUE,FALSE,2,1
"630","A18T7E73TNGOKP","Aug 11 2013","18:00:34",16,5,"Same",1,"Novel129",0,"Novel129",0,1028,"2","1",1,(Aug 11 2013 18:00:34),TRUE,TRUE,FALSE,2,1
"631","A18T7E73TNGOKP","Aug 11 2013","18:00:34",19,6,"Switch",0,"Novel82",0,"Novel82",1,834,"2","1",1,(Aug 11 2013 18:00:34),TRUE,TRUE,FALSE,2,1
"632","A18T7E73TNGOKP","Aug 11 2013","18:00:34",20,7,"Same",0,"Novel44",0,"Novel20",0,569,"2","1",1,(Aug 11 2013 18:00:34),FALSE,TRUE,FALSE,2,1
"633","A18WKVB9OP0FAR","Apr 03 2013","04:25:36",13,0,"Switch",1,"Novel129",1,"Novel117",7,1948,"8","7",1,(Apr 03 2013 04:25:36),FALSE,TRUE,TRUE,8,7
"634","A18WKVB9OP0FAR","Apr 03 2013","04:25:36",14,1,"Same",0,"Novel130",2,"Novel130",5,2713,"8","7",1,(Apr 03 2013 04:25:36),TRUE,TRUE,FALSE,8,7
"635","A18WKVB9OP0FAR","Apr 03 2013","04:25:36",15,2,"Switch",1,"Novel39",4,"Novel118",6,8089,"8","7",1,(Apr 03 2013 04:25:36),FALSE,TRUE,FALSE,8,7
"636","A18WKVB9OP0FAR","Apr 03 2013","04:25:36",16,3,"Same",1,"Novel18",1,"Novel18",1,1879,"8","7",1,(Apr 03 2013 04:25:36),TRUE,TRUE,FALSE,8,7
"637","A18WKVB9OP0FAR","Apr 03 2013","04:25:36",17,4,"Switch",0,"Novel135",3,"Novel135",6,7080,"8","7",1,(Apr 03 2013 04:25:36),TRUE,TRUE,FALSE,8,7
"638","A18WKVB9OP0FAR","Apr 03 2013","04:25:36",18,5,"Same",0,"Novel57",7,"Novel57",6,3565,"8","7",1,(Apr 03 2013 04:25:36),TRUE,TRUE,FALSE,8,7
"639","A18WKVB9OP0FAR","Apr 03 2013","04:25:36",19,6,"Switch",0,"Novel109",5,"Novel109",3,5427,"8","7",1,(Apr 03 2013 04:25:36),TRUE,TRUE,FALSE,8,7
"640","A18WKVB9OP0FAR","Apr 03 2013","04:25:36",20,7,"Same",1,"Novel25",3,"Novel25",3,1700,"8","7",1,(Apr 03 2013 04:25:36),TRUE,TRUE,FALSE,8,7
"641","A193HA5BOZWJ6P","Aug 11 2013","18:37:58",7,0,"Same",0,"Novel24",1,"Novel24",0,1923,"2","1",1,(Aug 11 2013 18:37:58),TRUE,TRUE,TRUE,2,1
"642","A193HA5BOZWJ6P","Aug 11 2013","18:37:58",8,1,"Switch",1,"Novel114",0,"Novel114",0,1983,"2","1",1,(Aug 11 2013 18:37:58),TRUE,TRUE,FALSE,2,1
"643","A193HA5BOZWJ6P","Aug 11 2013","18:37:58",11,2,"Same",0,"Novel119",1,"Novel119",0,1048,"2","1",1,(Aug 11 2013 18:37:58),TRUE,TRUE,FALSE,2,1
"644","A193HA5BOZWJ6P","Aug 11 2013","18:37:58",12,3,"Switch",0,"Novel10",1,"Novel10",0,1985,"2","1",1,(Aug 11 2013 18:37:58),TRUE,TRUE,FALSE,2,1
"645","A193HA5BOZWJ6P","Aug 11 2013","18:37:58",15,4,"Same",1,"Novel66",0,"Novel66",0,1003,"2","1",1,(Aug 11 2013 18:37:58),TRUE,TRUE,FALSE,2,1
"646","A193HA5BOZWJ6P","Aug 11 2013","18:37:58",16,5,"Switch",0,"Novel88",1,"Novel88",0,1547,"2","1",1,(Aug 11 2013 18:37:58),TRUE,TRUE,FALSE,2,1
"647","A193HA5BOZWJ6P","Aug 11 2013","18:37:58",19,6,"Same",1,"Novel5",1,"Novel5",1,1036,"2","1",1,(Aug 11 2013 18:37:58),TRUE,TRUE,FALSE,2,1
"648","A193HA5BOZWJ6P","Aug 11 2013","18:37:58",20,7,"Switch",1,"Novel128",0,"Novel128",0,1550,"2","1",1,(Aug 11 2013 18:37:58),TRUE,TRUE,FALSE,2,1
"649","A195ALXEOWXS4A","Aug 11 2013","16:30:30",9,0,"Same",0,"Novel43",6,"Novel43",4,4416,"8","3",1,(Aug 11 2013 16:30:30),TRUE,TRUE,TRUE,8,3
"650","A195ALXEOWXS4A","Aug 11 2013","16:30:30",10,1,"Switch",1,"Novel10",5,"Novel109",2,9233,"8","3",1,(Aug 11 2013 16:30:30),FALSE,TRUE,FALSE,8,3
"651","A195ALXEOWXS4A","Aug 11 2013","16:30:30",11,2,"Same",1,"Novel30",4,"Novel30",4,2075,"8","3",1,(Aug 11 2013 16:30:30),TRUE,TRUE,FALSE,8,3
"652","A195ALXEOWXS4A","Aug 11 2013","16:30:30",12,3,"Switch",0,"Novel5",4,"Novel34",1,2202,"8","3",1,(Aug 11 2013 16:30:30),FALSE,TRUE,FALSE,8,3
"653","A195ALXEOWXS4A","Aug 11 2013","16:30:30",17,4,"Same",1,"Novel27",0,"Novel27",0,968,"8","3",1,(Aug 11 2013 16:30:30),TRUE,TRUE,FALSE,8,3
"654","A195ALXEOWXS4A","Aug 11 2013","16:30:30",18,5,"Switch",1,"Novel122",6,"Novel49",3,3558,"8","3",1,(Aug 11 2013 16:30:30),FALSE,TRUE,FALSE,8,3
"655","A195ALXEOWXS4A","Aug 11 2013","16:30:30",19,6,"Same",0,"Novel86",0,"Novel86",1,4377,"8","3",1,(Aug 11 2013 16:30:30),TRUE,TRUE,FALSE,8,3
"656","A195ALXEOWXS4A","Aug 11 2013","16:30:30",20,7,"Switch",0,"Novel125",1,"Novel139",5,1883,"8","3",1,(Aug 11 2013 16:30:30),FALSE,TRUE,FALSE,8,3
"657","A196MKZWMAK7HC","Aug 12 2013","13:45:57",6,0,"Switch",0,"Novel123",1,"Novel15",0,9854,"8","0",1,(Aug 12 2013 13:45:57),FALSE,TRUE,TRUE,8,0
"658","A196MKZWMAK7HC","Aug 12 2013","13:45:57",8,1,"Same",1,"Novel2",0,"Novel2",0,3160,"8","0",1,(Aug 12 2013 13:45:57),TRUE,TRUE,FALSE,8,0
"659","A196MKZWMAK7HC","Aug 12 2013","13:45:57",10,2,"Switch",1,"Novel133",7,"Novel11",4,8074,"8","0",1,(Aug 12 2013 13:45:57),FALSE,TRUE,FALSE,8,0
"660","A196MKZWMAK7HC","Aug 12 2013","13:45:57",12,3,"Same",1,"Novel99",0,"Novel99",0,2738,"8","0",1,(Aug 12 2013 13:45:57),TRUE,TRUE,FALSE,8,0
"661","A196MKZWMAK7HC","Aug 12 2013","13:45:57",14,4,"Switch",1,"Novel86",1,"Novel24",0,6751,"8","0",1,(Aug 12 2013 13:45:57),FALSE,TRUE,FALSE,8,0
"662","A196MKZWMAK7HC","Aug 12 2013","13:45:57",16,5,"Same",0,"Novel121",3,"Novel121",2,3171,"8","0",1,(Aug 12 2013 13:45:57),TRUE,TRUE,FALSE,8,0
"663","A196MKZWMAK7HC","Aug 12 2013","13:45:57",18,6,"Switch",0,"Novel79",1,"Novel127",7,3526,"8","0",1,(Aug 12 2013 13:45:57),FALSE,TRUE,FALSE,8,0
"664","A196MKZWMAK7HC","Aug 12 2013","13:45:57",20,7,"Same",0,"Novel34",7,"Novel34",0,1648,"8","0",1,(Aug 12 2013 13:45:57),TRUE,TRUE,FALSE,8,0
"665","A19APXLPQCWZ8S","Aug 11 2013","21:26:06",7,0,"Switch",0,"Novel93",0,"Novel93",2,3079,"3","1",1,(Aug 11 2013 21:26:06),TRUE,TRUE,TRUE,3,1
"666","A19APXLPQCWZ8S","Aug 11 2013","21:26:06",8,1,"Same",1,"Novel89",0,"Novel89",0,1234,"3","1",1,(Aug 11 2013 21:26:06),TRUE,TRUE,FALSE,3,1
"667","A19APXLPQCWZ8S","Aug 11 2013","21:26:06",11,2,"Switch",1,"Novel41",0,"Novel60",1,12876,"3","1",1,(Aug 11 2013 21:26:06),FALSE,TRUE,FALSE,3,1
"668","A19APXLPQCWZ8S","Aug 11 2013","21:26:06",12,3,"Same",0,"Novel39",2,"Novel73",1,7683,"3","1",1,(Aug 11 2013 21:26:06),FALSE,TRUE,FALSE,3,1
"669","A19APXLPQCWZ8S","Aug 11 2013","21:26:06",15,4,"Switch",0,"Novel17",1,"Novel46",0,1080,"3","1",1,(Aug 11 2013 21:26:06),FALSE,TRUE,FALSE,3,1
"670","A19APXLPQCWZ8S","Aug 11 2013","21:26:06",16,5,"Same",0,"Novel94",0,"Novel94",1,406,"3","1",1,(Aug 11 2013 21:26:06),TRUE,TRUE,FALSE,3,1
"671","A19APXLPQCWZ8S","Aug 11 2013","21:26:06",19,6,"Switch",1,"Novel80",1,"Novel80",1,1463,"3","1",1,(Aug 11 2013 21:26:06),TRUE,TRUE,FALSE,3,1
"672","A19APXLPQCWZ8S","Aug 11 2013","21:26:06",20,7,"Same",1,"Novel72",0,"Novel72",0,2054,"3","1",1,(Aug 11 2013 21:26:06),TRUE,TRUE,FALSE,3,1
"673","A19BM48DA0SF2F","Apr 02 2013","22:34:24",7,0,"Switch",1,"Novel30",5,"Novel30",5,19274,"8","1",1,(Apr 02 2013 22:34:24),TRUE,TRUE,TRUE,8,1
"674","A19BM48DA0SF2F","Apr 02 2013","22:34:24",8,1,"Same",1,"Novel104",5,"Novel100",1,8236,"8","1",1,(Apr 02 2013 22:34:24),FALSE,TRUE,FALSE,8,1
"675","A19BM48DA0SF2F","Apr 02 2013","22:34:24",11,2,"Switch",1,"Novel7",3,"Novel21",6,4971,"8","1",1,(Apr 02 2013 22:34:24),FALSE,TRUE,FALSE,8,1
"676","A19BM48DA0SF2F","Apr 02 2013","22:34:24",12,3,"Same",0,"Novel127",5,"Novel132",1,7510,"8","1",1,(Apr 02 2013 22:34:24),FALSE,TRUE,FALSE,8,1
"677","A19BM48DA0SF2F","Apr 02 2013","22:34:24",15,4,"Switch",0,"Novel45",0,"Novel83",6,6429,"8","1",1,(Apr 02 2013 22:34:24),FALSE,TRUE,FALSE,8,1
"678","A19BM48DA0SF2F","Apr 02 2013","22:34:24",16,5,"Same",0,"Novel117",0,"Novel117",5,2180,"8","1",1,(Apr 02 2013 22:34:24),TRUE,TRUE,FALSE,8,1
"679","A19BM48DA0SF2F","Apr 02 2013","22:34:24",19,6,"Switch",0,"Novel10",7,"Novel15",2,4293,"8","1",1,(Apr 02 2013 22:34:24),FALSE,TRUE,FALSE,8,1
"680","A19BM48DA0SF2F","Apr 02 2013","22:34:24",20,7,"Same",1,"Novel110",4,"Novel110",4,1582,"8","1",1,(Apr 02 2013 22:34:24),TRUE,TRUE,FALSE,8,1
"681","A19EI43NA8HLDL","Apr 08 2013","23:21:12",13,0,"Switch",0,"Novel60",0,"Novel60",1,4483,"2","7",1,(Apr 08 2013 23:21:12),TRUE,TRUE,TRUE,2,7
"682","A19EI43NA8HLDL","Apr 08 2013","23:21:12",14,1,"Same",0,"Novel51",0,"Novel51",1,963,"2","7",1,(Apr 08 2013 23:21:12),TRUE,TRUE,FALSE,2,7
"683","A19EI43NA8HLDL","Apr 08 2013","23:21:12",15,2,"Switch",1,"Novel58",0,"Novel58",0,1108,"2","7",1,(Apr 08 2013 23:21:12),TRUE,TRUE,FALSE,2,7
"684","A19EI43NA8HLDL","Apr 08 2013","23:21:12",16,3,"Same",0,"Novel27",0,"Novel27",1,964,"2","7",1,(Apr 08 2013 23:21:12),TRUE,TRUE,FALSE,2,7
"685","A19EI43NA8HLDL","Apr 08 2013","23:21:12",17,4,"Switch",0,"Novel110",0,"Novel110",1,1542,"2","7",1,(Apr 08 2013 23:21:12),TRUE,TRUE,FALSE,2,7
"686","A19EI43NA8HLDL","Apr 08 2013","23:21:12",18,5,"Same",1,"Novel42",0,"Novel42",0,1293,"2","7",1,(Apr 08 2013 23:21:12),TRUE,TRUE,FALSE,2,7
"687","A19EI43NA8HLDL","Apr 08 2013","23:21:12",19,6,"Switch",1,"Novel76",1,"Novel76",1,1188,"2","7",1,(Apr 08 2013 23:21:12),TRUE,TRUE,FALSE,2,7
"688","A19EI43NA8HLDL","Apr 08 2013","23:21:12",20,7,"Same",1,"Novel124",0,"Novel124",0,700,"2","7",1,(Apr 08 2013 23:21:12),TRUE,TRUE,FALSE,2,7
"697","A19PEZH3QKK7VH","Apr 03 2013","22:48:33",9,0,"Same",1,"Novel16",3,"Novel16",3,2616,"4","3",1,(Apr 03 2013 22:48:33),TRUE,TRUE,TRUE,4,3
"698","A19PEZH3QKK7VH","Apr 03 2013","22:48:33",10,1,"Switch",0,"Novel20",0,"Novel20",3,3610,"4","3",1,(Apr 03 2013 22:48:33),TRUE,TRUE,FALSE,4,3
"699","A19PEZH3QKK7VH","Apr 03 2013","22:48:33",11,2,"Same",0,"Novel23",3,"Novel23",0,2322,"4","3",1,(Apr 03 2013 22:48:33),TRUE,TRUE,FALSE,4,3
"700","A19PEZH3QKK7VH","Apr 03 2013","22:48:33",12,3,"Switch",0,"Novel134",3,"Novel134",0,1051,"4","3",1,(Apr 03 2013 22:48:33),TRUE,TRUE,FALSE,4,3
"701","A19PEZH3QKK7VH","Apr 03 2013","22:48:33",17,4,"Same",0,"Novel91",1,"Novel91",2,2438,"4","3",1,(Apr 03 2013 22:48:33),TRUE,TRUE,FALSE,4,3
"702","A19PEZH3QKK7VH","Apr 03 2013","22:48:33",18,5,"Switch",1,"Novel55",2,"Novel55",2,5970,"4","3",1,(Apr 03 2013 22:48:33),TRUE,TRUE,FALSE,4,3
"703","A19PEZH3QKK7VH","Apr 03 2013","22:48:33",19,6,"Same",1,"Novel70",2,"Novel70",2,1674,"4","3",1,(Apr 03 2013 22:48:33),TRUE,TRUE,FALSE,4,3
"704","A19PEZH3QKK7VH","Apr 03 2013","22:48:33",20,7,"Switch",1,"Novel69",3,"Novel69",3,1683,"4","3",1,(Apr 03 2013 22:48:33),TRUE,TRUE,FALSE,4,3
"705","A19ZT0TQPFA2","Apr 03 2013","04:41:56",13,0,"Switch",0,"Novel65",0,"Novel101",0,1253,"8","7",1,(Apr 03 2013 04:41:56),FALSE,TRUE,TRUE,8,7
"706","A19ZT0TQPFA2","Apr 03 2013","04:41:56",14,1,"Same",0,"Novel4",3,"Novel4",1,1957,"8","7",1,(Apr 03 2013 04:41:56),TRUE,TRUE,FALSE,8,7
"707","A19ZT0TQPFA2","Apr 03 2013","04:41:56",15,2,"Switch",0,"Novel17",6,"Novel19",5,1415,"8","7",1,(Apr 03 2013 04:41:56),FALSE,TRUE,FALSE,8,7
"708","A19ZT0TQPFA2","Apr 03 2013","04:41:56",16,3,"Same",0,"Novel132",7,"Novel90",2,1368,"8","7",1,(Apr 03 2013 04:41:56),FALSE,TRUE,FALSE,8,7
"709","A19ZT0TQPFA2","Apr 03 2013","04:41:56",17,4,"Switch",1,"Novel138",7,"Novel133",0,1162,"8","7",1,(Apr 03 2013 04:41:56),FALSE,TRUE,FALSE,8,7
"710","A19ZT0TQPFA2","Apr 03 2013","04:41:56",18,5,"Same",1,"Novel66",0,"Novel66",0,1480,"8","7",1,(Apr 03 2013 04:41:56),TRUE,TRUE,FALSE,8,7
"711","A19ZT0TQPFA2","Apr 03 2013","04:41:56",19,6,"Switch",1,"Novel92",1,"Novel10",5,3004,"8","7",1,(Apr 03 2013 04:41:56),FALSE,TRUE,FALSE,8,7
"712","A19ZT0TQPFA2","Apr 03 2013","04:41:56",20,7,"Same",1,"Novel111",5,"Novel74",0,1265,"8","7",1,(Apr 03 2013 04:41:56),FALSE,TRUE,FALSE,8,7
"713","A1A6IUPGIHPY0B","Aug 11 2013","14:24:53",6,0,"Switch",0,"Novel80",1,"Novel80",2,1869,"4","0",1,(Aug 11 2013 14:24:53),TRUE,TRUE,TRUE,4,0
"714","A1A6IUPGIHPY0B","Aug 11 2013","14:24:53",8,1,"Same",0,"Novel84",3,"Novel84",1,1104,"4","0",1,(Aug 11 2013 14:24:53),TRUE,TRUE,FALSE,4,0
"715","A1A6IUPGIHPY0B","Aug 11 2013","14:24:53",10,2,"Switch",1,"Novel136",2,"Novel136",2,2866,"4","0",1,(Aug 11 2013 14:24:53),TRUE,TRUE,FALSE,4,0
"716","A1A6IUPGIHPY0B","Aug 11 2013","14:24:53",12,3,"Same",1,"Novel103",1,"Novel103",1,1322,"4","0",1,(Aug 11 2013 14:24:53),TRUE,TRUE,FALSE,4,0
"717","A1A6IUPGIHPY0B","Aug 11 2013","14:24:53",14,4,"Switch",1,"Novel15",1,"Novel54",3,4290,"4","0",1,(Aug 11 2013 14:24:53),FALSE,TRUE,FALSE,4,0
