"subid","submit.date","submit.time","trial.num","gazeLength","condition","interval","numPic","browser","itemNum","trialType","chosen","chosenIdx","kept","keptIdx","rt","face","faceIdx","example_trial","exposure_trial","test_trial","day.and.time","intervalNum","include","first.trial","numPicN","correct"
"A00191882MY7HMU9HDWM2","Oct 06 2014","17:44:04",1,"Noisy","Social","Zero",4,"Chrome",0,"Same","squirrel",0,"",0,4463,"straightahead",-1,1,0,0,(Oct 06 2014 17:44:04),0,TRUE,FALSE,4,FALSE
"A00191882MY7HMU9HDWM2","Oct 06 2014","17:44:04",2,"Noisy","Social","Zero",4,"Chrome",0,"Same","squirrel",0,"",0,7414,"straightahead",-1,1,0,0,(Oct 06 2014 17:44:04),0,TRUE,FALSE,4,FALSE
"A00191882MY7HMU9HDWM2","Oct 06 2014","17:44:04",3,"Noisy","Social","Zero",4,"Chrome",0,"Same","tomato",1,"",0,1386,"straightahead",-1,1,0,0,(Oct 06 2014 17:44:04),0,TRUE,FALSE,4,FALSE
"A00191882MY7HMU9HDWM2","Oct 06 2014","17:44:04",4,"Noisy","Social","Zero",4,"Chrome",0,"Same","tomato",2,"",0,1713,"straightahead",-1,1,0,0,(Oct 06 2014 17:44:04),0,TRUE,FALSE,4,FALSE
"A00191882MY7HMU9HDWM2","Oct 06 2014","17:44:04",5,"Noisy","Social","Zero",4,"Chrome",0,"Same","Novel122",2,"Novel122",2,2460,"noisyLD",0,0,1,0,(Oct 06 2014 17:44:04),0,TRUE,FALSE,4,TRUE
"A00191882MY7HMU9HDWM2","Oct 06 2014","17:44:04",6,"Noisy","Social","Zero",4,"Chrome",0,"Same","Novel122",3,"Novel122",2,526,"straightahead",-1,0,0,1,(Oct 06 2014 17:44:04),0,TRUE,TRUE,4,TRUE
"A00191882MY7HMU9HDWM2","Oct 06 2014","17:44:04",7,"Noisy","Social","Zero",4,"Chrome",1,"Switch","Novel109",0,"Novel140",3,590,"noisyLU",1,0,1,0,(Oct 06 2014 17:44:04),0,TRUE,FALSE,4,FALSE
"A00191882MY7HMU9HDWM2","Oct 06 2014","17:44:04",8,"Noisy","Social","Zero",4,"Chrome",1,"Switch","Novel69",2,"Novel140",3,3572,"straightahead",-1,0,0,1,(Oct 06 2014 17:44:04),0,TRUE,FALSE,4,FALSE
"A00191882MY7HMU9HDWM2","Oct 06 2014","17:44:04",9,"Noisy","Social","Zero",4,"Chrome",2,"Same","Novel35",1,"Novel35",1,3555,"noisyRU",3,0,1,0,(Oct 06 2014 17:44:04),0,TRUE,FALSE,4,TRUE
"A00191882MY7HMU9HDWM2","Oct 06 2014","17:44:04",10,"Noisy","Social","Zero",4,"Chrome",2,"Same","Novel35",1,"Novel35",1,331,"straightahead",-1,0,0,1,(Oct 06 2014 17:44:04),0,TRUE,FALSE,4,TRUE
"A00191882MY7HMU9HDWM2","Oct 06 2014","17:44:04",11,"Noisy","Social","Zero",4,"Chrome",3,"Switch","Novel93",0,"Novel28",3,2537,"noisyLU",1,0,1,0,(Oct 06 2014 17:44:04),0,TRUE,FALSE,4,FALSE
"A00191882MY7HMU9HDWM2","Oct 06 2014","17:44:04",12,"Noisy","Social","Zero",4,"Chrome",3,"Switch","Novel28",3,"Novel28",3,766,"straightahead",-1,0,0,1,(Oct 06 2014 17:44:04),0,TRUE,FALSE,4,TRUE
"A00191882MY7HMU9HDWM2","Oct 06 2014","17:44:04",13,"Noisy","Social","Zero",4,"Chrome",4,"Same","Novel57",2,"Novel57",2,2726,"noisyLD",0,0,1,0,(Oct 06 2014 17:44:04),0,TRUE,FALSE,4,TRUE
"A00191882MY7HMU9HDWM2","Oct 06 2014","17:44:04",14,"Noisy","Social","Zero",4,"Chrome",4,"Same","Novel57",1,"Novel57",2,535,"straightahead",-1,0,0,1,(Oct 06 2014 17:44:04),0,TRUE,FALSE,4,TRUE
"A00191882MY7HMU9HDWM2","Oct 06 2014","17:44:04",15,"Noisy","Social","Zero",4,"Chrome",5,"Switch","Novel123",3,"Novel134",2,3773,"noisyRD",2,0,1,0,(Oct 06 2014 17:44:04),0,TRUE,FALSE,4,FALSE
"A00191882MY7HMU9HDWM2","Oct 06 2014","17:44:04",16,"Noisy","Social","Zero",4,"Chrome",5,"Switch","Novel17",1,"Novel134",2,845,"straightahead",-1,0,0,1,(Oct 06 2014 17:44:04),0,TRUE,FALSE,4,FALSE
"A00191882MY7HMU9HDWM2","Oct 06 2014","17:44:04",17,"Noisy","Social","Zero",4,"Chrome",6,"Same","Novel132",3,"Novel132",3,2050,"noisyRD",2,0,1,0,(Oct 06 2014 17:44:04),0,TRUE,FALSE,4,TRUE
"A00191882MY7HMU9HDWM2","Oct 06 2014","17:44:04",18,"Noisy","Social","Zero",4,"Chrome",6,"Same","Novel132",3,"Novel132",3,243,"straightahead",-1,0,0,1,(Oct 06 2014 17:44:04),0,TRUE,FALSE,4,TRUE
"A00191882MY7HMU9HDWM2","Oct 06 2014","17:44:04",19,"Noisy","Social","Zero",4,"Chrome",7,"Switch","Novel104",1,"Novel99",0,2501,"noisyLU",1,0,1,0,(Oct 06 2014 17:44:04),0,TRUE,FALSE,4,FALSE
"A00191882MY7HMU9HDWM2","Oct 06 2014","17:44:04",20,"Noisy","Social","Zero",4,"Chrome",7,"Switch","Novel99",3,"Novel99",0,537,"straightahead",-1,0,0,1,(Oct 06 2014 17:44:04),0,TRUE,FALSE,4,TRUE
"A1070I2RE0R5RH","Oct 06 2014","08:31:10",1,"Noisy","Social","Zero",4,"Chrome",0,"Switch","squirrel",0,"",0,1126,"straightahead",-1,1,0,0,(Oct 06 2014 08:31:10),0,TRUE,FALSE,4,FALSE
"A1070I2RE0R5RH","Oct 06 2014","08:31:10",2,"Noisy","Social","Zero",4,"Chrome",0,"Switch","squirrel",0,"",0,603,"straightahead",-1,1,0,0,(Oct 06 2014 08:31:10),0,TRUE,FALSE,4,FALSE
"A1070I2RE0R5RH","Oct 06 2014","08:31:10",3,"Noisy","Social","Zero",4,"Chrome",0,"Switch","tomato",1,"",0,1750,"straightahead",-1,1,0,0,(Oct 06 2014 08:31:10),0,TRUE,FALSE,4,FALSE
"A1070I2RE0R5RH","Oct 06 2014","08:31:10",4,"Noisy","Social","Zero",4,"Chrome",0,"Switch","tomato",2,"",0,2045,"straightahead",-1,1,0,0,(Oct 06 2014 08:31:10),0,TRUE,FALSE,4,FALSE
"A1070I2RE0R5RH","Oct 06 2014","08:31:10",5,"Noisy","Social","Zero",4,"Chrome",0,"Switch","Novel113",2,"Novel16",0,3405,"noisyRU",3,0,1,0,(Oct 06 2014 08:31:10),0,TRUE,FALSE,4,FALSE
"A1070I2RE0R5RH","Oct 06 2014","08:31:10",6,"Noisy","Social","Zero",4,"Chrome",0,"Switch","Novel88",1,"Novel16",0,6997,"straightahead",-1,0,0,1,(Oct 06 2014 08:31:10),0,TRUE,TRUE,4,FALSE
"A1070I2RE0R5RH","Oct 06 2014","08:31:10",7,"Noisy","Social","Zero",4,"Chrome",1,"Same","Novel68",1,"Novel68",1,6093,"noisyRD",2,0,1,0,(Oct 06 2014 08:31:10),0,TRUE,FALSE,4,TRUE
"A1070I2RE0R5RH","Oct 06 2014","08:31:10",8,"Noisy","Social","Zero",4,"Chrome",1,"Same","Novel68",0,"Novel68",1,2694,"straightahead",-1,0,0,1,(Oct 06 2014 08:31:10),0,TRUE,FALSE,4,TRUE
"A1070I2RE0R5RH","Oct 06 2014","08:31:10",9,"Noisy","Social","Zero",4,"Chrome",2,"Switch","Novel82",3,"Novel53",1,2795,"noisyLD",0,0,1,0,(Oct 06 2014 08:31:10),0,TRUE,FALSE,4,FALSE
"A1070I2RE0R5RH","Oct 06 2014","08:31:10",10,"Noisy","Social","Zero",4,"Chrome",2,"Switch","Novel36",1,"Novel53",1,3428,"straightahead",-1,0,0,1,(Oct 06 2014 08:31:10),0,TRUE,FALSE,4,FALSE
"A1070I2RE0R5RH","Oct 06 2014","08:31:10",11,"Noisy","Social","Zero",4,"Chrome",3,"Same","Novel95",0,"Novel95",0,5783,"noisyLD",0,0,1,0,(Oct 06 2014 08:31:10),0,TRUE,FALSE,4,TRUE
"A1070I2RE0R5RH","Oct 06 2014","08:31:10",12,"Noisy","Social","Zero",4,"Chrome",3,"Same","Novel95",0,"Novel95",0,1003,"straightahead",-1,0,0,1,(Oct 06 2014 08:31:10),0,TRUE,FALSE,4,TRUE
"A1070I2RE0R5RH","Oct 06 2014","08:31:10",13,"Noisy","Social","Zero",4,"Chrome",4,"Switch","Novel4",1,"Novel120",3,3337,"noisyRU",3,0,1,0,(Oct 06 2014 08:31:10),0,TRUE,FALSE,4,FALSE
"A1070I2RE0R5RH","Oct 06 2014","08:31:10",14,"Noisy","Social","Zero",4,"Chrome",4,"Switch","Novel70",2,"Novel120",3,1603,"straightahead",-1,0,0,1,(Oct 06 2014 08:31:10),0,TRUE,FALSE,4,FALSE
"A1070I2RE0R5RH","Oct 06 2014","08:31:10",15,"Noisy","Social","Zero",4,"Chrome",5,"Same","Novel57",1,"Novel57",1,4239,"noisyLU",1,0,1,0,(Oct 06 2014 08:31:10),0,TRUE,FALSE,4,TRUE
"A1070I2RE0R5RH","Oct 06 2014","08:31:10",16,"Noisy","Social","Zero",4,"Chrome",5,"Same","Novel57",1,"Novel57",1,1102,"straightahead",-1,0,0,1,(Oct 06 2014 08:31:10),0,TRUE,FALSE,4,TRUE
"A1070I2RE0R5RH","Oct 06 2014","08:31:10",17,"Noisy","Social","Zero",4,"Chrome",6,"Switch","Novel24",1,"Novel61",2,1484,"noisyRU",3,0,1,0,(Oct 06 2014 08:31:10),0,TRUE,FALSE,4,FALSE
"A1070I2RE0R5RH","Oct 06 2014","08:31:10",18,"Noisy","Social","Zero",4,"Chrome",6,"Switch","Novel33",0,"Novel61",2,2009,"straightahead",-1,0,0,1,(Oct 06 2014 08:31:10),0,TRUE,FALSE,4,FALSE
"A1070I2RE0R5RH","Oct 06 2014","08:31:10",19,"Noisy","Social","Zero",4,"Chrome",7,"Same","Novel27",2,"Novel27",2,1747,"noisyLD",0,0,1,0,(Oct 06 2014 08:31:10),0,TRUE,FALSE,4,TRUE
"A1070I2RE0R5RH","Oct 06 2014","08:31:10",20,"Noisy","Social","Zero",4,"Chrome",7,"Same","Novel27",0,"Novel27",2,3713,"straightahead",-1,0,0,1,(Oct 06 2014 08:31:10),0,TRUE,FALSE,4,TRUE
"A10K8ZSAU26T49","Oct 06 2014","09:24:05",1,"Short","Social","Zero",4,"Chrome",0,"Same","squirrel",0,"",0,1852,"straightahead",-1,1,0,0,(Oct 06 2014 09:24:05),0,TRUE,FALSE,4,FALSE
"A10K8ZSAU26T49","Oct 06 2014","09:24:05",2,"Short","Social","Zero",4,"Chrome",0,"Same","squirrel",0,"",0,1772,"straightahead",-1,1,0,0,(Oct 06 2014 09:24:05),0,TRUE,FALSE,4,FALSE
"A10K8ZSAU26T49","Oct 06 2014","09:24:05",3,"Short","Social","Zero",4,"Chrome",0,"Same","tomato",1,"",0,1730,"straightahead",-1,1,0,0,(Oct 06 2014 09:24:05),0,TRUE,FALSE,4,FALSE
"A10K8ZSAU26T49","Oct 06 2014","09:24:05",4,"Short","Social","Zero",4,"Chrome",0,"Same","tomato",2,"",0,1776,"straightahead",-1,1,0,0,(Oct 06 2014 09:24:05),0,TRUE,FALSE,4,FALSE
"A10K8ZSAU26T49","Oct 06 2014","09:24:05",5,"Short","Social","Zero",4,"Chrome",0,"Same","Novel135",2,"Novel135",2,4755,"silentLUshort",1,0,1,0,(Oct 06 2014 09:24:05),0,TRUE,FALSE,4,TRUE
"A10K8ZSAU26T49","Oct 06 2014","09:24:05",6,"Short","Social","Zero",4,"Chrome",0,"Same","Novel33",3,"Novel135",2,4443,"straightahead",-1,0,0,1,(Oct 06 2014 09:24:05),0,TRUE,TRUE,4,FALSE
"A10K8ZSAU26T49","Oct 06 2014","09:24:05",7,"Short","Social","Zero",4,"Chrome",1,"Switch","Novel82",3,"Novel20",0,8321,"silentRUshort",3,0,1,0,(Oct 06 2014 09:24:05),0,TRUE,FALSE,4,FALSE
"A10K8ZSAU26T49","Oct 06 2014","09:24:05",8,"Short","Social","Zero",4,"Chrome",1,"Switch","Novel97",1,"Novel20",0,3058,"straightahead",-1,0,0,1,(Oct 06 2014 09:24:05),0,TRUE,FALSE,4,FALSE
"A10K8ZSAU26T49","Oct 06 2014","09:24:05",9,"Short","Social","Zero",4,"Chrome",2,"Same","Novel78",3,"Novel78",3,2884,"silentRUshort",3,0,1,0,(Oct 06 2014 09:24:05),0,TRUE,FALSE,4,TRUE
"A10K8ZSAU26T49","Oct 06 2014","09:24:05",10,"Short","Social","Zero",4,"Chrome",2,"Same","Novel125",3,"Novel78",3,1495,"straightahead",-1,0,0,1,(Oct 06 2014 09:24:05),0,TRUE,FALSE,4,FALSE
"A10K8ZSAU26T49","Oct 06 2014","09:24:05",11,"Short","Social","Zero",4,"Chrome",3,"Switch","Novel29",0,"Novel28",2,1735,"silentRDshort",2,0,1,0,(Oct 06 2014 09:24:05),0,TRUE,FALSE,4,FALSE
"A10K8ZSAU26T49","Oct 06 2014","09:24:05",12,"Short","Social","Zero",4,"Chrome",3,"Switch","Novel50",0,"Novel28",2,3337,"straightahead",-1,0,0,1,(Oct 06 2014 09:24:05),0,TRUE,FALSE,4,FALSE
"A10K8ZSAU26T49","Oct 06 2014","09:24:05",13,"Short","Social","Zero",4,"Chrome",4,"Same","Novel43",1,"Novel43",1,2905,"silentLDshort",0,0,1,0,(Oct 06 2014 09:24:05),0,TRUE,FALSE,4,TRUE
"A10K8ZSAU26T49","Oct 06 2014","09:24:05",14,"Short","Social","Zero",4,"Chrome",4,"Same","Novel43",0,"Novel43",1,1318,"straightahead",-1,0,0,1,(Oct 06 2014 09:24:05),0,TRUE,FALSE,4,TRUE
"A10K8ZSAU26T49","Oct 06 2014","09:24:05",15,"Short","Social","Zero",4,"Chrome",5,"Switch","Novel15",2,"Novel57",3,5577,"silentRUshort",3,0,1,0,(Oct 06 2014 09:24:05),0,TRUE,FALSE,4,FALSE
"A10K8ZSAU26T49","Oct 06 2014","09:24:05",16,"Short","Social","Zero",4,"Chrome",5,"Switch","Novel57",3,"Novel57",3,4511,"straightahead",-1,0,0,1,(Oct 06 2014 09:24:05),0,TRUE,FALSE,4,TRUE
"A10K8ZSAU26T49","Oct 06 2014","09:24:05",17,"Short","Social","Zero",4,"Chrome",6,"Same","Novel134",2,"Novel134",2,1869,"silentLUshort",1,0,1,0,(Oct 06 2014 09:24:05),0,TRUE,FALSE,4,TRUE
"A10K8ZSAU26T49","Oct 06 2014","09:24:05",18,"Short","Social","Zero",4,"Chrome",6,"Same","Novel134",2,"Novel134",2,2804,"straightahead",-1,0,0,1,(Oct 06 2014 09:24:05),0,TRUE,FALSE,4,TRUE
"A10K8ZSAU26T49","Oct 06 2014","09:24:05",19,"Short","Social","Zero",4,"Chrome",7,"Switch","Novel122",3,"Novel110",2,2116,"silentLUshort",1,0,1,0,(Oct 06 2014 09:24:05),0,TRUE,FALSE,4,FALSE
"A10K8ZSAU26T49","Oct 06 2014","09:24:05",20,"Short","Social","Zero",4,"Chrome",7,"Switch","Novel133",3,"Novel110",2,2196,"straightahead",-1,0,0,1,(Oct 06 2014 09:24:05),0,TRUE,FALSE,4,FALSE
"A10SNOF3KQP3C4","Oct 06 2014","13:36:23",1,"Noisy","Social","Zero",4,"Chrome",0,"Same","squirrel",0,"",0,1305,"straightahead",-1,1,0,0,(Oct 06 2014 13:36:23),0,TRUE,FALSE,4,FALSE
"A10SNOF3KQP3C4","Oct 06 2014","13:36:23",2,"Noisy","Social","Zero",4,"Chrome",0,"Same","squirrel",0,"",0,1715,"straightahead",-1,1,0,0,(Oct 06 2014 13:36:23),0,TRUE,FALSE,4,FALSE
"A10SNOF3KQP3C4","Oct 06 2014","13:36:23",3,"Noisy","Social","Zero",4,"Chrome",0,"Same","tomato",1,"",0,271,"straightahead",-1,1,0,0,(Oct 06 2014 13:36:23),0,TRUE,FALSE,4,FALSE
"A10SNOF3KQP3C4","Oct 06 2014","13:36:23",4,"Noisy","Social","Zero",4,"Chrome",0,"Same","tomato",2,"",0,1564,"straightahead",-1,1,0,0,(Oct 06 2014 13:36:23),0,TRUE,FALSE,4,FALSE
"A10SNOF3KQP3C4","Oct 06 2014","13:36:23",5,"Noisy","Social","Zero",4,"Chrome",0,"Same","Novel18",0,"Novel18",0,2288,"noisyLU",1,0,1,0,(Oct 06 2014 13:36:23),0,TRUE,FALSE,4,TRUE
"A10SNOF3KQP3C4","Oct 06 2014","13:36:23",6,"Noisy","Social","Zero",4,"Chrome",0,"Same","Novel18",1,"Novel18",0,1321,"straightahead",-1,0,0,1,(Oct 06 2014 13:36:23),0,TRUE,TRUE,4,TRUE
"A10SNOF3KQP3C4","Oct 06 2014","13:36:23",7,"Noisy","Social","Zero",4,"Chrome",1,"Switch","Novel77",0,"Novel25",3,386,"noisyLU",1,0,1,0,(Oct 06 2014 13:36:23),0,TRUE,FALSE,4,FALSE
"A10SNOF3KQP3C4","Oct 06 2014","13:36:23",8,"Noisy","Social","Zero",4,"Chrome",1,"Switch","Novel25",3,"Novel25",3,3520,"straightahead",-1,0,0,1,(Oct 06 2014 13:36:23),0,TRUE,FALSE,4,TRUE
"A10SNOF3KQP3C4","Oct 06 2014","13:36:23",9,"Noisy","Social","Zero",4,"Chrome",2,"Same","Novel23",0,"Novel23",0,553,"noisyLU",1,0,1,0,(Oct 06 2014 13:36:23),0,TRUE,FALSE,4,TRUE
"A10SNOF3KQP3C4","Oct 06 2014","13:36:23",10,"Noisy","Social","Zero",4,"Chrome",2,"Same","Novel23",2,"Novel23",0,1560,"straightahead",-1,0,0,1,(Oct 06 2014 13:36:23),0,TRUE,FALSE,4,TRUE
"A10SNOF3KQP3C4","Oct 06 2014","13:36:23",11,"Noisy","Social","Zero",4,"Chrome",3,"Switch","Novel6",0,"Novel106",1,164,"noisyLU",1,0,1,0,(Oct 06 2014 13:36:23),0,TRUE,FALSE,4,FALSE
"A10SNOF3KQP3C4","Oct 06 2014","13:36:23",12,"Noisy","Social","Zero",4,"Chrome",3,"Switch","Novel70",1,"Novel106",1,1265,"straightahead",-1,0,0,1,(Oct 06 2014 13:36:23),0,TRUE,FALSE,4,FALSE
"A10SNOF3KQP3C4","Oct 06 2014","13:36:23",13,"Noisy","Social","Zero",4,"Chrome",4,"Same","Novel128",1,"Novel128",1,329,"noisyRU",3,0,1,0,(Oct 06 2014 13:36:23),0,TRUE,FALSE,4,TRUE
"A10SNOF3KQP3C4","Oct 06 2014","13:36:23",14,"Noisy","Social","Zero",4,"Chrome",4,"Same","Novel128",1,"Novel128",1,1753,"straightahead",-1,0,0,1,(Oct 06 2014 13:36:23),0,TRUE,FALSE,4,TRUE
"A10SNOF3KQP3C4","Oct 06 2014","13:36:23",15,"Noisy","Social","Zero",4,"Chrome",5,"Switch","Novel22",1,"Novel16",0,3066,"noisyRU",3,0,1,0,(Oct 06 2014 13:36:23),0,TRUE,FALSE,4,FALSE
"A10SNOF3KQP3C4","Oct 06 2014","13:36:23",16,"Noisy","Social","Zero",4,"Chrome",5,"Switch","Novel103",2,"Novel16",0,721,"straightahead",-1,0,0,1,(Oct 06 2014 13:36:23),0,TRUE,FALSE,4,FALSE
"A10SNOF3KQP3C4","Oct 06 2014","13:36:23",17,"Noisy","Social","Zero",4,"Chrome",6,"Same","Novel33",2,"Novel33",2,577,"noisyLD",0,0,1,0,(Oct 06 2014 13:36:23),0,TRUE,FALSE,4,TRUE
"A10SNOF3KQP3C4","Oct 06 2014","13:36:23",18,"Noisy","Social","Zero",4,"Chrome",6,"Same","Novel33",2,"Novel33",2,936,"straightahead",-1,0,0,1,(Oct 06 2014 13:36:23),0,TRUE,FALSE,4,TRUE
"A10SNOF3KQP3C4","Oct 06 2014","13:36:23",19,"Noisy","Social","Zero",4,"Chrome",7,"Switch","Novel67",2,"Novel95",1,1946,"noisyLD",0,0,1,0,(Oct 06 2014 13:36:23),0,TRUE,FALSE,4,FALSE
"A10SNOF3KQP3C4","Oct 06 2014","13:36:23",20,"Noisy","Social","Zero",4,"Chrome",7,"Switch","Novel95",3,"Novel95",1,3329,"straightahead",-1,0,0,1,(Oct 06 2014 13:36:23),0,TRUE,FALSE,4,TRUE
"A10SUPT94QJPN7","Oct 05 2014","23:54:11",1,"Short","No-social","Zero",4,"Chrome",0,"Switch","squirrel",0,"",0,4737,"straightahead",-1,1,0,0,(Oct 05 2014 23:54:11),0,TRUE,FALSE,4,FALSE
"A10SUPT94QJPN7","Oct 05 2014","23:54:11",2,"Short","No-social","Zero",4,"Chrome",0,"Switch","squirrel",0,"",0,1106,"straightahead",-1,1,0,0,(Oct 05 2014 23:54:11),0,TRUE,FALSE,4,FALSE
"A10SUPT94QJPN7","Oct 05 2014","23:54:11",3,"Short","No-social","Zero",4,"Chrome",0,"Switch","tomato",1,"",0,813,"straightahead",-1,1,0,0,(Oct 05 2014 23:54:11),0,TRUE,FALSE,4,FALSE
"A10SUPT94QJPN7","Oct 05 2014","23:54:11",4,"Short","No-social","Zero",4,"Chrome",0,"Switch","tomato",2,"",0,917,"straightahead",-1,1,0,0,(Oct 05 2014 23:54:11),0,TRUE,FALSE,4,FALSE
"A10SUPT94QJPN7","Oct 05 2014","23:54:11",5,"Short","No-social","Zero",4,"Chrome",0,"Switch","Novel41",0,"Novel33",3,10416,"straightahead",-1,0,1,0,(Oct 05 2014 23:54:11),0,TRUE,FALSE,4,FALSE
"A10SUPT94QJPN7","Oct 05 2014","23:54:11",6,"Short","No-social","Zero",4,"Chrome",0,"Switch","Novel33",1,"Novel33",3,6232,"straightahead",-1,0,0,1,(Oct 05 2014 23:54:11),0,TRUE,TRUE,4,TRUE
"A10SUPT94QJPN7","Oct 05 2014","23:54:11",7,"Short","No-social","Zero",4,"Chrome",1,"Same","Novel77",3,"Novel77",3,6565,"straightahead",-1,0,1,0,(Oct 05 2014 23:54:11),0,TRUE,FALSE,4,TRUE
"A10SUPT94QJPN7","Oct 05 2014","23:54:11",8,"Short","No-social","Zero",4,"Chrome",1,"Same","Novel77",1,"Novel77",3,785,"straightahead",-1,0,0,1,(Oct 05 2014 23:54:11),0,TRUE,FALSE,4,TRUE
"A10SUPT94QJPN7","Oct 05 2014","23:54:11",9,"Short","No-social","Zero",4,"Chrome",2,"Switch","Novel9",0,"Novel117",2,2944,"straightahead",-1,0,1,0,(Oct 05 2014 23:54:11),0,TRUE,FALSE,4,FALSE
"A10SUPT94QJPN7","Oct 05 2014","23:54:11",10,"Short","No-social","Zero",4,"Chrome",2,"Switch","Novel117",2,"Novel117",2,310,"straightahead",-1,0,0,1,(Oct 05 2014 23:54:11),0,TRUE,FALSE,4,TRUE
"A10SUPT94QJPN7","Oct 05 2014","23:54:11",11,"Short","No-social","Zero",4,"Chrome",3,"Same","Novel95",1,"Novel95",1,5679,"straightahead",-1,0,1,0,(Oct 05 2014 23:54:11),0,TRUE,FALSE,4,TRUE
"A10SUPT94QJPN7","Oct 05 2014","23:54:11",12,"Short","No-social","Zero",4,"Chrome",3,"Same","Novel95",1,"Novel95",1,207,"straightahead",-1,0,0,1,(Oct 05 2014 23:54:11),0,TRUE,FALSE,4,TRUE
"A10SUPT94QJPN7","Oct 05 2014","23:54:11",13,"Short","No-social","Zero",4,"Chrome",4,"Switch","Novel107",3,"Novel85",0,1984,"straightahead",-1,0,1,0,(Oct 05 2014 23:54:11),0,TRUE,FALSE,4,FALSE
"A10SUPT94QJPN7","Oct 05 2014","23:54:11",14,"Short","No-social","Zero",4,"Chrome",4,"Switch","Novel85",3,"Novel85",0,264,"straightahead",-1,0,0,1,(Oct 05 2014 23:54:11),0,TRUE,FALSE,4,TRUE
"A10SUPT94QJPN7","Oct 05 2014","23:54:11",15,"Short","No-social","Zero",4,"Chrome",5,"Same","Novel128",3,"Novel128",3,6487,"straightahead",-1,0,1,0,(Oct 05 2014 23:54:11),0,TRUE,FALSE,4,TRUE
"A10SUPT94QJPN7","Oct 05 2014","23:54:11",16,"Short","No-social","Zero",4,"Chrome",5,"Same","Novel128",0,"Novel128",3,89,"straightahead",-1,0,0,1,(Oct 05 2014 23:54:11),0,TRUE,FALSE,4,TRUE
"A10SUPT94QJPN7","Oct 05 2014","23:54:11",17,"Short","No-social","Zero",4,"Chrome",6,"Switch","Novel103",1,"Novel42",0,2861,"straightahead",-1,0,1,0,(Oct 05 2014 23:54:11),0,TRUE,FALSE,4,FALSE
"A10SUPT94QJPN7","Oct 05 2014","23:54:11",18,"Short","No-social","Zero",4,"Chrome",6,"Switch","Novel42",0,"Novel42",0,1406,"straightahead",-1,0,0,1,(Oct 05 2014 23:54:11),0,TRUE,FALSE,4,TRUE
"A10SUPT94QJPN7","Oct 05 2014","23:54:11",19,"Short","No-social","Zero",4,"Chrome",7,"Same","Novel92",1,"Novel92",1,5211,"straightahead",-1,0,1,0,(Oct 05 2014 23:54:11),0,TRUE,FALSE,4,TRUE
"A10SUPT94QJPN7","Oct 05 2014","23:54:11",20,"Short","No-social","Zero",4,"Chrome",7,"Same","Novel92",1,"Novel92",1,345,"straightahead",-1,0,0,1,(Oct 05 2014 23:54:11),0,TRUE,FALSE,4,TRUE
"A10XMNEAHIWMQX","Oct 05 2014","21:46:50",1,"Short","No-social","Zero",4,"Chrome",0,"Switch","squirrel",0,"",0,5932,"straightahead",-1,1,0,0,(Oct 05 2014 21:46:50),0,TRUE,FALSE,4,FALSE
"A10XMNEAHIWMQX","Oct 05 2014","21:46:50",2,"Short","No-social","Zero",4,"Chrome",0,"Switch","squirrel",0,"",0,4330,"straightahead",-1,1,0,0,(Oct 05 2014 21:46:50),0,TRUE,FALSE,4,FALSE
"A10XMNEAHIWMQX","Oct 05 2014","21:46:50",3,"Short","No-social","Zero",4,"Chrome",0,"Switch","tomato",1,"",0,2587,"straightahead",-1,1,0,0,(Oct 05 2014 21:46:50),0,TRUE,FALSE,4,FALSE
"A10XMNEAHIWMQX","Oct 05 2014","21:46:50",4,"Short","No-social","Zero",4,"Chrome",0,"Switch","tomato",2,"",0,958,"straightahead",-1,1,0,0,(Oct 05 2014 21:46:50),0,TRUE,FALSE,4,FALSE
"A10XMNEAHIWMQX","Oct 05 2014","21:46:50",5,"Short","No-social","Zero",4,"Chrome",0,"Switch","Novel96",2,"Novel84",1,13394,"straightahead",-1,0,1,0,(Oct 05 2014 21:46:50),0,TRUE,FALSE,4,FALSE
"A10XMNEAHIWMQX","Oct 05 2014","21:46:50",6,"Short","No-social","Zero",4,"Chrome",0,"Switch","Novel84",1,"Novel84",1,4876,"straightahead",-1,0,0,1,(Oct 05 2014 21:46:50),0,TRUE,TRUE,4,TRUE
"A10XMNEAHIWMQX","Oct 05 2014","21:46:50",7,"Short","No-social","Zero",4,"Chrome",1,"Same","Novel47",1,"Novel47",1,6767,"straightahead",-1,0,1,0,(Oct 05 2014 21:46:50),0,TRUE,FALSE,4,TRUE
"A10XMNEAHIWMQX","Oct 05 2014","21:46:50",8,"Short","No-social","Zero",4,"Chrome",1,"Same","Novel47",2,"Novel47",1,1553,"straightahead",-1,0,0,1,(Oct 05 2014 21:46:50),0,TRUE,FALSE,4,TRUE
"A10XMNEAHIWMQX","Oct 05 2014","21:46:50",9,"Short","No-social","Zero",4,"Chrome",2,"Switch","Novel103",1,"Novel92",2,6424,"straightahead",-1,0,1,0,(Oct 05 2014 21:46:50),0,TRUE,FALSE,4,FALSE
"A10XMNEAHIWMQX","Oct 05 2014","21:46:50",10,"Short","No-social","Zero",4,"Chrome",2,"Switch","Novel92",2,"Novel92",2,326,"straightahead",-1,0,0,1,(Oct 05 2014 21:46:50),0,TRUE,FALSE,4,TRUE
"A10XMNEAHIWMQX","Oct 05 2014","21:46:50",11,"Short","No-social","Zero",4,"Chrome",3,"Same","Novel22",0,"Novel22",0,7690,"straightahead",-1,0,1,0,(Oct 05 2014 21:46:50),0,TRUE,FALSE,4,TRUE
"A10XMNEAHIWMQX","Oct 05 2014","21:46:50",12,"Short","No-social","Zero",4,"Chrome",3,"Same","Novel22",3,"Novel22",0,1387,"straightahead",-1,0,0,1,(Oct 05 2014 21:46:50),0,TRUE,FALSE,4,TRUE
"A10XMNEAHIWMQX","Oct 05 2014","21:46:50",13,"Short","No-social","Zero",4,"Chrome",4,"Switch","Novel100",1,"Novel75",3,4246,"straightahead",-1,0,1,0,(Oct 05 2014 21:46:50),0,TRUE,FALSE,4,FALSE
"A10XMNEAHIWMQX","Oct 05 2014","21:46:50",14,"Short","No-social","Zero",4,"Chrome",4,"Switch","Novel75",0,"Novel75",3,682,"straightahead",-1,0,0,1,(Oct 05 2014 21:46:50),0,TRUE,FALSE,4,TRUE
"A10XMNEAHIWMQX","Oct 05 2014","21:46:50",15,"Short","No-social","Zero",4,"Chrome",5,"Same","Novel34",3,"Novel34",3,6568,"straightahead",-1,0,1,0,(Oct 05 2014 21:46:50),0,TRUE,FALSE,4,TRUE
"A10XMNEAHIWMQX","Oct 05 2014","21:46:50",16,"Short","No-social","Zero",4,"Chrome",5,"Same","Novel34",3,"Novel34",3,1579,"straightahead",-1,0,0,1,(Oct 05 2014 21:46:50),0,TRUE,FALSE,4,TRUE
"A10XMNEAHIWMQX","Oct 05 2014","21:46:50",17,"Short","No-social","Zero",4,"Chrome",6,"Switch","Novel111",2,"Novel26",1,2823,"straightahead",-1,0,1,0,(Oct 05 2014 21:46:50),0,TRUE,FALSE,4,FALSE
"A10XMNEAHIWMQX","Oct 05 2014","21:46:50",18,"Short","No-social","Zero",4,"Chrome",6,"Switch","Novel26",2,"Novel26",1,3171,"straightahead",-1,0,0,1,(Oct 05 2014 21:46:50),0,TRUE,FALSE,4,TRUE
"A10XMNEAHIWMQX","Oct 05 2014","21:46:50",19,"Short","No-social","Zero",4,"Chrome",7,"Same","Novel94",1,"Novel94",1,7761,"straightahead",-1,0,1,0,(Oct 05 2014 21:46:50),0,TRUE,FALSE,4,TRUE
"A10XMNEAHIWMQX","Oct 05 2014","21:46:50",20,"Short","No-social","Zero",4,"Chrome",7,"Same","Novel94",1,"Novel94",1,1413,"straightahead",-1,0,0,1,(Oct 05 2014 21:46:50),0,TRUE,FALSE,4,TRUE
"A11KP7FK5KS9H1","Oct 06 2014","14:12:56",1,"Noisy","Social","Zero",4,"Chrome",0,"Same","squirrel",0,"",0,2030,"straightahead",-1,1,0,0,(Oct 06 2014 14:12:56),0,TRUE,FALSE,4,FALSE
"A11KP7FK5KS9H1","Oct 06 2014","14:12:56",2,"Noisy","Social","Zero",4,"Chrome",0,"Same","squirrel",0,"",0,4458,"straightahead",-1,1,0,0,(Oct 06 2014 14:12:56),0,TRUE,FALSE,4,FALSE
"A11KP7FK5KS9H1","Oct 06 2014","14:12:56",3,"Noisy","Social","Zero",4,"Chrome",0,"Same","tomato",1,"",0,689,"straightahead",-1,1,0,0,(Oct 06 2014 14:12:56),0,TRUE,FALSE,4,FALSE
"A11KP7FK5KS9H1","Oct 06 2014","14:12:56",4,"Noisy","Social","Zero",4,"Chrome",0,"Same","tomato",2,"",0,519,"straightahead",-1,1,0,0,(Oct 06 2014 14:12:56),0,TRUE,FALSE,4,FALSE
"A11KP7FK5KS9H1","Oct 06 2014","14:12:56",5,"Noisy","Social","Zero",4,"Chrome",0,"Same","Novel123",0,"Novel123",0,6598,"noisyLD",0,0,1,0,(Oct 06 2014 14:12:56),0,TRUE,FALSE,4,TRUE
"A11KP7FK5KS9H1","Oct 06 2014","14:12:56",6,"Noisy","Social","Zero",4,"Chrome",0,"Same","Novel58",0,"Novel123",0,3457,"straightahead",-1,0,0,1,(Oct 06 2014 14:12:56),0,TRUE,TRUE,4,FALSE
"A11KP7FK5KS9H1","Oct 06 2014","14:12:56",7,"Noisy","Social","Zero",4,"Chrome",1,"Switch","Novel43",3,"Novel65",2,719,"noisyRD",2,0,1,0,(Oct 06 2014 14:12:56),0,TRUE,FALSE,4,FALSE
"A11KP7FK5KS9H1","Oct 06 2014","14:12:56",8,"Noisy","Social","Zero",4,"Chrome",1,"Switch","Novel65",3,"Novel65",2,1393,"straightahead",-1,0,0,1,(Oct 06 2014 14:12:56),0,TRUE,FALSE,4,TRUE
"A11KP7FK5KS9H1","Oct 06 2014","14:12:56",9,"Noisy","Social","Zero",4,"Chrome",2,"Same","Novel8",0,"Novel8",0,1445,"noisyLU",1,0,1,0,(Oct 06 2014 14:12:56),0,TRUE,FALSE,4,TRUE
"A11KP7FK5KS9H1","Oct 06 2014","14:12:56",10,"Noisy","Social","Zero",4,"Chrome",2,"Same","Novel8",0,"Novel8",0,431,"straightahead",-1,0,0,1,(Oct 06 2014 14:12:56),0,TRUE,FALSE,4,TRUE
"A11KP7FK5KS9H1","Oct 06 2014","14:12:56",11,"Noisy","Social","Zero",4,"Chrome",3,"Switch","Novel69",0,"Novel42",3,2028,"noisyLU",1,0,1,0,(Oct 06 2014 14:12:56),0,TRUE,FALSE,4,FALSE
"A11KP7FK5KS9H1","Oct 06 2014","14:12:56",12,"Noisy","Social","Zero",4,"Chrome",3,"Switch","Novel73",2,"Novel42",3,3254,"straightahead",-1,0,0,1,(Oct 06 2014 14:12:56),0,TRUE,FALSE,4,FALSE
"A11KP7FK5KS9H1","Oct 06 2014","14:12:56",13,"Noisy","Social","Zero",4,"Chrome",4,"Same","Novel105",1,"Novel105",1,1245,"noisyRU",3,0,1,0,(Oct 06 2014 14:12:56),0,TRUE,FALSE,4,TRUE
"A11KP7FK5KS9H1","Oct 06 2014","14:12:56",14,"Noisy","Social","Zero",4,"Chrome",4,"Same","Novel105",1,"Novel105",1,1582,"straightahead",-1,0,0,1,(Oct 06 2014 14:12:56),0,TRUE,FALSE,4,TRUE
"A11KP7FK5KS9H1","Oct 06 2014","14:12:56",15,"Noisy","Social","Zero",4,"Chrome",5,"Switch","Novel31",0,"Novel137",1,683,"noisyLU",1,0,1,0,(Oct 06 2014 14:12:56),0,TRUE,FALSE,4,FALSE
"A11KP7FK5KS9H1","Oct 06 2014","14:12:56",16,"Noisy","Social","Zero",4,"Chrome",5,"Switch","Novel117",0,"Novel137",1,2872,"straightahead",-1,0,0,1,(Oct 06 2014 14:12:56),0,TRUE,FALSE,4,FALSE
"A11KP7FK5KS9H1","Oct 06 2014","14:12:56",17,"Noisy","Social","Zero",4,"Chrome",6,"Same","Novel140",0,"Novel140",0,2128,"noisyLU",1,0,1,0,(Oct 06 2014 14:12:56),0,TRUE,FALSE,4,TRUE
"A11KP7FK5KS9H1","Oct 06 2014","14:12:56",18,"Noisy","Social","Zero",4,"Chrome",6,"Same","Novel140",2,"Novel140",0,381,"straightahead",-1,0,0,1,(Oct 06 2014 14:12:56),0,TRUE,FALSE,4,TRUE
"A11KP7FK5KS9H1","Oct 06 2014","14:12:56",19,"Noisy","Social","Zero",4,"Chrome",7,"Switch","Novel114",1,"Novel17",2,507,"noisyRU",3,0,1,0,(Oct 06 2014 14:12:56),0,TRUE,FALSE,4,FALSE
"A11KP7FK5KS9H1","Oct 06 2014","14:12:56",20,"Noisy","Social","Zero",4,"Chrome",7,"Switch","Novel17",2,"Novel17",2,2395,"straightahead",-1,0,0,1,(Oct 06 2014 14:12:56),0,TRUE,FALSE,4,TRUE
"A11O7VHY5Y5QUX","Oct 05 2014","22:19:47",1,"Short","Social","Zero",4,"Chrome",0,"Same","squirrel",0,"",0,3568,"straightahead",-1,1,0,0,(Oct 05 2014 22:19:47),0,TRUE,FALSE,4,FALSE
"A11O7VHY5Y5QUX","Oct 05 2014","22:19:47",2,"Short","Social","Zero",4,"Chrome",0,"Same","squirrel",0,"",0,1563,"straightahead",-1,1,0,0,(Oct 05 2014 22:19:47),0,TRUE,FALSE,4,FALSE
"A11O7VHY5Y5QUX","Oct 05 2014","22:19:47",3,"Short","Social","Zero",4,"Chrome",0,"Same","tomato",1,"",0,444,"straightahead",-1,1,0,0,(Oct 05 2014 22:19:47),0,TRUE,FALSE,4,FALSE
"A11O7VHY5Y5QUX","Oct 05 2014","22:19:47",4,"Short","Social","Zero",4,"Chrome",0,"Same","tomato",2,"",0,327,"straightahead",-1,1,0,0,(Oct 05 2014 22:19:47),0,TRUE,FALSE,4,FALSE
"A11O7VHY5Y5QUX","Oct 05 2014","22:19:47",5,"Short","Social","Zero",4,"Chrome",0,"Same","Novel76",1,"Novel76",1,336,"silentRUshort",3,0,1,0,(Oct 05 2014 22:19:47),0,TRUE,FALSE,4,TRUE
"A11O7VHY5Y5QUX","Oct 05 2014","22:19:47",6,"Short","Social","Zero",4,"Chrome",0,"Same","Novel76",1,"Novel76",1,1294,"straightahead",-1,0,0,1,(Oct 05 2014 22:19:47),0,TRUE,TRUE,4,TRUE
"A11O7VHY5Y5QUX","Oct 05 2014","22:19:47",7,"Short","Social","Zero",4,"Chrome",1,"Switch","Novel83",2,"Novel23",1,1546,"silentLDshort",0,0,1,0,(Oct 05 2014 22:19:47),0,TRUE,FALSE,4,FALSE
"A11O7VHY5Y5QUX","Oct 05 2014","22:19:47",8,"Short","Social","Zero",4,"Chrome",1,"Switch","Novel137",2,"Novel23",1,2074,"straightahead",-1,0,0,1,(Oct 05 2014 22:19:47),0,TRUE,FALSE,4,FALSE
"A11O7VHY5Y5QUX","Oct 05 2014","22:19:47",9,"Short","Social","Zero",4,"Chrome",2,"Same","Novel98",1,"Novel98",1,357,"silentRUshort",3,0,1,0,(Oct 05 2014 22:19:47),0,TRUE,FALSE,4,TRUE
"A11O7VHY5Y5QUX","Oct 05 2014","22:19:47",10,"Short","Social","Zero",4,"Chrome",2,"Same","Novel98",1,"Novel98",1,2373,"straightahead",-1,0,0,1,(Oct 05 2014 22:19:47),0,TRUE,FALSE,4,TRUE
"A11O7VHY5Y5QUX","Oct 05 2014","22:19:47",11,"Short","Social","Zero",4,"Chrome",3,"Switch","Novel59",0,"Novel46",3,296,"silentLUshort",1,0,1,0,(Oct 05 2014 22:19:47),0,TRUE,FALSE,4,FALSE
"A11O7VHY5Y5QUX","Oct 05 2014","22:19:47",12,"Short","Social","Zero",4,"Chrome",3,"Switch","Novel134",2,"Novel46",3,394,"straightahead",-1,0,0,1,(Oct 05 2014 22:19:47),0,TRUE,FALSE,4,FALSE
"A11O7VHY5Y5QUX","Oct 05 2014","22:19:47",13,"Short","Social","Zero",4,"Chrome",4,"Same","Novel84",3,"Novel84",3,469,"silentRDshort",2,0,1,0,(Oct 05 2014 22:19:47),0,TRUE,FALSE,4,TRUE
"A11O7VHY5Y5QUX","Oct 05 2014","22:19:47",14,"Short","Social","Zero",4,"Chrome",4,"Same","Novel84",1,"Novel84",3,445,"straightahead",-1,0,0,1,(Oct 05 2014 22:19:47),0,TRUE,FALSE,4,TRUE
"A11O7VHY5Y5QUX","Oct 05 2014","22:19:47",15,"Short","Social","Zero",4,"Chrome",5,"Switch","Novel99",1,"Novel38",2,295,"silentRUshort",3,0,1,0,(Oct 05 2014 22:19:47),0,TRUE,FALSE,4,FALSE
"A11O7VHY5Y5QUX","Oct 05 2014","22:19:47",16,"Short","Social","Zero",4,"Chrome",5,"Switch","Novel91",1,"Novel38",2,1732,"straightahead",-1,0,0,1,(Oct 05 2014 22:19:47),0,TRUE,FALSE,4,FALSE
"A11O7VHY5Y5QUX","Oct 05 2014","22:19:47",17,"Short","Social","Zero",4,"Chrome",6,"Same","Novel48",0,"Novel48",0,565,"silentLUshort",1,0,1,0,(Oct 05 2014 22:19:47),0,TRUE,FALSE,4,TRUE
"A11O7VHY5Y5QUX","Oct 05 2014","22:19:47",18,"Short","Social","Zero",4,"Chrome",6,"Same","Novel48",2,"Novel48",0,1867,"straightahead",-1,0,0,1,(Oct 05 2014 22:19:47),0,TRUE,FALSE,4,TRUE
"A11O7VHY5Y5QUX","Oct 05 2014","22:19:47",19,"Short","Social","Zero",4,"Chrome",7,"Switch","Novel39",2,"Novel27",1,389,"silentLDshort",0,0,1,0,(Oct 05 2014 22:19:47),0,TRUE,FALSE,4,FALSE
"A11O7VHY5Y5QUX","Oct 05 2014","22:19:47",20,"Short","Social","Zero",4,"Chrome",7,"Switch","Novel13",2,"Novel27",1,2781,"straightahead",-1,0,0,1,(Oct 05 2014 22:19:47),0,TRUE,FALSE,4,FALSE
"A12J9J42MYQDRY","Oct 06 2014","06:54:18",1,"Short","No-social","Zero",4,"Chrome",0,"Same","squirrel",0,"",0,742,"straightahead",-1,1,0,0,(Oct 06 2014 06:54:18),0,TRUE,FALSE,4,FALSE
"A12J9J42MYQDRY","Oct 06 2014","06:54:18",2,"Short","No-social","Zero",4,"Chrome",0,"Same","squirrel",0,"",0,84,"straightahead",-1,1,0,0,(Oct 06 2014 06:54:18),0,TRUE,FALSE,4,FALSE
"A12J9J42MYQDRY","Oct 06 2014","06:54:18",3,"Short","No-social","Zero",4,"Chrome",0,"Same","tomato",1,"",0,205,"straightahead",-1,1,0,0,(Oct 06 2014 06:54:18),0,TRUE,FALSE,4,FALSE
"A12J9J42MYQDRY","Oct 06 2014","06:54:18",4,"Short","No-social","Zero",4,"Chrome",0,"Same","tomato",2,"",0,203,"straightahead",-1,1,0,0,(Oct 06 2014 06:54:18),0,TRUE,FALSE,4,FALSE
"A12J9J42MYQDRY","Oct 06 2014","06:54:18",5,"Short","No-social","Zero",4,"Chrome",0,"Same","Novel76",1,"Novel76",1,1268,"straightahead",-1,0,1,0,(Oct 06 2014 06:54:18),0,TRUE,FALSE,4,TRUE
"A12J9J42MYQDRY","Oct 06 2014","06:54:18",6,"Short","No-social","Zero",4,"Chrome",0,"Same","Novel76",0,"Novel76",1,342,"straightahead",-1,0,0,1,(Oct 06 2014 06:54:18),0,TRUE,TRUE,4,TRUE
"A12J9J42MYQDRY","Oct 06 2014","06:54:18",7,"Short","No-social","Zero",4,"Chrome",1,"Switch","Novel133",1,"Novel45",0,729,"straightahead",-1,0,1,0,(Oct 06 2014 06:54:18),0,TRUE,FALSE,4,FALSE
"A12J9J42MYQDRY","Oct 06 2014","06:54:18",8,"Short","No-social","Zero",4,"Chrome",1,"Switch","Novel139",0,"Novel45",0,1540,"straightahead",-1,0,0,1,(Oct 06 2014 06:54:18),0,TRUE,FALSE,4,FALSE
"A12J9J42MYQDRY","Oct 06 2014","06:54:18",9,"Short","No-social","Zero",4,"Chrome",2,"Same","Novel2",3,"Novel2",3,911,"straightahead",-1,0,1,0,(Oct 06 2014 06:54:18),0,TRUE,FALSE,4,TRUE
"A12J9J42MYQDRY","Oct 06 2014","06:54:18",10,"Short","No-social","Zero",4,"Chrome",2,"Same","Novel2",3,"Novel2",3,89,"straightahead",-1,0,0,1,(Oct 06 2014 06:54:18),0,TRUE,FALSE,4,TRUE
"A12J9J42MYQDRY","Oct 06 2014","06:54:18",11,"Short","No-social","Zero",4,"Chrome",3,"Switch","Novel42",2,"Novel75",3,986,"straightahead",-1,0,1,0,(Oct 06 2014 06:54:18),0,TRUE,FALSE,4,FALSE
"A12J9J42MYQDRY","Oct 06 2014","06:54:18",12,"Short","No-social","Zero",4,"Chrome",3,"Switch","Novel75",3,"Novel75",3,1730,"straightahead",-1,0,0,1,(Oct 06 2014 06:54:18),0,TRUE,FALSE,4,TRUE
"A12J9J42MYQDRY","Oct 06 2014","06:54:18",13,"Short","No-social","Zero",4,"Chrome",4,"Same","Novel62",0,"Novel62",0,1300,"straightahead",-1,0,1,0,(Oct 06 2014 06:54:18),0,TRUE,FALSE,4,TRUE
"A12J9J42MYQDRY","Oct 06 2014","06:54:18",14,"Short","No-social","Zero",4,"Chrome",4,"Same","Novel62",1,"Novel62",0,34,"straightahead",-1,0,0,1,(Oct 06 2014 06:54:18),0,TRUE,FALSE,4,TRUE
"A12J9J42MYQDRY","Oct 06 2014","06:54:18",15,"Short","No-social","Zero",4,"Chrome",5,"Switch","Novel103",0,"Novel105",2,1010,"straightahead",-1,0,1,0,(Oct 06 2014 06:54:18),0,TRUE,FALSE,4,FALSE
"A12J9J42MYQDRY","Oct 06 2014","06:54:18",16,"Short","No-social","Zero",4,"Chrome",5,"Switch","Novel105",2,"Novel105",2,1654,"straightahead",-1,0,0,1,(Oct 06 2014 06:54:18),0,TRUE,FALSE,4,TRUE
"A12J9J42MYQDRY","Oct 06 2014","06:54:18",17,"Short","No-social","Zero",4,"Chrome",6,"Same","Novel91",3,"Novel91",3,1317,"straightahead",-1,0,1,0,(Oct 06 2014 06:54:18),0,TRUE,FALSE,4,TRUE
"A12J9J42MYQDRY","Oct 06 2014","06:54:18",18,"Short","No-social","Zero",4,"Chrome",6,"Same","Novel91",3,"Novel91",3,35,"straightahead",-1,0,0,1,(Oct 06 2014 06:54:18),0,TRUE,FALSE,4,TRUE
"A12J9J42MYQDRY","Oct 06 2014","06:54:18",19,"Short","No-social","Zero",4,"Chrome",7,"Switch","Novel132",0,"Novel18",3,1107,"straightahead",-1,0,1,0,(Oct 06 2014 06:54:18),0,TRUE,FALSE,4,FALSE
"A12J9J42MYQDRY","Oct 06 2014","06:54:18",20,"Short","No-social","Zero",4,"Chrome",7,"Switch","Novel18",1,"Novel18",3,1422,"straightahead",-1,0,0,1,(Oct 06 2014 06:54:18),0,TRUE,FALSE,4,TRUE
"A12P82FBYLICKS","Oct 06 2014","02:53:03",1,"Short","No-social","Zero",4,"Chrome",0,"Switch","squirrel",0,"",0,1346,"straightahead",-1,1,0,0,(Oct 06 2014 02:53:03),0,TRUE,FALSE,4,FALSE
"A12P82FBYLICKS","Oct 06 2014","02:53:03",2,"Short","No-social","Zero",4,"Chrome",0,"Switch","squirrel",0,"",0,193,"straightahead",-1,1,0,0,(Oct 06 2014 02:53:03),0,TRUE,FALSE,4,FALSE
"A12P82FBYLICKS","Oct 06 2014","02:53:03",3,"Short","No-social","Zero",4,"Chrome",0,"Switch","tomato",1,"",0,1394,"straightahead",-1,1,0,0,(Oct 06 2014 02:53:03),0,TRUE,FALSE,4,FALSE
"A12P82FBYLICKS","Oct 06 2014","02:53:03",4,"Short","No-social","Zero",4,"Chrome",0,"Switch","tomato",2,"",0,967,"straightahead",-1,1,0,0,(Oct 06 2014 02:53:03),0,TRUE,FALSE,4,FALSE
"A12P82FBYLICKS","Oct 06 2014","02:53:03",5,"Short","No-social","Zero",4,"Chrome",0,"Switch","Novel123",1,"Novel121",3,3025,"straightahead",-1,0,1,0,(Oct 06 2014 02:53:03),0,TRUE,FALSE,4,FALSE
"A12P82FBYLICKS","Oct 06 2014","02:53:03",6,"Short","No-social","Zero",4,"Chrome",0,"Switch","Novel121",3,"Novel121",3,3518,"straightahead",-1,0,0,1,(Oct 06 2014 02:53:03),0,TRUE,TRUE,4,TRUE
"A12P82FBYLICKS","Oct 06 2014","02:53:03",7,"Short","No-social","Zero",4,"Chrome",1,"Same","Novel13",3,"Novel13",3,1839,"straightahead",-1,0,1,0,(Oct 06 2014 02:53:03),0,TRUE,FALSE,4,TRUE
"A12P82FBYLICKS","Oct 06 2014","02:53:03",8,"Short","No-social","Zero",4,"Chrome",1,"Same","Novel13",3,"Novel13",3,305,"straightahead",-1,0,0,1,(Oct 06 2014 02:53:03),0,TRUE,FALSE,4,TRUE
"A12P82FBYLICKS","Oct 06 2014","02:53:03",9,"Short","No-social","Zero",4,"Chrome",2,"Switch","Novel32",0,"Novel35",2,1822,"straightahead",-1,0,1,0,(Oct 06 2014 02:53:03),0,TRUE,FALSE,4,FALSE
"A12P82FBYLICKS","Oct 06 2014","02:53:03",10,"Short","No-social","Zero",4,"Chrome",2,"Switch","Novel35",2,"Novel35",2,2770,"straightahead",-1,0,0,1,(Oct 06 2014 02:53:03),0,TRUE,FALSE,4,TRUE
"A12P82FBYLICKS","Oct 06 2014","02:53:03",11,"Short","No-social","Zero",4,"Chrome",3,"Same","Novel97",1,"Novel97",1,835,"straightahead",-1,0,1,0,(Oct 06 2014 02:53:03),0,TRUE,FALSE,4,TRUE
"A12P82FBYLICKS","Oct 06 2014","02:53:03",12,"Short","No-social","Zero",4,"Chrome",3,"Same","Novel97",0,"Novel97",1,14,"straightahead",-1,0,0,1,(Oct 06 2014 02:53:03),0,TRUE,FALSE,4,TRUE
"A12P82FBYLICKS","Oct 06 2014","02:53:03",13,"Short","No-social","Zero",4,"Chrome",4,"Switch","Novel127",2,"Novel46",1,1874,"straightahead",-1,0,1,0,(Oct 06 2014 02:53:03),0,TRUE,FALSE,4,FALSE
"A12P82FBYLICKS","Oct 06 2014","02:53:03",14,"Short","No-social","Zero",4,"Chrome",4,"Switch","Novel65",0,"Novel46",1,1303,"straightahead",-1,0,0,1,(Oct 06 2014 02:53:03),0,TRUE,FALSE,4,FALSE
"A12P82FBYLICKS","Oct 06 2014","02:53:03",15,"Short","No-social","Zero",4,"Chrome",5,"Same","Novel66",1,"Novel66",1,1123,"straightahead",-1,0,1,0,(Oct 06 2014 02:53:03),0,TRUE,FALSE,4,TRUE
"A12P82FBYLICKS","Oct 06 2014","02:53:03",16,"Short","No-social","Zero",4,"Chrome",5,"Same","Novel66",1,"Novel66",1,371,"straightahead",-1,0,0,1,(Oct 06 2014 02:53:03),0,TRUE,FALSE,4,TRUE
"A12P82FBYLICKS","Oct 06 2014","02:53:03",17,"Short","No-social","Zero",4,"Chrome",6,"Switch","Novel14",1,"Novel80",2,1073,"straightahead",-1,0,1,0,(Oct 06 2014 02:53:03),0,TRUE,FALSE,4,FALSE
"A12P82FBYLICKS","Oct 06 2014","02:53:03",18,"Short","No-social","Zero",4,"Chrome",6,"Switch","Novel101",3,"Novel80",2,551,"straightahead",-1,0,0,1,(Oct 06 2014 02:53:03),0,TRUE,FALSE,4,FALSE
"A12P82FBYLICKS","Oct 06 2014","02:53:03",19,"Short","No-social","Zero",4,"Chrome",7,"Same","Novel109",0,"Novel109",0,1625,"straightahead",-1,0,1,0,(Oct 06 2014 02:53:03),0,TRUE,FALSE,4,TRUE
"A12P82FBYLICKS","Oct 06 2014","02:53:03",20,"Short","No-social","Zero",4,"Chrome",7,"Same","Novel109",3,"Novel109",0,38,"straightahead",-1,0,0,1,(Oct 06 2014 02:53:03),0,TRUE,FALSE,4,TRUE
"A12WRJ2ZMDW3SU","Oct 05 2014","21:23:03",1,"Noisy","Social","Zero",4,"Chrome",0,"Switch","squirrel",0,"",0,3971,"straightahead",-1,1,0,0,(Oct 05 2014 21:23:03),0,TRUE,FALSE,4,FALSE
"A12WRJ2ZMDW3SU","Oct 05 2014","21:23:03",2,"Noisy","Social","Zero",4,"Chrome",0,"Switch","squirrel",0,"",0,1458,"straightahead",-1,1,0,0,(Oct 05 2014 21:23:03),0,TRUE,FALSE,4,FALSE
"A12WRJ2ZMDW3SU","Oct 05 2014","21:23:03",3,"Noisy","Social","Zero",4,"Chrome",0,"Switch","tomato",1,"",0,936,"straightahead",-1,1,0,0,(Oct 05 2014 21:23:03),0,TRUE,FALSE,4,FALSE
"A12WRJ2ZMDW3SU","Oct 05 2014","21:23:03",4,"Noisy","Social","Zero",4,"Chrome",0,"Switch","tomato",2,"",0,445,"straightahead",-1,1,0,0,(Oct 05 2014 21:23:03),0,TRUE,FALSE,4,FALSE
"A12WRJ2ZMDW3SU","Oct 05 2014","21:23:03",5,"Noisy","Social","Zero",4,"Chrome",0,"Switch","Novel52",3,"Novel11",0,4759,"noisyRD",2,0,1,0,(Oct 05 2014 21:23:03),0,TRUE,FALSE,4,FALSE
"A12WRJ2ZMDW3SU","Oct 05 2014","21:23:03",6,"Noisy","Social","Zero",4,"Chrome",0,"Switch","Novel86",2,"Novel11",0,5740,"straightahead",-1,0,0,1,(Oct 05 2014 21:23:03),0,TRUE,TRUE,4,FALSE
"A12WRJ2ZMDW3SU","Oct 05 2014","21:23:03",7,"Noisy","Social","Zero",4,"Chrome",1,"Same","Novel26",1,"Novel26",1,3243,"noisyRU",3,0,1,0,(Oct 05 2014 21:23:03),0,TRUE,FALSE,4,TRUE
"A12WRJ2ZMDW3SU","Oct 05 2014","21:23:03",8,"Noisy","Social","Zero",4,"Chrome",1,"Same","Novel26",1,"Novel26",1,134,"straightahead",-1,0,0,1,(Oct 05 2014 21:23:03),0,TRUE,FALSE,4,TRUE
"A12WRJ2ZMDW3SU","Oct 05 2014","21:23:03",9,"Noisy","Social","Zero",4,"Chrome",2,"Switch","Novel81",0,"Novel102",1,1848,"noisyLU",1,0,1,0,(Oct 05 2014 21:23:03),0,TRUE,FALSE,4,FALSE
"A12WRJ2ZMDW3SU","Oct 05 2014","21:23:03",10,"Noisy","Social","Zero",4,"Chrome",2,"Switch","Novel102",2,"Novel102",1,1434,"straightahead",-1,0,0,1,(Oct 05 2014 21:23:03),0,TRUE,FALSE,4,TRUE
"A12WRJ2ZMDW3SU","Oct 05 2014","21:23:03",11,"Noisy","Social","Zero",4,"Chrome",3,"Same","Novel135",3,"Novel135",3,4544,"noisyRD",2,0,1,0,(Oct 05 2014 21:23:03),0,TRUE,FALSE,4,TRUE
"A12WRJ2ZMDW3SU","Oct 05 2014","21:23:03",12,"Noisy","Social","Zero",4,"Chrome",3,"Same","Novel135",3,"Novel135",3,500,"straightahead",-1,0,0,1,(Oct 05 2014 21:23:03),0,TRUE,FALSE,4,TRUE
"A12WRJ2ZMDW3SU","Oct 05 2014","21:23:03",13,"Noisy","Social","Zero",4,"Chrome",4,"Switch","Novel118",3,"Novel8",1,2459,"noisyRD",2,0,1,0,(Oct 05 2014 21:23:03),0,TRUE,FALSE,4,FALSE
"A12WRJ2ZMDW3SU","Oct 05 2014","21:23:03",14,"Noisy","Social","Zero",4,"Chrome",4,"Switch","Novel104",1,"Novel8",1,3793,"straightahead",-1,0,0,1,(Oct 05 2014 21:23:03),0,TRUE,FALSE,4,FALSE
"A12WRJ2ZMDW3SU","Oct 05 2014","21:23:03",15,"Noisy","Social","Zero",4,"Chrome",5,"Same","Novel131",3,"Novel131",3,3343,"noisyRD",2,0,1,0,(Oct 05 2014 21:23:03),0,TRUE,FALSE,4,TRUE
"A12WRJ2ZMDW3SU","Oct 05 2014","21:23:03",16,"Noisy","Social","Zero",4,"Chrome",5,"Same","Novel131",2,"Novel131",3,2418,"straightahead",-1,0,0,1,(Oct 05 2014 21:23:03),0,TRUE,FALSE,4,TRUE
"A12WRJ2ZMDW3SU","Oct 05 2014","21:23:03",17,"Noisy","Social","Zero",4,"Chrome",6,"Switch","Novel112",0,"Novel27",2,2774,"noisyLU",1,0,1,0,(Oct 05 2014 21:23:03),0,TRUE,FALSE,4,FALSE
"A12WRJ2ZMDW3SU","Oct 05 2014","21:23:03",18,"Noisy","Social","Zero",4,"Chrome",6,"Switch","Novel75",3,"Novel27",2,2159,"straightahead",-1,0,0,1,(Oct 05 2014 21:23:03),0,TRUE,FALSE,4,FALSE
"A12WRJ2ZMDW3SU","Oct 05 2014","21:23:03",19,"Noisy","Social","Zero",4,"Chrome",7,"Same","Novel68",1,"Novel68",1,4355,"noisyRU",3,0,1,0,(Oct 05 2014 21:23:03),0,TRUE,FALSE,4,TRUE
"A12WRJ2ZMDW3SU","Oct 05 2014","21:23:03",20,"Noisy","Social","Zero",4,"Chrome",7,"Same","Novel68",3,"Novel68",1,1015,"straightahead",-1,0,0,1,(Oct 05 2014 21:23:03),0,TRUE,FALSE,4,TRUE
"A13SS3GOERY6GP","Oct 06 2014","08:17:36",1,"Short","Social","Zero",4,"Safari",0,"Switch","squirrel",0,"",0,7621,"straightahead",-1,1,0,0,(Oct 06 2014 08:17:36),0,TRUE,FALSE,4,FALSE
"A13SS3GOERY6GP","Oct 06 2014","08:17:36",2,"Short","Social","Zero",4,"Safari",0,"Switch","squirrel",0,"",0,1991,"straightahead",-1,1,0,0,(Oct 06 2014 08:17:36),0,TRUE,FALSE,4,FALSE
"A13SS3GOERY6GP","Oct 06 2014","08:17:36",3,"Short","Social","Zero",4,"Safari",0,"Switch","tomato",1,"",0,2929,"straightahead",-1,1,0,0,(Oct 06 2014 08:17:36),0,TRUE,FALSE,4,FALSE
"A13SS3GOERY6GP","Oct 06 2014","08:17:36",4,"Short","Social","Zero",4,"Safari",0,"Switch","tomato",2,"",0,2318,"straightahead",-1,1,0,0,(Oct 06 2014 08:17:36),0,TRUE,FALSE,4,FALSE
"A13SS3GOERY6GP","Oct 06 2014","08:17:36",5,"Short","Social","Zero",4,"Safari",0,"Switch","Novel38",3,"Novel20",1,4434,"silentRDshort",2,0,1,0,(Oct 06 2014 08:17:36),0,TRUE,FALSE,4,FALSE
"A13SS3GOERY6GP","Oct 06 2014","08:17:36",6,"Short","Social","Zero",4,"Safari",0,"Switch","Novel20",2,"Novel20",1,4388,"straightahead",-1,0,0,1,(Oct 06 2014 08:17:36),0,TRUE,TRUE,4,TRUE
"A13SS3GOERY6GP","Oct 06 2014","08:17:36",7,"Short","Social","Zero",4,"Safari",1,"Same","Novel55",1,"Novel55",1,2857,"silentRUshort",3,0,1,0,(Oct 06 2014 08:17:36),0,TRUE,FALSE,4,TRUE
"A13SS3GOERY6GP","Oct 06 2014","08:17:36",8,"Short","Social","Zero",4,"Safari",1,"Same","Novel55",3,"Novel55",1,1036,"straightahead",-1,0,0,1,(Oct 06 2014 08:17:36),0,TRUE,FALSE,4,TRUE
"A13SS3GOERY6GP","Oct 06 2014","08:17:36",9,"Short","Social","Zero",4,"Safari",2,"Switch","Novel37",3,"Novel139",2,1478,"silentRDshort",2,0,1,0,(Oct 06 2014 08:17:36),0,TRUE,FALSE,4,FALSE
"A13SS3GOERY6GP","Oct 06 2014","08:17:36",10,"Short","Social","Zero",4,"Safari",2,"Switch","Novel109",1,"Novel139",2,2529,"straightahead",-1,0,0,1,(Oct 06 2014 08:17:36),0,TRUE,FALSE,4,FALSE
"A13SS3GOERY6GP","Oct 06 2014","08:17:36",11,"Short","Social","Zero",4,"Safari",3,"Same","Novel65",1,"Novel65",1,7144,"silentRUshort",3,0,1,0,(Oct 06 2014 08:17:36),0,TRUE,FALSE,4,TRUE
"A13SS3GOERY6GP","Oct 06 2014","08:17:36",12,"Short","Social","Zero",4,"Safari",3,"Same","Novel65",1,"Novel65",1,297,"straightahead",-1,0,0,1,(Oct 06 2014 08:17:36),0,TRUE,FALSE,4,TRUE
"A13SS3GOERY6GP","Oct 06 2014","08:17:36",13,"Short","Social","Zero",4,"Safari",4,"Switch","Novel32",2,"Novel52",0,3943,"silentLDshort",0,0,1,0,(Oct 06 2014 08:17:36),0,TRUE,FALSE,4,FALSE
"A13SS3GOERY6GP","Oct 06 2014","08:17:36",14,"Short","Social","Zero",4,"Safari",4,"Switch","Novel52",0,"Novel52",0,837,"straightahead",-1,0,0,1,(Oct 06 2014 08:17:36),0,TRUE,FALSE,4,TRUE
"A13SS3GOERY6GP","Oct 06 2014","08:17:36",15,"Short","Social","Zero",4,"Safari",5,"Same","Novel50",3,"Novel50",3,7740,"silentRDshort",2,0,1,0,(Oct 06 2014 08:17:36),0,TRUE,FALSE,4,TRUE
"A13SS3GOERY6GP","Oct 06 2014","08:17:36",16,"Short","Social","Zero",4,"Safari",5,"Same","Novel50",3,"Novel50",3,309,"straightahead",-1,0,0,1,(Oct 06 2014 08:17:36),0,TRUE,FALSE,4,TRUE
"A13SS3GOERY6GP","Oct 06 2014","08:17:36",17,"Short","Social","Zero",4,"Safari",6,"Switch","Novel81",3,"Novel126",0,5821,"silentRDshort",2,0,1,0,(Oct 06 2014 08:17:36),0,TRUE,FALSE,4,FALSE
"A13SS3GOERY6GP","Oct 06 2014","08:17:36",18,"Short","Social","Zero",4,"Safari",6,"Switch","Novel126",0,"Novel126",0,360,"straightahead",-1,0,0,1,(Oct 06 2014 08:17:36),0,TRUE,FALSE,4,TRUE
"A13SS3GOERY6GP","Oct 06 2014","08:17:36",19,"Short","Social","Zero",4,"Safari",7,"Same","Novel138",1,"Novel138",1,5700,"silentRUshort",3,0,1,0,(Oct 06 2014 08:17:36),0,TRUE,FALSE,4,TRUE
"A13SS3GOERY6GP","Oct 06 2014","08:17:36",20,"Short","Social","Zero",4,"Safari",7,"Same","Novel138",0,"Novel138",1,695,"straightahead",-1,0,0,1,(Oct 06 2014 08:17:36),0,TRUE,FALSE,4,TRUE
"A13V5VK2KVLTBC","Oct 06 2014","12:30:59",1,"Short","No-social","Zero",4,"Chrome",0,"Switch","squirrel",0,"",0,1431,"straightahead",-1,1,0,0,(Oct 06 2014 12:30:59),0,TRUE,FALSE,4,FALSE
"A13V5VK2KVLTBC","Oct 06 2014","12:30:59",2,"Short","No-social","Zero",4,"Chrome",0,"Switch","squirrel",0,"",0,100,"straightahead",-1,1,0,0,(Oct 06 2014 12:30:59),0,TRUE,FALSE,4,FALSE
"A13V5VK2KVLTBC","Oct 06 2014","12:30:59",3,"Short","No-social","Zero",4,"Chrome",0,"Switch","tomato",1,"",0,9,"straightahead",-1,1,0,0,(Oct 06 2014 12:30:59),0,TRUE,FALSE,4,FALSE
"A13V5VK2KVLTBC","Oct 06 2014","12:30:59",4,"Short","No-social","Zero",4,"Chrome",0,"Switch","tomato",2,"",0,1250,"straightahead",-1,1,0,0,(Oct 06 2014 12:30:59),0,TRUE,FALSE,4,FALSE
"A13V5VK2KVLTBC","Oct 06 2014","12:30:59",5,"Short","No-social","Zero",4,"Chrome",0,"Switch","Novel17",3,"Novel120",1,1832,"straightahead",-1,0,1,0,(Oct 06 2014 12:30:59),0,TRUE,FALSE,4,FALSE
"A13V5VK2KVLTBC","Oct 06 2014","12:30:59",6,"Short","No-social","Zero",4,"Chrome",0,"Switch","Novel27",0,"Novel120",1,3470,"straightahead",-1,0,0,1,(Oct 06 2014 12:30:59),0,TRUE,TRUE,4,FALSE
"A13V5VK2KVLTBC","Oct 06 2014","12:30:59",7,"Short","No-social","Zero",4,"Chrome",1,"Same","Novel29",2,"Novel29",2,1781,"straightahead",-1,0,1,0,(Oct 06 2014 12:30:59),0,TRUE,FALSE,4,TRUE
"A13V5VK2KVLTBC","Oct 06 2014","12:30:59",8,"Short","No-social","Zero",4,"Chrome",1,"Same","Novel29",2,"Novel29",2,3138,"straightahead",-1,0,0,1,(Oct 06 2014 12:30:59),0,TRUE,FALSE,4,TRUE
"A13V5VK2KVLTBC","Oct 06 2014","12:30:59",9,"Short","No-social","Zero",4,"Chrome",2,"Switch","Novel91",1,"Novel57",3,730,"straightahead",-1,0,1,0,(Oct 06 2014 12:30:59),0,TRUE,FALSE,4,FALSE
"A13V5VK2KVLTBC","Oct 06 2014","12:30:59",10,"Short","No-social","Zero",4,"Chrome",2,"Switch","Novel57",3,"Novel57",3,1554,"straightahead",-1,0,0,1,(Oct 06 2014 12:30:59),0,TRUE,FALSE,4,TRUE
"A13V5VK2KVLTBC","Oct 06 2014","12:30:59",11,"Short","No-social","Zero",4,"Chrome",3,"Same","Novel45",2,"Novel45",2,1710,"straightahead",-1,0,1,0,(Oct 06 2014 12:30:59),0,TRUE,FALSE,4,TRUE
"A13V5VK2KVLTBC","Oct 06 2014","12:30:59",12,"Short","No-social","Zero",4,"Chrome",3,"Same","Novel45",1,"Novel45",2,1423,"straightahead",-1,0,0,1,(Oct 06 2014 12:30:59),0,TRUE,FALSE,4,TRUE
"A13V5VK2KVLTBC","Oct 06 2014","12:30:59",13,"Short","No-social","Zero",4,"Chrome",4,"Switch","Novel9",0,"Novel16",1,1026,"straightahead",-1,0,1,0,(Oct 06 2014 12:30:59),0,TRUE,FALSE,4,FALSE
"A13V5VK2KVLTBC","Oct 06 2014","12:30:59",14,"Short","No-social","Zero",4,"Chrome",4,"Switch","Novel16",1,"Novel16",1,2150,"straightahead",-1,0,0,1,(Oct 06 2014 12:30:59),0,TRUE,FALSE,4,TRUE
"A13V5VK2KVLTBC","Oct 06 2014","12:30:59",15,"Short","No-social","Zero",4,"Chrome",5,"Same","Novel54",1,"Novel54",1,584,"straightahead",-1,0,1,0,(Oct 06 2014 12:30:59),0,TRUE,FALSE,4,TRUE
"A13V5VK2KVLTBC","Oct 06 2014","12:30:59",16,"Short","No-social","Zero",4,"Chrome",5,"Same","Novel54",1,"Novel54",1,380,"straightahead",-1,0,0,1,(Oct 06 2014 12:30:59),0,TRUE,FALSE,4,TRUE
"A13V5VK2KVLTBC","Oct 06 2014","12:30:59",17,"Short","No-social","Zero",4,"Chrome",6,"Switch","Novel125",1,"Novel61",3,870,"straightahead",-1,0,1,0,(Oct 06 2014 12:30:59),0,TRUE,FALSE,4,FALSE
"A13V5VK2KVLTBC","Oct 06 2014","12:30:59",18,"Short","No-social","Zero",4,"Chrome",6,"Switch","Novel37",0,"Novel61",3,1104,"straightahead",-1,0,0,1,(Oct 06 2014 12:30:59),0,TRUE,FALSE,4,FALSE
"A13V5VK2KVLTBC","Oct 06 2014","12:30:59",19,"Short","No-social","Zero",4,"Chrome",7,"Same","Novel4",3,"Novel4",3,1104,"straightahead",-1,0,1,0,(Oct 06 2014 12:30:59),0,TRUE,FALSE,4,TRUE
"A13V5VK2KVLTBC","Oct 06 2014","12:30:59",20,"Short","No-social","Zero",4,"Chrome",7,"Same","Novel4",1,"Novel4",3,353,"straightahead",-1,0,0,1,(Oct 06 2014 12:30:59),0,TRUE,FALSE,4,TRUE
"A13XNKKN2LI6DF","Oct 06 2014","07:28:56",1,"Noisy","Social","Zero",4,"Chrome",0,"Same","squirrel",0,"",0,716,"straightahead",-1,1,0,0,(Oct 06 2014 07:28:56),0,TRUE,FALSE,4,FALSE
"A13XNKKN2LI6DF","Oct 06 2014","07:28:56",2,"Noisy","Social","Zero",4,"Chrome",0,"Same","squirrel",0,"",0,804,"straightahead",-1,1,0,0,(Oct 06 2014 07:28:56),0,TRUE,FALSE,4,FALSE
"A13XNKKN2LI6DF","Oct 06 2014","07:28:56",3,"Noisy","Social","Zero",4,"Chrome",0,"Same","tomato",1,"",0,84,"straightahead",-1,1,0,0,(Oct 06 2014 07:28:56),0,TRUE,FALSE,4,FALSE
"A13XNKKN2LI6DF","Oct 06 2014","07:28:56",4,"Noisy","Social","Zero",4,"Chrome",0,"Same","tomato",2,"",0,451,"straightahead",-1,1,0,0,(Oct 06 2014 07:28:56),0,TRUE,FALSE,4,FALSE
"A13XNKKN2LI6DF","Oct 06 2014","07:28:56",5,"Noisy","Social","Zero",4,"Chrome",0,"Same","Novel106",3,"Novel106",3,1098,"noisyRD",2,0,1,0,(Oct 06 2014 07:28:56),0,TRUE,FALSE,4,TRUE
"A13XNKKN2LI6DF","Oct 06 2014","07:28:56",6,"Noisy","Social","Zero",4,"Chrome",0,"Same","Novel44",0,"Novel106",3,2591,"straightahead",-1,0,0,1,(Oct 06 2014 07:28:56),0,TRUE,TRUE,4,FALSE
"A13XNKKN2LI6DF","Oct 06 2014","07:28:56",7,"Noisy","Social","Zero",4,"Chrome",1,"Switch","Novel64",3,"Novel85",0,1459,"noisyRD",2,0,1,0,(Oct 06 2014 07:28:56),0,TRUE,FALSE,4,FALSE
"A13XNKKN2LI6DF","Oct 06 2014","07:28:56",8,"Noisy","Social","Zero",4,"Chrome",1,"Switch","Novel113",1,"Novel85",0,1781,"straightahead",-1,0,0,1,(Oct 06 2014 07:28:56),0,TRUE,FALSE,4,FALSE
"A13XNKKN2LI6DF","Oct 06 2014","07:28:56",9,"Noisy","Social","Zero",4,"Chrome",2,"Same","Novel28",2,"Novel28",2,412,"noisyLD",0,0,1,0,(Oct 06 2014 07:28:56),0,TRUE,FALSE,4,TRUE
"A13XNKKN2LI6DF","Oct 06 2014","07:28:56",10,"Noisy","Social","Zero",4,"Chrome",2,"Same","Novel28",1,"Novel28",2,18,"straightahead",-1,0,0,1,(Oct 06 2014 07:28:56),0,TRUE,FALSE,4,TRUE
"A13XNKKN2LI6DF","Oct 06 2014","07:28:56",11,"Noisy","Social","Zero",4,"Chrome",3,"Switch","Novel65",2,"Novel60",3,710,"noisyLD",0,0,1,0,(Oct 06 2014 07:28:56),0,TRUE,FALSE,4,FALSE
"A13XNKKN2LI6DF","Oct 06 2014","07:28:56",12,"Noisy","Social","Zero",4,"Chrome",3,"Switch","Novel60",0,"Novel60",3,294,"straightahead",-1,0,0,1,(Oct 06 2014 07:28:56),0,TRUE,FALSE,4,TRUE
"A13XNKKN2LI6DF","Oct 06 2014","07:28:56",13,"Noisy","Social","Zero",4,"Chrome",4,"Same","Novel86",0,"Novel86",0,1942,"noisyRU",3,0,1,0,(Oct 06 2014 07:28:56),0,TRUE,FALSE,4,TRUE
"A13XNKKN2LI6DF","Oct 06 2014","07:28:56",14,"Noisy","Social","Zero",4,"Chrome",4,"Same","Novel86",0,"Novel86",0,2600,"straightahead",-1,0,0,1,(Oct 06 2014 07:28:56),0,TRUE,FALSE,4,TRUE
"A13XNKKN2LI6DF","Oct 06 2014","07:28:56",15,"Noisy","Social","Zero",4,"Chrome",5,"Switch","Novel74",3,"Novel50",2,940,"noisyRU",3,0,1,0,(Oct 06 2014 07:28:56),0,TRUE,FALSE,4,FALSE
"A13XNKKN2LI6DF","Oct 06 2014","07:28:56",16,"Noisy","Social","Zero",4,"Chrome",5,"Switch","Novel133",3,"Novel50",2,77,"straightahead",-1,0,0,1,(Oct 06 2014 07:28:56),0,TRUE,FALSE,4,FALSE
"A13XNKKN2LI6DF","Oct 06 2014","07:28:56",17,"Noisy","Social","Zero",4,"Chrome",6,"Same","Novel80",2,"Novel80",2,206,"noisyRD",2,0,1,0,(Oct 06 2014 07:28:56),0,TRUE,FALSE,4,TRUE
"A13XNKKN2LI6DF","Oct 06 2014","07:28:56",18,"Noisy","Social","Zero",4,"Chrome",6,"Same","Novel80",2,"Novel80",2,651,"straightahead",-1,0,0,1,(Oct 06 2014 07:28:56),0,TRUE,FALSE,4,TRUE
"A13XNKKN2LI6DF","Oct 06 2014","07:28:56",19,"Noisy","Social","Zero",4,"Chrome",7,"Switch","Novel39",3,"Novel98",2,844,"noisyRU",3,0,1,0,(Oct 06 2014 07:28:56),0,TRUE,FALSE,4,FALSE
"A13XNKKN2LI6DF","Oct 06 2014","07:28:56",20,"Noisy","Social","Zero",4,"Chrome",7,"Switch","Novel98",1,"Novel98",2,1679,"straightahead",-1,0,0,1,(Oct 06 2014 07:28:56),0,TRUE,FALSE,4,TRUE
"A14PFRHG0A2YY9","Oct 05 2014","21:25:46",1,"Noisy","Social","Zero",4,"Chrome",0,"Same","squirrel",0,"",0,3587,"straightahead",-1,1,0,0,(Oct 05 2014 21:25:46),0,TRUE,FALSE,4,FALSE
"A14PFRHG0A2YY9","Oct 05 2014","21:25:46",2,"Noisy","Social","Zero",4,"Chrome",0,"Same","squirrel",0,"",0,696,"straightahead",-1,1,0,0,(Oct 05 2014 21:25:46),0,TRUE,FALSE,4,FALSE
"A14PFRHG0A2YY9","Oct 05 2014","21:25:46",3,"Noisy","Social","Zero",4,"Chrome",0,"Same","tomato",1,"",0,1167,"straightahead",-1,1,0,0,(Oct 05 2014 21:25:46),0,TRUE,FALSE,4,FALSE
"A14PFRHG0A2YY9","Oct 05 2014","21:25:46",4,"Noisy","Social","Zero",4,"Chrome",0,"Same","tomato",2,"",0,1116,"straightahead",-1,1,0,0,(Oct 05 2014 21:25:46),0,TRUE,FALSE,4,FALSE
"A14PFRHG0A2YY9","Oct 05 2014","21:25:46",5,"Noisy","Social","Zero",4,"Chrome",0,"Same","Novel94",0,"Novel94",0,753,"noisyLU",1,0,1,0,(Oct 05 2014 21:25:46),0,TRUE,FALSE,4,TRUE
"A14PFRHG0A2YY9","Oct 05 2014","21:25:46",6,"Noisy","Social","Zero",4,"Chrome",0,"Same","Novel94",0,"Novel94",0,601,"straightahead",-1,0,0,1,(Oct 05 2014 21:25:46),0,TRUE,TRUE,4,TRUE
"A14PFRHG0A2YY9","Oct 05 2014","21:25:46",7,"Noisy","Social","Zero",4,"Chrome",1,"Switch","Novel104",3,"Novel122",2,1092,"noisyRD",2,0,1,0,(Oct 05 2014 21:25:46),0,TRUE,FALSE,4,FALSE
"A14PFRHG0A2YY9","Oct 05 2014","21:25:46",8,"Noisy","Social","Zero",4,"Chrome",1,"Switch","Novel3",3,"Novel122",2,4840,"straightahead",-1,0,0,1,(Oct 05 2014 21:25:46),0,TRUE,FALSE,4,FALSE
"A14PFRHG0A2YY9","Oct 05 2014","21:25:46",9,"Noisy","Social","Zero",4,"Chrome",2,"Same","Novel100",0,"Novel100",0,4123,"noisyLU",1,0,1,0,(Oct 05 2014 21:25:46),0,TRUE,FALSE,4,TRUE
"A14PFRHG0A2YY9","Oct 05 2014","21:25:46",10,"Noisy","Social","Zero",4,"Chrome",2,"Same","Novel100",1,"Novel100",0,701,"straightahead",-1,0,0,1,(Oct 05 2014 21:25:46),0,TRUE,FALSE,4,TRUE
"A14PFRHG0A2YY9","Oct 05 2014","21:25:46",11,"Noisy","Social","Zero",4,"Chrome",3,"Switch","Novel116",0,"Novel31",3,848,"noisyLU",1,0,1,0,(Oct 05 2014 21:25:46),0,TRUE,FALSE,4,FALSE
"A14PFRHG0A2YY9","Oct 05 2014","21:25:46",12,"Noisy","Social","Zero",4,"Chrome",3,"Switch","Novel11",1,"Novel31",3,1463,"straightahead",-1,0,0,1,(Oct 05 2014 21:25:46),0,TRUE,FALSE,4,FALSE
"A14PFRHG0A2YY9","Oct 05 2014","21:25:46",13,"Noisy","Social","Zero",4,"Chrome",4,"Same","Novel12",2,"Novel12",2,1073,"noisyLD",0,0,1,0,(Oct 05 2014 21:25:46),0,TRUE,FALSE,4,TRUE
"A14PFRHG0A2YY9","Oct 05 2014","21:25:46",14,"Noisy","Social","Zero",4,"Chrome",4,"Same","Novel12",2,"Novel12",2,316,"straightahead",-1,0,0,1,(Oct 05 2014 21:25:46),0,TRUE,FALSE,4,TRUE
"A14PFRHG0A2YY9","Oct 05 2014","21:25:46",15,"Noisy","Social","Zero",4,"Chrome",5,"Switch","Novel133",3,"Novel64",2,1542,"noisyRD",2,0,1,0,(Oct 05 2014 21:25:46),0,TRUE,FALSE,4,FALSE
"A14PFRHG0A2YY9","Oct 05 2014","21:25:46",16,"Noisy","Social","Zero",4,"Chrome",5,"Switch","Novel9",3,"Novel64",2,4833,"straightahead",-1,0,0,1,(Oct 05 2014 21:25:46),0,TRUE,FALSE,4,FALSE
"A14PFRHG0A2YY9","Oct 05 2014","21:25:46",17,"Noisy","Social","Zero",4,"Chrome",6,"Same","Novel20",3,"Novel20",3,1288,"noisyRD",2,0,1,0,(Oct 05 2014 21:25:46),0,TRUE,FALSE,4,TRUE
"A14PFRHG0A2YY9","Oct 05 2014","21:25:46",18,"Noisy","Social","Zero",4,"Chrome",6,"Same","Novel20",2,"Novel20",3,242,"straightahead",-1,0,0,1,(Oct 05 2014 21:25:46),0,TRUE,FALSE,4,TRUE
"A14PFRHG0A2YY9","Oct 05 2014","21:25:46",19,"Noisy","Social","Zero",4,"Chrome",7,"Switch","Novel92",3,"Novel103",2,1109,"noisyRD",2,0,1,0,(Oct 05 2014 21:25:46),0,TRUE,FALSE,4,FALSE
"A14PFRHG0A2YY9","Oct 05 2014","21:25:46",20,"Noisy","Social","Zero",4,"Chrome",7,"Switch","Novel38",0,"Novel103",2,2575,"straightahead",-1,0,0,1,(Oct 05 2014 21:25:46),0,TRUE,FALSE,4,FALSE
"A15W0YY71Z9XWV","Oct 06 2014","16:42:11",1,"Short","Social","Zero",4,"Chrome",0,"Switch","squirrel",0,"",0,1428,"straightahead",-1,1,0,0,(Oct 06 2014 16:42:11),0,TRUE,FALSE,4,FALSE
"A15W0YY71Z9XWV","Oct 06 2014","16:42:11",2,"Short","Social","Zero",4,"Chrome",0,"Switch","squirrel",0,"",0,453,"straightahead",-1,1,0,0,(Oct 06 2014 16:42:11),0,TRUE,FALSE,4,FALSE
"A15W0YY71Z9XWV","Oct 06 2014","16:42:11",3,"Short","Social","Zero",4,"Chrome",0,"Switch","tomato",1,"",0,339,"straightahead",-1,1,0,0,(Oct 06 2014 16:42:11),0,TRUE,FALSE,4,FALSE
"A15W0YY71Z9XWV","Oct 06 2014","16:42:11",4,"Short","Social","Zero",4,"Chrome",0,"Switch","tomato",2,"",0,287,"straightahead",-1,1,0,0,(Oct 06 2014 16:42:11),0,TRUE,FALSE,4,FALSE
"A15W0YY71Z9XWV","Oct 06 2014","16:42:11",5,"Short","Social","Zero",4,"Chrome",0,"Switch","Novel53",3,"Novel133",2,1276,"silentRDshort",2,0,1,0,(Oct 06 2014 16:42:11),0,TRUE,FALSE,4,FALSE
"A15W0YY71Z9XWV","Oct 06 2014","16:42:11",6,"Short","Social","Zero",4,"Chrome",0,"Switch","Novel133",2,"Novel133",2,4720,"straightahead",-1,0,0,1,(Oct 06 2014 16:42:11),0,TRUE,TRUE,4,TRUE
"A15W0YY71Z9XWV","Oct 06 2014","16:42:11",7,"Short","Social","Zero",4,"Chrome",1,"Same","Novel97",1,"Novel97",1,2839,"silentLDshort",0,0,1,0,(Oct 06 2014 16:42:11),0,TRUE,FALSE,4,TRUE
"A15W0YY71Z9XWV","Oct 06 2014","16:42:11",8,"Short","Social","Zero",4,"Chrome",1,"Same","Novel97",1,"Novel97",1,270,"straightahead",-1,0,0,1,(Oct 06 2014 16:42:11),0,TRUE,FALSE,4,TRUE
"A15W0YY71Z9XWV","Oct 06 2014","16:42:11",9,"Short","Social","Zero",4,"Chrome",2,"Switch","Novel137",2,"Novel112",0,3093,"silentLUshort",1,0,1,0,(Oct 06 2014 16:42:11),0,TRUE,FALSE,4,FALSE
"A15W0YY71Z9XWV","Oct 06 2014","16:42:11",10,"Short","Social","Zero",4,"Chrome",2,"Switch","Novel101",3,"Novel112",0,1868,"straightahead",-1,0,0,1,(Oct 06 2014 16:42:11),0,TRUE,FALSE,4,FALSE
"A15W0YY71Z9XWV","Oct 06 2014","16:42:11",11,"Short","Social","Zero",4,"Chrome",3,"Same","Novel127",2,"Novel127",2,1087,"silentRDshort",2,0,1,0,(Oct 06 2014 16:42:11),0,TRUE,FALSE,4,TRUE
"A15W0YY71Z9XWV","Oct 06 2014","16:42:11",12,"Short","Social","Zero",4,"Chrome",3,"Same","Novel127",2,"Novel127",2,643,"straightahead",-1,0,0,1,(Oct 06 2014 16:42:11),0,TRUE,FALSE,4,TRUE
"A15W0YY71Z9XWV","Oct 06 2014","16:42:11",13,"Short","Social","Zero",4,"Chrome",4,"Switch","Novel111",1,"Novel124",3,4337,"silentRDshort",2,0,1,0,(Oct 06 2014 16:42:11),0,TRUE,FALSE,4,FALSE
"A15W0YY71Z9XWV","Oct 06 2014","16:42:11",14,"Short","Social","Zero",4,"Chrome",4,"Switch","Novel2",1,"Novel124",3,443,"straightahead",-1,0,0,1,(Oct 06 2014 16:42:11),0,TRUE,FALSE,4,FALSE
"A15W0YY71Z9XWV","Oct 06 2014","16:42:11",15,"Short","Social","Zero",4,"Chrome",5,"Same","Novel81",0,"Novel81",0,1394,"silentRDshort",2,0,1,0,(Oct 06 2014 16:42:11),0,TRUE,FALSE,4,TRUE
"A15W0YY71Z9XWV","Oct 06 2014","16:42:11",16,"Short","Social","Zero",4,"Chrome",5,"Same","Novel81",1,"Novel81",0,841,"straightahead",-1,0,0,1,(Oct 06 2014 16:42:11),0,TRUE,FALSE,4,TRUE
"A15W0YY71Z9XWV","Oct 06 2014","16:42:11",17,"Short","Social","Zero",4,"Chrome",6,"Switch","Novel60",2,"Novel100",3,2129,"silentLUshort",1,0,1,0,(Oct 06 2014 16:42:11),0,TRUE,FALSE,4,FALSE
"A15W0YY71Z9XWV","Oct 06 2014","16:42:11",18,"Short","Social","Zero",4,"Chrome",6,"Switch","Novel102",1,"Novel100",3,1625,"straightahead",-1,0,0,1,(Oct 06 2014 16:42:11),0,TRUE,FALSE,4,FALSE
"A15W0YY71Z9XWV","Oct 06 2014","16:42:11",19,"Short","Social","Zero",4,"Chrome",7,"Same","Novel11",1,"Novel11",1,996,"silentLUshort",1,0,1,0,(Oct 06 2014 16:42:11),0,TRUE,FALSE,4,TRUE
"A15W0YY71Z9XWV","Oct 06 2014","16:42:11",20,"Short","Social","Zero",4,"Chrome",7,"Same","Novel11",0,"Novel11",1,2925,"straightahead",-1,0,0,1,(Oct 06 2014 16:42:11),0,TRUE,FALSE,4,TRUE
"A15XKRYWZFJHKF","Oct 05 2014","20:53:44",1,"Short","Social","Zero",4,"Chrome",0,"Switch","squirrel",0,"",0,453,"straightahead",-1,1,0,0,(Oct 05 2014 20:53:44),0,TRUE,FALSE,4,FALSE
"A15XKRYWZFJHKF","Oct 05 2014","20:53:44",2,"Short","Social","Zero",4,"Chrome",0,"Switch","squirrel",0,"",0,292,"straightahead",-1,1,0,0,(Oct 05 2014 20:53:44),0,TRUE,FALSE,4,FALSE
"A15XKRYWZFJHKF","Oct 05 2014","20:53:44",3,"Short","Social","Zero",4,"Chrome",0,"Switch","tomato",1,"",0,207,"straightahead",-1,1,0,0,(Oct 05 2014 20:53:44),0,TRUE,FALSE,4,FALSE
"A15XKRYWZFJHKF","Oct 05 2014","20:53:44",4,"Short","Social","Zero",4,"Chrome",0,"Switch","tomato",2,"",0,340,"straightahead",-1,1,0,0,(Oct 05 2014 20:53:44),0,TRUE,FALSE,4,FALSE
"A15XKRYWZFJHKF","Oct 05 2014","20:53:44",5,"Short","Social","Zero",4,"Chrome",0,"Switch","Novel60",1,"Novel130",3,288,"silentRUshort",3,0,1,0,(Oct 05 2014 20:53:44),0,TRUE,FALSE,4,FALSE
"A15XKRYWZFJHKF","Oct 05 2014","20:53:44",6,"Short","Social","Zero",4,"Chrome",0,"Switch","Novel130",3,"Novel130",3,1589,"straightahead",-1,0,0,1,(Oct 05 2014 20:53:44),0,TRUE,TRUE,4,TRUE
"A15XKRYWZFJHKF","Oct 05 2014","20:53:44",7,"Short","Social","Zero",4,"Chrome",1,"Same","Novel14",2,"Novel14",2,523,"silentLDshort",0,0,1,0,(Oct 05 2014 20:53:44),0,TRUE,FALSE,4,TRUE
"A15XKRYWZFJHKF","Oct 05 2014","20:53:44",8,"Short","Social","Zero",4,"Chrome",1,"Same","Novel14",2,"Novel14",2,120,"straightahead",-1,0,0,1,(Oct 05 2014 20:53:44),0,TRUE,FALSE,4,TRUE
"A15XKRYWZFJHKF","Oct 05 2014","20:53:44",9,"Short","Social","Zero",4,"Chrome",2,"Switch","Novel138",3,"Novel106",1,466,"silentRDshort",2,0,1,0,(Oct 05 2014 20:53:44),0,TRUE,FALSE,4,FALSE
"A15XKRYWZFJHKF","Oct 05 2014","20:53:44",10,"Short","Social","Zero",4,"Chrome",2,"Switch","Novel106",2,"Novel106",1,757,"straightahead",-1,0,0,1,(Oct 05 2014 20:53:44),0,TRUE,FALSE,4,TRUE
"A15XKRYWZFJHKF","Oct 05 2014","20:53:44",11,"Short","Social","Zero",4,"Chrome",3,"Same","Novel131",0,"Novel131",0,607,"silentLUshort",1,0,1,0,(Oct 05 2014 20:53:44),0,TRUE,FALSE,4,TRUE
"A15XKRYWZFJHKF","Oct 05 2014","20:53:44",12,"Short","Social","Zero",4,"Chrome",3,"Same","Novel131",1,"Novel131",0,37,"straightahead",-1,0,0,1,(Oct 05 2014 20:53:44),0,TRUE,FALSE,4,TRUE
"A15XKRYWZFJHKF","Oct 05 2014","20:53:44",13,"Short","Social","Zero",4,"Chrome",4,"Switch","Novel25",3,"Novel126",0,508,"silentRDshort",2,0,1,0,(Oct 05 2014 20:53:44),0,TRUE,FALSE,4,FALSE
"A15XKRYWZFJHKF","Oct 05 2014","20:53:44",14,"Short","Social","Zero",4,"Chrome",4,"Switch","Novel10",3,"Novel126",0,447,"straightahead",-1,0,0,1,(Oct 05 2014 20:53:44),0,TRUE,FALSE,4,FALSE
"A15XKRYWZFJHKF","Oct 05 2014","20:53:44",15,"Short","Social","Zero",4,"Chrome",5,"Same","Novel9",0,"Novel9",0,421,"silentLUshort",1,0,1,0,(Oct 05 2014 20:53:44),0,TRUE,FALSE,4,TRUE
"A15XKRYWZFJHKF","Oct 05 2014","20:53:44",16,"Short","Social","Zero",4,"Chrome",5,"Same","Novel9",3,"Novel9",0,337,"straightahead",-1,0,0,1,(Oct 05 2014 20:53:44),0,TRUE,FALSE,4,TRUE
"A15XKRYWZFJHKF","Oct 05 2014","20:53:44",17,"Short","Social","Zero",4,"Chrome",6,"Switch","Novel98",1,"Novel103",2,285,"silentRUshort",3,0,1,0,(Oct 05 2014 20:53:44),0,TRUE,FALSE,4,FALSE
"A15XKRYWZFJHKF","Oct 05 2014","20:53:44",18,"Short","Social","Zero",4,"Chrome",6,"Switch","Novel101",1,"Novel103",2,107,"straightahead",-1,0,0,1,(Oct 05 2014 20:53:44),0,TRUE,FALSE,4,FALSE
"A15XKRYWZFJHKF","Oct 05 2014","20:53:44",19,"Short","Social","Zero",4,"Chrome",7,"Same","Novel107",1,"Novel107",1,1584,"silentRUshort",3,0,1,0,(Oct 05 2014 20:53:44),0,TRUE,FALSE,4,TRUE
"A15XKRYWZFJHKF","Oct 05 2014","20:53:44",20,"Short","Social","Zero",4,"Chrome",7,"Same","Novel107",1,"Novel107",1,433,"straightahead",-1,0,0,1,(Oct 05 2014 20:53:44),0,TRUE,FALSE,4,TRUE
"A168342GUGE8RX","Oct 06 2014","08:43:44",1,"Short","Social","Zero",4,"Firefox",0,"Same","squirrel",0,"",0,1180,"straightahead",-1,1,0,0,(Oct 06 2014 08:43:44),0,TRUE,FALSE,4,FALSE
"A168342GUGE8RX","Oct 06 2014","08:43:44",2,"Short","Social","Zero",4,"Firefox",0,"Same","squirrel",0,"",0,395,"straightahead",-1,1,0,0,(Oct 06 2014 08:43:44),0,TRUE,FALSE,4,FALSE
"A168342GUGE8RX","Oct 06 2014","08:43:44",3,"Short","Social","Zero",4,"Firefox",0,"Same","tomato",1,"",0,634,"straightahead",-1,1,0,0,(Oct 06 2014 08:43:44),0,TRUE,FALSE,4,FALSE
"A168342GUGE8RX","Oct 06 2014","08:43:44",4,"Short","Social","Zero",4,"Firefox",0,"Same","tomato",2,"",0,1076,"straightahead",-1,1,0,0,(Oct 06 2014 08:43:44),0,TRUE,FALSE,4,FALSE
"A168342GUGE8RX","Oct 06 2014","08:43:44",5,"Short","Social","Zero",4,"Firefox",0,"Same","Novel122",2,"Novel122",2,5348,"silentLUshort",1,0,1,0,(Oct 06 2014 08:43:44),0,TRUE,FALSE,4,TRUE
"A168342GUGE8RX","Oct 06 2014","08:43:44",6,"Short","Social","Zero",4,"Firefox",0,"Same","Novel122",1,"Novel122",2,2975,"straightahead",-1,0,0,1,(Oct 06 2014 08:43:44),0,TRUE,TRUE,4,TRUE
"A168342GUGE8RX","Oct 06 2014","08:43:44",7,"Short","Social","Zero",4,"Firefox",1,"Switch","Novel22",1,"Novel20",2,3638,"silentLDshort",0,0,1,0,(Oct 06 2014 08:43:44),0,TRUE,FALSE,4,FALSE
"A168342GUGE8RX","Oct 06 2014","08:43:44",8,"Short","Social","Zero",4,"Firefox",1,"Switch","Novel9",2,"Novel20",2,5930,"straightahead",-1,0,0,1,(Oct 06 2014 08:43:44),0,TRUE,FALSE,4,FALSE
"A168342GUGE8RX","Oct 06 2014","08:43:44",9,"Short","Social","Zero",4,"Firefox",2,"Same","Novel63",2,"Novel63",2,2288,"silentRUshort",3,0,1,0,(Oct 06 2014 08:43:44),0,TRUE,FALSE,4,TRUE
"A168342GUGE8RX","Oct 06 2014","08:43:44",10,"Short","Social","Zero",4,"Firefox",2,"Same","Novel63",1,"Novel63",2,449,"straightahead",-1,0,0,1,(Oct 06 2014 08:43:44),0,TRUE,FALSE,4,TRUE
"A168342GUGE8RX","Oct 06 2014","08:43:44",11,"Short","Social","Zero",4,"Firefox",3,"Switch","Novel17",0,"Novel38",2,3096,"silentRDshort",2,0,1,0,(Oct 06 2014 08:43:44),0,TRUE,FALSE,4,FALSE
"A168342GUGE8RX","Oct 06 2014","08:43:44",12,"Short","Social","Zero",4,"Firefox",3,"Switch","Novel115",1,"Novel38",2,1982,"straightahead",-1,0,0,1,(Oct 06 2014 08:43:44),0,TRUE,FALSE,4,FALSE
"A168342GUGE8RX","Oct 06 2014","08:43:44",13,"Short","Social","Zero",4,"Firefox",4,"Same","Novel8",2,"Novel8",2,4672,"silentRUshort",3,0,1,0,(Oct 06 2014 08:43:44),0,TRUE,FALSE,4,TRUE
"A168342GUGE8RX","Oct 06 2014","08:43:44",14,"Short","Social","Zero",4,"Firefox",4,"Same","Novel8",2,"Novel8",2,1642,"straightahead",-1,0,0,1,(Oct 06 2014 08:43:44),0,TRUE,FALSE,4,TRUE
"A168342GUGE8RX","Oct 06 2014","08:43:44",15,"Short","Social","Zero",4,"Firefox",5,"Switch","Novel32",1,"Novel7",0,3493,"silentRDshort",2,0,1,0,(Oct 06 2014 08:43:44),0,TRUE,FALSE,4,FALSE
"A168342GUGE8RX","Oct 06 2014","08:43:44",16,"Short","Social","Zero",4,"Firefox",5,"Switch","Novel91",0,"Novel7",0,1851,"straightahead",-1,0,0,1,(Oct 06 2014 08:43:44),0,TRUE,FALSE,4,FALSE
"A168342GUGE8RX","Oct 06 2014","08:43:44",17,"Short","Social","Zero",4,"Firefox",6,"Same","Novel1",3,"Novel1",3,2190,"silentRDshort",2,0,1,0,(Oct 06 2014 08:43:44),0,TRUE,FALSE,4,TRUE
"A168342GUGE8RX","Oct 06 2014","08:43:44",18,"Short","Social","Zero",4,"Firefox",6,"Same","Novel1",3,"Novel1",3,2088,"straightahead",-1,0,0,1,(Oct 06 2014 08:43:44),0,TRUE,FALSE,4,TRUE
"A168342GUGE8RX","Oct 06 2014","08:43:44",19,"Short","Social","Zero",4,"Firefox",7,"Switch","Novel112",2,"Novel54",0,1457,"silentRDshort",2,0,1,0,(Oct 06 2014 08:43:44),0,TRUE,FALSE,4,FALSE
"A168342GUGE8RX","Oct 06 2014","08:43:44",20,"Short","Social","Zero",4,"Firefox",7,"Switch","Novel88",2,"Novel54",0,1889,"straightahead",-1,0,0,1,(Oct 06 2014 08:43:44),0,TRUE,FALSE,4,FALSE
"A16KMVFENFND8L","Oct 06 2014","09:26:15",1,"Short","Social","Zero",4,"Chrome",0,"Switch","squirrel",0,"",0,533,"straightahead",-1,1,0,0,(Oct 06 2014 09:26:15),0,TRUE,FALSE,4,FALSE
"A16KMVFENFND8L","Oct 06 2014","09:26:15",2,"Short","Social","Zero",4,"Chrome",0,"Switch","squirrel",0,"",0,880,"straightahead",-1,1,0,0,(Oct 06 2014 09:26:15),0,TRUE,FALSE,4,FALSE
"A16KMVFENFND8L","Oct 06 2014","09:26:15",3,"Short","Social","Zero",4,"Chrome",0,"Switch","tomato",1,"",0,2627,"straightahead",-1,1,0,0,(Oct 06 2014 09:26:15),0,TRUE,FALSE,4,FALSE
"A16KMVFENFND8L","Oct 06 2014","09:26:15",4,"Short","Social","Zero",4,"Chrome",0,"Switch","tomato",2,"",0,1102,"straightahead",-1,1,0,0,(Oct 06 2014 09:26:15),0,TRUE,FALSE,4,FALSE
"A16KMVFENFND8L","Oct 06 2014","09:26:15",5,"Short","Social","Zero",4,"Chrome",0,"Switch","Novel59",0,"Novel32",1,2073,"silentLUshort",1,0,1,0,(Oct 06 2014 09:26:15),0,TRUE,FALSE,4,FALSE
"A16KMVFENFND8L","Oct 06 2014","09:26:15",6,"Short","Social","Zero",4,"Chrome",0,"Switch","Novel32",1,"Novel32",1,3972,"straightahead",-1,0,0,1,(Oct 06 2014 09:26:15),0,TRUE,TRUE,4,TRUE
"A16KMVFENFND8L","Oct 06 2014","09:26:15",7,"Short","Social","Zero",4,"Chrome",1,"Same","Novel71",3,"Novel71",3,3110,"silentRDshort",2,0,1,0,(Oct 06 2014 09:26:15),0,TRUE,FALSE,4,TRUE
"A16KMVFENFND8L","Oct 06 2014","09:26:15",8,"Short","Social","Zero",4,"Chrome",1,"Same","Novel71",3,"Novel71",3,654,"straightahead",-1,0,0,1,(Oct 06 2014 09:26:15),0,TRUE,FALSE,4,TRUE
"A16KMVFENFND8L","Oct 06 2014","09:26:15",9,"Short","Social","Zero",4,"Chrome",2,"Switch","Novel77",3,"Novel69",1,2084,"silentRDshort",2,0,1,0,(Oct 06 2014 09:26:15),0,TRUE,FALSE,4,FALSE
"A16KMVFENFND8L","Oct 06 2014","09:26:15",10,"Short","Social","Zero",4,"Chrome",2,"Switch","Novel3",2,"Novel69",1,15408,"straightahead",-1,0,0,1,(Oct 06 2014 09:26:15),0,TRUE,FALSE,4,FALSE
"A16KMVFENFND8L","Oct 06 2014","09:26:15",11,"Short","Social","Zero",4,"Chrome",3,"Same","Novel104",1,"Novel104",1,2707,"silentRUshort",3,0,1,0,(Oct 06 2014 09:26:15),0,TRUE,FALSE,4,TRUE
"A16KMVFENFND8L","Oct 06 2014","09:26:15",12,"Short","Social","Zero",4,"Chrome",3,"Same","Novel104",2,"Novel104",1,3350,"straightahead",-1,0,0,1,(Oct 06 2014 09:26:15),0,TRUE,FALSE,4,TRUE
"A16KMVFENFND8L","Oct 06 2014","09:26:15",13,"Short","Social","Zero",4,"Chrome",4,"Switch","Novel103",1,"Novel110",3,2032,"silentRUshort",3,0,1,0,(Oct 06 2014 09:26:15),0,TRUE,FALSE,4,FALSE
"A16KMVFENFND8L","Oct 06 2014","09:26:15",14,"Short","Social","Zero",4,"Chrome",4,"Switch","Novel112",2,"Novel110",3,4927,"straightahead",-1,0,0,1,(Oct 06 2014 09:26:15),0,TRUE,FALSE,4,FALSE
"A16KMVFENFND8L","Oct 06 2014","09:26:15",15,"Short","Social","Zero",4,"Chrome",5,"Same","Novel66",0,"Novel66",0,1566,"silentLUshort",1,0,1,0,(Oct 06 2014 09:26:15),0,TRUE,FALSE,4,TRUE
"A16KMVFENFND8L","Oct 06 2014","09:26:15",16,"Short","Social","Zero",4,"Chrome",5,"Same","Novel66",1,"Novel66",0,522,"straightahead",-1,0,0,1,(Oct 06 2014 09:26:15),0,TRUE,FALSE,4,TRUE
"A16KMVFENFND8L","Oct 06 2014","09:26:15",17,"Short","Social","Zero",4,"Chrome",6,"Switch","Novel62",0,"Novel85",1,1638,"silentLUshort",1,0,1,0,(Oct 06 2014 09:26:15),0,TRUE,FALSE,4,FALSE
"A16KMVFENFND8L","Oct 06 2014","09:26:15",18,"Short","Social","Zero",4,"Chrome",6,"Switch","Novel90",3,"Novel85",1,6997,"straightahead",-1,0,0,1,(Oct 06 2014 09:26:15),0,TRUE,FALSE,4,FALSE
"A16KMVFENFND8L","Oct 06 2014","09:26:15",19,"Short","Social","Zero",4,"Chrome",7,"Same","Novel138",0,"Novel138",0,2301,"silentLUshort",1,0,1,0,(Oct 06 2014 09:26:15),0,TRUE,FALSE,4,TRUE
"A16KMVFENFND8L","Oct 06 2014","09:26:15",20,"Short","Social","Zero",4,"Chrome",7,"Same","Novel138",0,"Novel138",0,382,"straightahead",-1,0,0,1,(Oct 06 2014 09:26:15),0,TRUE,FALSE,4,TRUE
"A16WTL2DOIQ5SV","Oct 06 2014","03:37:45",1,"Short","No-social","Zero",4,"Chrome",0,"Switch","squirrel",0,"",0,384,"straightahead",-1,1,0,0,(Oct 06 2014 03:37:45),0,TRUE,FALSE,4,FALSE
"A16WTL2DOIQ5SV","Oct 06 2014","03:37:45",2,"Short","No-social","Zero",4,"Chrome",0,"Switch","squirrel",0,"",0,188,"straightahead",-1,1,0,0,(Oct 06 2014 03:37:45),0,TRUE,FALSE,4,FALSE
"A16WTL2DOIQ5SV","Oct 06 2014","03:37:45",3,"Short","No-social","Zero",4,"Chrome",0,"Switch","tomato",1,"",0,98,"straightahead",-1,1,0,0,(Oct 06 2014 03:37:45),0,TRUE,FALSE,4,FALSE
"A16WTL2DOIQ5SV","Oct 06 2014","03:37:45",4,"Short","No-social","Zero",4,"Chrome",0,"Switch","tomato",2,"",0,586,"straightahead",-1,1,0,0,(Oct 06 2014 03:37:45),0,TRUE,FALSE,4,FALSE
"A16WTL2DOIQ5SV","Oct 06 2014","03:37:45",5,"Short","No-social","Zero",4,"Chrome",0,"Switch","Novel40",1,"Novel3",3,481,"straightahead",-1,0,1,0,(Oct 06 2014 03:37:45),0,TRUE,FALSE,4,FALSE
"A16WTL2DOIQ5SV","Oct 06 2014","03:37:45",6,"Short","No-social","Zero",4,"Chrome",0,"Switch","Novel3",3,"Novel3",3,712,"straightahead",-1,0,0,1,(Oct 06 2014 03:37:45),0,TRUE,TRUE,4,TRUE
"A16WTL2DOIQ5SV","Oct 06 2014","03:37:45",7,"Short","No-social","Zero",4,"Chrome",1,"Same","Novel33",2,"Novel33",2,610,"straightahead",-1,0,1,0,(Oct 06 2014 03:37:45),0,TRUE,FALSE,4,TRUE
"A16WTL2DOIQ5SV","Oct 06 2014","03:37:45",8,"Short","No-social","Zero",4,"Chrome",1,"Same","Novel33",2,"Novel33",2,598,"straightahead",-1,0,0,1,(Oct 06 2014 03:37:45),0,TRUE,FALSE,4,TRUE
"A16WTL2DOIQ5SV","Oct 06 2014","03:37:45",9,"Short","No-social","Zero",4,"Chrome",2,"Switch","Novel12",0,"Novel28",3,479,"straightahead",-1,0,1,0,(Oct 06 2014 03:37:45),0,TRUE,FALSE,4,FALSE
"A16WTL2DOIQ5SV","Oct 06 2014","03:37:45",10,"Short","No-social","Zero",4,"Chrome",2,"Switch","Novel28",3,"Novel28",3,303,"straightahead",-1,0,0,1,(Oct 06 2014 03:37:45),0,TRUE,FALSE,4,TRUE
"A16WTL2DOIQ5SV","Oct 06 2014","03:37:45",11,"Short","No-social","Zero",4,"Chrome",3,"Same","Novel6",3,"Novel6",3,562,"straightahead",-1,0,1,0,(Oct 06 2014 03:37:45),0,TRUE,FALSE,4,TRUE
"A16WTL2DOIQ5SV","Oct 06 2014","03:37:45",12,"Short","No-social","Zero",4,"Chrome",3,"Same","Novel74",1,"Novel6",3,455,"straightahead",-1,0,0,1,(Oct 06 2014 03:37:45),0,TRUE,FALSE,4,FALSE
"A16WTL2DOIQ5SV","Oct 06 2014","03:37:45",13,"Short","No-social","Zero",4,"Chrome",4,"Switch","Novel75",2,"Novel89",0,88,"straightahead",-1,0,1,0,(Oct 06 2014 03:37:45),0,TRUE,FALSE,4,FALSE
"A16WTL2DOIQ5SV","Oct 06 2014","03:37:45",14,"Short","No-social","Zero",4,"Chrome",4,"Switch","Novel117",0,"Novel89",0,1060,"straightahead",-1,0,0,1,(Oct 06 2014 03:37:45),0,TRUE,FALSE,4,FALSE
"A16WTL2DOIQ5SV","Oct 06 2014","03:37:45",15,"Short","No-social","Zero",4,"Chrome",5,"Same","Novel30",1,"Novel30",1,211,"straightahead",-1,0,1,0,(Oct 06 2014 03:37:45),0,TRUE,FALSE,4,TRUE
"A16WTL2DOIQ5SV","Oct 06 2014","03:37:45",16,"Short","No-social","Zero",4,"Chrome",5,"Same","Novel30",3,"Novel30",1,313,"straightahead",-1,0,0,1,(Oct 06 2014 03:37:45),0,TRUE,FALSE,4,TRUE
"A16WTL2DOIQ5SV","Oct 06 2014","03:37:45",17,"Short","No-social","Zero",4,"Chrome",6,"Switch","Novel34",1,"Novel84",2,441,"straightahead",-1,0,1,0,(Oct 06 2014 03:37:45),0,TRUE,FALSE,4,FALSE
"A16WTL2DOIQ5SV","Oct 06 2014","03:37:45",18,"Short","No-social","Zero",4,"Chrome",6,"Switch","Novel45",1,"Novel84",2,795,"straightahead",-1,0,0,1,(Oct 06 2014 03:37:45),0,TRUE,FALSE,4,FALSE
"A16WTL2DOIQ5SV","Oct 06 2014","03:37:45",19,"Short","No-social","Zero",4,"Chrome",7,"Same","Novel31",2,"Novel31",2,456,"straightahead",-1,0,1,0,(Oct 06 2014 03:37:45),0,TRUE,FALSE,4,TRUE
"A16WTL2DOIQ5SV","Oct 06 2014","03:37:45",20,"Short","No-social","Zero",4,"Chrome",7,"Same","Novel129",3,"Novel31",2,801,"straightahead",-1,0,0,1,(Oct 06 2014 03:37:45),0,TRUE,FALSE,4,FALSE
"A17181IK8GK1OC","Oct 06 2014","09:55:10",1,"Short","No-social","Zero",4,"Chrome",0,"Switch","squirrel",0,"",0,2820,"straightahead",-1,1,0,0,(Oct 06 2014 09:55:10),0,TRUE,FALSE,4,FALSE
"A17181IK8GK1OC","Oct 06 2014","09:55:10",2,"Short","No-social","Zero",4,"Chrome",0,"Switch","squirrel",0,"",0,861,"straightahead",-1,1,0,0,(Oct 06 2014 09:55:10),0,TRUE,FALSE,4,FALSE
"A17181IK8GK1OC","Oct 06 2014","09:55:10",3,"Short","No-social","Zero",4,"Chrome",0,"Switch","tomato",1,"",0,2817,"straightahead",-1,1,0,0,(Oct 06 2014 09:55:10),0,TRUE,FALSE,4,FALSE
"A17181IK8GK1OC","Oct 06 2014","09:55:10",4,"Short","No-social","Zero",4,"Chrome",0,"Switch","tomato",2,"",0,791,"straightahead",-1,1,0,0,(Oct 06 2014 09:55:10),0,TRUE,FALSE,4,FALSE
"A17181IK8GK1OC","Oct 06 2014","09:55:10",5,"Short","No-social","Zero",4,"Chrome",0,"Switch","Novel91",1,"Novel92",2,4323,"straightahead",-1,0,1,0,(Oct 06 2014 09:55:10),0,TRUE,FALSE,4,FALSE
"A17181IK8GK1OC","Oct 06 2014","09:55:10",6,"Short","No-social","Zero",4,"Chrome",0,"Switch","Novel46",1,"Novel92",2,2416,"straightahead",-1,0,0,1,(Oct 06 2014 09:55:10),0,TRUE,TRUE,4,FALSE
"A17181IK8GK1OC","Oct 06 2014","09:55:10",7,"Short","No-social","Zero",4,"Chrome",1,"Same","Novel80",2,"Novel80",2,1753,"straightahead",-1,0,1,0,(Oct 06 2014 09:55:10),0,TRUE,FALSE,4,TRUE
"A17181IK8GK1OC","Oct 06 2014","09:55:10",8,"Short","No-social","Zero",4,"Chrome",1,"Same","Novel80",1,"Novel80",2,3568,"straightahead",-1,0,0,1,(Oct 06 2014 09:55:10),0,TRUE,FALSE,4,TRUE
"A17181IK8GK1OC","Oct 06 2014","09:55:10",9,"Short","No-social","Zero",4,"Chrome",2,"Switch","Novel132",1,"Novel47",0,1644,"straightahead",-1,0,1,0,(Oct 06 2014 09:55:10),0,TRUE,FALSE,4,FALSE
"A17181IK8GK1OC","Oct 06 2014","09:55:10",10,"Short","No-social","Zero",4,"Chrome",2,"Switch","Novel37",2,"Novel47",0,1907,"straightahead",-1,0,0,1,(Oct 06 2014 09:55:10),0,TRUE,FALSE,4,FALSE
"A17181IK8GK1OC","Oct 06 2014","09:55:10",11,"Short","No-social","Zero",4,"Chrome",3,"Same","Novel105",3,"Novel105",3,1365,"straightahead",-1,0,1,0,(Oct 06 2014 09:55:10),0,TRUE,FALSE,4,TRUE
"A17181IK8GK1OC","Oct 06 2014","09:55:10",12,"Short","No-social","Zero",4,"Chrome",3,"Same","Novel105",1,"Novel105",3,1876,"straightahead",-1,0,0,1,(Oct 06 2014 09:55:10),0,TRUE,FALSE,4,TRUE
"A17181IK8GK1OC","Oct 06 2014","09:55:10",13,"Short","No-social","Zero",4,"Chrome",4,"Switch","Novel10",0,"Novel43",1,1914,"straightahead",-1,0,1,0,(Oct 06 2014 09:55:10),0,TRUE,FALSE,4,FALSE
"A17181IK8GK1OC","Oct 06 2014","09:55:10",14,"Short","No-social","Zero",4,"Chrome",4,"Switch","Novel5",3,"Novel43",1,970,"straightahead",-1,0,0,1,(Oct 06 2014 09:55:10),0,TRUE,FALSE,4,FALSE
"A17181IK8GK1OC","Oct 06 2014","09:55:10",15,"Short","No-social","Zero",4,"Chrome",5,"Same","Novel52",1,"Novel52",1,1411,"straightahead",-1,0,1,0,(Oct 06 2014 09:55:10),0,TRUE,FALSE,4,TRUE
"A17181IK8GK1OC","Oct 06 2014","09:55:10",16,"Short","No-social","Zero",4,"Chrome",5,"Same","Novel52",1,"Novel52",1,34,"straightahead",-1,0,0,1,(Oct 06 2014 09:55:10),0,TRUE,FALSE,4,TRUE
"A17181IK8GK1OC","Oct 06 2014","09:55:10",17,"Short","No-social","Zero",4,"Chrome",6,"Switch","Novel109",3,"Novel18",0,783,"straightahead",-1,0,1,0,(Oct 06 2014 09:55:10),0,TRUE,FALSE,4,FALSE
"A17181IK8GK1OC","Oct 06 2014","09:55:10",18,"Short","No-social","Zero",4,"Chrome",6,"Switch","Novel36",1,"Novel18",0,1738,"straightahead",-1,0,0,1,(Oct 06 2014 09:55:10),0,TRUE,FALSE,4,FALSE
"A17181IK8GK1OC","Oct 06 2014","09:55:10",19,"Short","No-social","Zero",4,"Chrome",7,"Same","Novel15",1,"Novel15",1,392,"straightahead",-1,0,1,0,(Oct 06 2014 09:55:10),0,TRUE,FALSE,4,TRUE
"A17181IK8GK1OC","Oct 06 2014","09:55:10",20,"Short","No-social","Zero",4,"Chrome",7,"Same","Novel15",1,"Novel15",1,1524,"straightahead",-1,0,0,1,(Oct 06 2014 09:55:10),0,TRUE,FALSE,4,TRUE
"A17ZCO82DKR237","Oct 06 2014","05:05:13",1,"Short","Social","Zero",4,"Chrome",0,"Same","squirrel",0,"",0,5775,"straightahead",-1,1,0,0,(Oct 06 2014 05:05:13),0,TRUE,FALSE,4,FALSE
"A17ZCO82DKR237","Oct 06 2014","05:05:13",2,"Short","Social","Zero",4,"Chrome",0,"Same","squirrel",0,"",0,1300,"straightahead",-1,1,0,0,(Oct 06 2014 05:05:13),0,TRUE,FALSE,4,FALSE
"A17ZCO82DKR237","Oct 06 2014","05:05:13",3,"Short","Social","Zero",4,"Chrome",0,"Same","tomato",1,"",0,402,"straightahead",-1,1,0,0,(Oct 06 2014 05:05:13),0,TRUE,FALSE,4,FALSE
"A17ZCO82DKR237","Oct 06 2014","05:05:13",4,"Short","Social","Zero",4,"Chrome",0,"Same","tomato",2,"",0,129,"straightahead",-1,1,0,0,(Oct 06 2014 05:05:13),0,TRUE,FALSE,4,FALSE
"A17ZCO82DKR237","Oct 06 2014","05:05:13",5,"Short","Social","Zero",4,"Chrome",0,"Same","Novel33",1,"Novel33",1,1831,"silentRUshort",3,0,1,0,(Oct 06 2014 05:05:13),0,TRUE,FALSE,4,TRUE
"A17ZCO82DKR237","Oct 06 2014","05:05:13",6,"Short","Social","Zero",4,"Chrome",0,"Same","Novel33",1,"Novel33",1,352,"straightahead",-1,0,0,1,(Oct 06 2014 05:05:13),0,TRUE,TRUE,4,TRUE
"A17ZCO82DKR237","Oct 06 2014","05:05:13",7,"Short","Social","Zero",4,"Chrome",1,"Switch","Novel32",3,"Novel106",1,271,"silentRDshort",2,0,1,0,(Oct 06 2014 05:05:13),0,TRUE,FALSE,4,FALSE
"A17ZCO82DKR237","Oct 06 2014","05:05:13",8,"Short","Social","Zero",4,"Chrome",1,"Switch","Novel106",0,"Novel106",1,2660,"straightahead",-1,0,0,1,(Oct 06 2014 05:05:13),0,TRUE,FALSE,4,TRUE
"A17ZCO82DKR237","Oct 06 2014","05:05:13",9,"Short","Social","Zero",4,"Chrome",2,"Same","Novel49",3,"Novel49",3,177,"silentRDshort",2,0,1,0,(Oct 06 2014 05:05:13),0,TRUE,FALSE,4,TRUE
"A17ZCO82DKR237","Oct 06 2014","05:05:13",10,"Short","Social","Zero",4,"Chrome",2,"Same","Novel49",3,"Novel49",3,654,"straightahead",-1,0,0,1,(Oct 06 2014 05:05:13),0,TRUE,FALSE,4,TRUE
"A17ZCO82DKR237","Oct 06 2014","05:05:13",11,"Short","Social","Zero",4,"Chrome",3,"Switch","Novel9",2,"Novel14",3,578,"silentLDshort",0,0,1,0,(Oct 06 2014 05:05:13),0,TRUE,FALSE,4,FALSE
"A17ZCO82DKR237","Oct 06 2014","05:05:13",12,"Short","Social","Zero",4,"Chrome",3,"Switch","Novel129",0,"Novel14",3,501,"straightahead",-1,0,0,1,(Oct 06 2014 05:05:13),0,TRUE,FALSE,4,FALSE
"A17ZCO82DKR237","Oct 06 2014","05:05:13",13,"Short","Social","Zero",4,"Chrome",4,"Same","Novel59",1,"Novel59",1,275,"silentRUshort",3,0,1,0,(Oct 06 2014 05:05:13),0,TRUE,FALSE,4,TRUE
"A17ZCO82DKR237","Oct 06 2014","05:05:13",14,"Short","Social","Zero",4,"Chrome",4,"Same","Novel59",2,"Novel59",1,898,"straightahead",-1,0,0,1,(Oct 06 2014 05:05:13),0,TRUE,FALSE,4,TRUE
"A17ZCO82DKR237","Oct 06 2014","05:05:13",15,"Short","Social","Zero",4,"Chrome",5,"Switch","Novel102",1,"Novel135",3,127,"silentRUshort",3,0,1,0,(Oct 06 2014 05:05:13),0,TRUE,FALSE,4,FALSE
"A17ZCO82DKR237","Oct 06 2014","05:05:13",16,"Short","Social","Zero",4,"Chrome",5,"Switch","Novel101",1,"Novel135",3,5555,"straightahead",-1,0,0,1,(Oct 06 2014 05:05:13),0,TRUE,FALSE,4,FALSE
"A17ZCO82DKR237","Oct 06 2014","05:05:13",17,"Short","Social","Zero",4,"Chrome",6,"Same","Novel68",0,"Novel68",0,159,"silentLUshort",1,0,1,0,(Oct 06 2014 05:05:13),0,TRUE,FALSE,4,TRUE
"A17ZCO82DKR237","Oct 06 2014","05:05:13",18,"Short","Social","Zero",4,"Chrome",6,"Same","Novel68",3,"Novel68",0,198,"straightahead",-1,0,0,1,(Oct 06 2014 05:05:13),0,TRUE,FALSE,4,TRUE
"A17ZCO82DKR237","Oct 06 2014","05:05:13",19,"Short","Social","Zero",4,"Chrome",7,"Switch","Novel123",1,"Novel99",3,406,"silentRUshort",3,0,1,0,(Oct 06 2014 05:05:13),0,TRUE,FALSE,4,FALSE
"A17ZCO82DKR237","Oct 06 2014","05:05:13",20,"Short","Social","Zero",4,"Chrome",7,"Switch","Novel137",2,"Novel99",3,1127,"straightahead",-1,0,0,1,(Oct 06 2014 05:05:13),0,TRUE,FALSE,4,FALSE
"A187NHMKI4HSA","Oct 06 2014","07:21:05",1,"Short","Social","Zero",4,"Chrome",0,"Switch","squirrel",0,"",0,5471,"straightahead",-1,1,0,0,(Oct 06 2014 07:21:05),0,TRUE,FALSE,4,FALSE
"A187NHMKI4HSA","Oct 06 2014","07:21:05",2,"Short","Social","Zero",4,"Chrome",0,"Switch","squirrel",0,"",0,1162,"straightahead",-1,1,0,0,(Oct 06 2014 07:21:05),0,TRUE,FALSE,4,FALSE
"A187NHMKI4HSA","Oct 06 2014","07:21:05",3,"Short","Social","Zero",4,"Chrome",0,"Switch","tomato",1,"",0,838,"straightahead",-1,1,0,0,(Oct 06 2014 07:21:05),0,TRUE,FALSE,4,FALSE
"A187NHMKI4HSA","Oct 06 2014","07:21:05",4,"Short","Social","Zero",4,"Chrome",0,"Switch","tomato",2,"",0,500,"straightahead",-1,1,0,0,(Oct 06 2014 07:21:05),0,TRUE,FALSE,4,FALSE
"A187NHMKI4HSA","Oct 06 2014","07:21:05",5,"Short","Social","Zero",4,"Chrome",0,"Switch","Novel66",1,"Novel88",3,8575,"silentRDshort",2,0,1,0,(Oct 06 2014 07:21:05),0,TRUE,FALSE,4,FALSE
"A187NHMKI4HSA","Oct 06 2014","07:21:05",6,"Short","Social","Zero",4,"Chrome",0,"Switch","Novel88",3,"Novel88",3,3954,"straightahead",-1,0,0,1,(Oct 06 2014 07:21:05),0,TRUE,TRUE,4,TRUE
"A187NHMKI4HSA","Oct 06 2014","07:21:05",7,"Short","Social","Zero",4,"Chrome",1,"Same","Novel132",0,"Novel132",0,1946,"silentLUshort",1,0,1,0,(Oct 06 2014 07:21:05),0,TRUE,FALSE,4,TRUE
"A187NHMKI4HSA","Oct 06 2014","07:21:05",8,"Short","Social","Zero",4,"Chrome",1,"Same","Novel132",2,"Novel132",0,1108,"straightahead",-1,0,0,1,(Oct 06 2014 07:21:05),0,TRUE,FALSE,4,TRUE
"A187NHMKI4HSA","Oct 06 2014","07:21:05",9,"Short","Social","Zero",4,"Chrome",2,"Switch","Novel20",0,"Novel90",2,3504,"silentLUshort",1,0,1,0,(Oct 06 2014 07:21:05),0,TRUE,FALSE,4,FALSE
"A187NHMKI4HSA","Oct 06 2014","07:21:05",10,"Short","Social","Zero",4,"Chrome",2,"Switch","Novel90",2,"Novel90",2,1677,"straightahead",-1,0,0,1,(Oct 06 2014 07:21:05),0,TRUE,FALSE,4,TRUE
"A187NHMKI4HSA","Oct 06 2014","07:21:05",11,"Short","Social","Zero",4,"Chrome",3,"Same","Novel111",2,"Novel111",2,5177,"silentLUshort",1,0,1,0,(Oct 06 2014 07:21:05),0,TRUE,FALSE,4,TRUE
"A187NHMKI4HSA","Oct 06 2014","07:21:05",12,"Short","Social","Zero",4,"Chrome",3,"Same","Novel111",2,"Novel111",2,79,"straightahead",-1,0,0,1,(Oct 06 2014 07:21:05),0,TRUE,FALSE,4,TRUE
"A187NHMKI4HSA","Oct 06 2014","07:21:05",13,"Short","Social","Zero",4,"Chrome",4,"Switch","Novel104",1,"Novel83",2,4270,"silentLUshort",1,0,1,0,(Oct 06 2014 07:21:05),0,TRUE,FALSE,4,FALSE
"A187NHMKI4HSA","Oct 06 2014","07:21:05",14,"Short","Social","Zero",4,"Chrome",4,"Switch","Novel83",1,"Novel83",2,2854,"straightahead",-1,0,0,1,(Oct 06 2014 07:21:05),0,TRUE,FALSE,4,TRUE
"A187NHMKI4HSA","Oct 06 2014","07:21:05",15,"Short","Social","Zero",4,"Chrome",5,"Same","Novel77",1,"Novel77",1,5529,"silentLUshort",1,0,1,0,(Oct 06 2014 07:21:05),0,TRUE,FALSE,4,TRUE
"A187NHMKI4HSA","Oct 06 2014","07:21:05",16,"Short","Social","Zero",4,"Chrome",5,"Same","Novel77",0,"Novel77",1,238,"straightahead",-1,0,0,1,(Oct 06 2014 07:21:05),0,TRUE,FALSE,4,TRUE
"A187NHMKI4HSA","Oct 06 2014","07:21:05",17,"Short","Social","Zero",4,"Chrome",6,"Switch","Novel71",3,"Novel23",1,3770,"silentRUshort",3,0,1,0,(Oct 06 2014 07:21:05),0,TRUE,FALSE,4,FALSE
"A187NHMKI4HSA","Oct 06 2014","07:21:05",18,"Short","Social","Zero",4,"Chrome",6,"Switch","Novel23",3,"Novel23",1,2794,"straightahead",-1,0,0,1,(Oct 06 2014 07:21:05),0,TRUE,FALSE,4,TRUE
"A187NHMKI4HSA","Oct 06 2014","07:21:05",19,"Short","Social","Zero",4,"Chrome",7,"Same","Novel101",2,"Novel101",2,4806,"silentLUshort",1,0,1,0,(Oct 06 2014 07:21:05),0,TRUE,FALSE,4,TRUE
"A187NHMKI4HSA","Oct 06 2014","07:21:05",20,"Short","Social","Zero",4,"Chrome",7,"Same","Novel101",2,"Novel101",2,1556,"straightahead",-1,0,0,1,(Oct 06 2014 07:21:05),0,TRUE,FALSE,4,TRUE
"A1A2X0T1XE8K89","Oct 06 2014","02:39:14",1,"Noisy","Social","Zero",4,"Chrome",0,"Switch","squirrel",0,"",0,732,"straightahead",-1,1,0,0,(Oct 06 2014 02:39:14),0,TRUE,FALSE,4,FALSE
"A1A2X0T1XE8K89","Oct 06 2014","02:39:14",2,"Noisy","Social","Zero",4,"Chrome",0,"Switch","squirrel",0,"",0,775,"straightahead",-1,1,0,0,(Oct 06 2014 02:39:14),0,TRUE,FALSE,4,FALSE
"A1A2X0T1XE8K89","Oct 06 2014","02:39:14",3,"Noisy","Social","Zero",4,"Chrome",0,"Switch","tomato",1,"",0,435,"straightahead",-1,1,0,0,(Oct 06 2014 02:39:14),0,TRUE,FALSE,4,FALSE
"A1A2X0T1XE8K89","Oct 06 2014","02:39:14",4,"Noisy","Social","Zero",4,"Chrome",0,"Switch","tomato",2,"",0,201,"straightahead",-1,1,0,0,(Oct 06 2014 02:39:14),0,TRUE,FALSE,4,FALSE
"A1A2X0T1XE8K89","Oct 06 2014","02:39:14",5,"Noisy","Social","Zero",4,"Chrome",0,"Switch","Novel58",3,"Novel37",0,931,"noisyRD",2,0,1,0,(Oct 06 2014 02:39:14),0,TRUE,FALSE,4,FALSE
"A1A2X0T1XE8K89","Oct 06 2014","02:39:14",6,"Noisy","Social","Zero",4,"Chrome",0,"Switch","Novel49",3,"Novel37",0,3863,"straightahead",-1,0,0,1,(Oct 06 2014 02:39:14),0,TRUE,TRUE,4,FALSE
"A1A2X0T1XE8K89","Oct 06 2014","02:39:14",7,"Noisy","Social","Zero",4,"Chrome",1,"Same","Novel73",0,"Novel73",0,573,"noisyLU",1,0,1,0,(Oct 06 2014 02:39:14),0,TRUE,FALSE,4,TRUE
"A1A2X0T1XE8K89","Oct 06 2014","02:39:14",8,"Noisy","Social","Zero",4,"Chrome",1,"Same","Novel73",2,"Novel73",0,1156,"straightahead",-1,0,0,1,(Oct 06 2014 02:39:14),0,TRUE,FALSE,4,TRUE
"A1A2X0T1XE8K89","Oct 06 2014","02:39:14",9,"Noisy","Social","Zero",4,"Chrome",2,"Switch","Novel35",2,"Novel43",1,1173,"noisyLD",0,0,1,0,(Oct 06 2014 02:39:14),0,TRUE,FALSE,4,FALSE
"A1A2X0T1XE8K89","Oct 06 2014","02:39:14",10,"Noisy","Social","Zero",4,"Chrome",2,"Switch","Novel66",2,"Novel43",1,1832,"straightahead",-1,0,0,1,(Oct 06 2014 02:39:14),0,TRUE,FALSE,4,FALSE
"A1A2X0T1XE8K89","Oct 06 2014","02:39:14",11,"Noisy","Social","Zero",4,"Chrome",3,"Same","Novel7",0,"Novel7",0,527,"noisyLU",1,0,1,0,(Oct 06 2014 02:39:14),0,TRUE,FALSE,4,TRUE
"A1A2X0T1XE8K89","Oct 06 2014","02:39:14",12,"Noisy","Social","Zero",4,"Chrome",3,"Same","Novel7",3,"Novel7",0,82,"straightahead",-1,0,0,1,(Oct 06 2014 02:39:14),0,TRUE,FALSE,4,TRUE
"A1A2X0T1XE8K89","Oct 06 2014","02:39:14",13,"Noisy","Social","Zero",4,"Chrome",4,"Switch","Novel124",1,"Novel117",2,57,"noisyRU",3,0,1,0,(Oct 06 2014 02:39:14),0,TRUE,FALSE,4,FALSE
"A1A2X0T1XE8K89","Oct 06 2014","02:39:14",14,"Noisy","Social","Zero",4,"Chrome",4,"Switch","Novel116",2,"Novel117",2,19,"straightahead",-1,0,0,1,(Oct 06 2014 02:39:14),0,TRUE,FALSE,4,FALSE
"A1A2X0T1XE8K89","Oct 06 2014","02:39:14",15,"Noisy","Social","Zero",4,"Chrome",5,"Same","Novel122",3,"Novel122",3,187,"noisyRD",2,0,1,0,(Oct 06 2014 02:39:14),0,TRUE,FALSE,4,TRUE
"A1A2X0T1XE8K89","Oct 06 2014","02:39:14",16,"Noisy","Social","Zero",4,"Chrome",5,"Same","Novel122",3,"Novel122",3,343,"straightahead",-1,0,0,1,(Oct 06 2014 02:39:14),0,TRUE,FALSE,4,TRUE
"A1A2X0T1XE8K89","Oct 06 2014","02:39:14",17,"Noisy","Social","Zero",4,"Chrome",6,"Switch","Novel14",0,"Novel119",1,212,"noisyLU",1,0,1,0,(Oct 06 2014 02:39:14),0,TRUE,FALSE,4,FALSE
"A1A2X0T1XE8K89","Oct 06 2014","02:39:14",18,"Noisy","Social","Zero",4,"Chrome",6,"Switch","Novel21",2,"Novel119",1,2299,"straightahead",-1,0,0,1,(Oct 06 2014 02:39:14),0,TRUE,FALSE,4,FALSE
"A1A2X0T1XE8K89","Oct 06 2014","02:39:14",19,"Noisy","Social","Zero",4,"Chrome",7,"Same","Novel2",3,"Novel2",3,227,"noisyRD",2,0,1,0,(Oct 06 2014 02:39:14),0,TRUE,FALSE,4,TRUE
"A1A2X0T1XE8K89","Oct 06 2014","02:39:14",20,"Noisy","Social","Zero",4,"Chrome",7,"Same","Novel2",3,"Novel2",3,212,"straightahead",-1,0,0,1,(Oct 06 2014 02:39:14),0,TRUE,FALSE,4,TRUE
"A1A7U8TF7JAMGN","Oct 06 2014","08:05:29",1,"Short","No-social","Zero",4,"Chrome",0,"Same","squirrel",0,"",0,9970,"straightahead",-1,1,0,0,(Oct 06 2014 08:05:29),0,TRUE,FALSE,4,FALSE
"A1A7U8TF7JAMGN","Oct 06 2014","08:05:29",2,"Short","No-social","Zero",4,"Chrome",0,"Same","squirrel",0,"",0,302,"straightahead",-1,1,0,0,(Oct 06 2014 08:05:29),0,TRUE,FALSE,4,FALSE
"A1A7U8TF7JAMGN","Oct 06 2014","08:05:29",3,"Short","No-social","Zero",4,"Chrome",0,"Same","tomato",1,"",0,373,"straightahead",-1,1,0,0,(Oct 06 2014 08:05:29),0,TRUE,FALSE,4,FALSE
"A1A7U8TF7JAMGN","Oct 06 2014","08:05:29",4,"Short","No-social","Zero",4,"Chrome",0,"Same","tomato",2,"",0,819,"straightahead",-1,1,0,0,(Oct 06 2014 08:05:29),0,TRUE,FALSE,4,FALSE
"A1A7U8TF7JAMGN","Oct 06 2014","08:05:29",5,"Short","No-social","Zero",4,"Chrome",0,"Same","Novel134",2,"Novel134",2,1060,"straightahead",-1,0,1,0,(Oct 06 2014 08:05:29),0,TRUE,FALSE,4,TRUE
"A1A7U8TF7JAMGN","Oct 06 2014","08:05:29",6,"Short","No-social","Zero",4,"Chrome",0,"Same","Novel134",3,"Novel134",2,731,"straightahead",-1,0,0,1,(Oct 06 2014 08:05:29),0,TRUE,TRUE,4,TRUE
"A1A7U8TF7JAMGN","Oct 06 2014","08:05:29",7,"Short","No-social","Zero",4,"Chrome",1,"Switch","Novel89",1,"Novel57",2,1437,"straightahead",-1,0,1,0,(Oct 06 2014 08:05:29),0,TRUE,FALSE,4,FALSE
"A1A7U8TF7JAMGN","Oct 06 2014","08:05:29",8,"Short","No-social","Zero",4,"Chrome",1,"Switch","Novel77",1,"Novel57",2,1168,"straightahead",-1,0,0,1,(Oct 06 2014 08:05:29),0,TRUE,FALSE,4,FALSE
"A1A7U8TF7JAMGN","Oct 06 2014","08:05:29",9,"Short","No-social","Zero",4,"Chrome",2,"Same","Novel97",3,"Novel97",3,1274,"straightahead",-1,0,1,0,(Oct 06 2014 08:05:29),0,TRUE,FALSE,4,TRUE
"A1A7U8TF7JAMGN","Oct 06 2014","08:05:29",10,"Short","No-social","Zero",4,"Chrome",2,"Same","Novel97",3,"Novel97",3,692,"straightahead",-1,0,0,1,(Oct 06 2014 08:05:29),0,TRUE,FALSE,4,TRUE
"A1A7U8TF7JAMGN","Oct 06 2014","08:05:29",11,"Short","No-social","Zero",4,"Chrome",3,"Switch","Novel131",0,"Novel25",2,2348,"straightahead",-1,0,1,0,(Oct 06 2014 08:05:29),0,TRUE,FALSE,4,FALSE
"A1A7U8TF7JAMGN","Oct 06 2014","08:05:29",12,"Short","No-social","Zero",4,"Chrome",3,"Switch","Novel42",1,"Novel25",2,1862,"straightahead",-1,0,0,1,(Oct 06 2014 08:05:29),0,TRUE,FALSE,4,FALSE
"A1A7U8TF7JAMGN","Oct 06 2014","08:05:29",13,"Short","No-social","Zero",4,"Chrome",4,"Same","Novel39",1,"Novel39",1,2045,"straightahead",-1,0,1,0,(Oct 06 2014 08:05:29),0,TRUE,FALSE,4,TRUE
"A1A7U8TF7JAMGN","Oct 06 2014","08:05:29",14,"Short","No-social","Zero",4,"Chrome",4,"Same","Novel39",3,"Novel39",1,222,"straightahead",-1,0,0,1,(Oct 06 2014 08:05:29),0,TRUE,FALSE,4,TRUE
"A1A7U8TF7JAMGN","Oct 06 2014","08:05:29",15,"Short","No-social","Zero",4,"Chrome",5,"Switch","Novel117",2,"Novel9",3,1406,"straightahead",-1,0,1,0,(Oct 06 2014 08:05:29),0,TRUE,FALSE,4,FALSE
"A1A7U8TF7JAMGN","Oct 06 2014","08:05:29",16,"Short","No-social","Zero",4,"Chrome",5,"Switch","Novel9",1,"Novel9",3,6,"straightahead",-1,0,0,1,(Oct 06 2014 08:05:29),0,TRUE,FALSE,4,TRUE
"A1A7U8TF7JAMGN","Oct 06 2014","08:05:29",17,"Short","No-social","Zero",4,"Chrome",6,"Same","Novel70",2,"Novel70",2,1021,"straightahead",-1,0,1,0,(Oct 06 2014 08:05:29),0,TRUE,FALSE,4,TRUE
"A1A7U8TF7JAMGN","Oct 06 2014","08:05:29",18,"Short","No-social","Zero",4,"Chrome",6,"Same","Novel70",2,"Novel70",2,807,"straightahead",-1,0,0,1,(Oct 06 2014 08:05:29),0,TRUE,FALSE,4,TRUE
"A1A7U8TF7JAMGN","Oct 06 2014","08:05:29",19,"Short","No-social","Zero",4,"Chrome",7,"Switch","Novel66",1,"Novel139",0,1109,"straightahead",-1,0,1,0,(Oct 06 2014 08:05:29),0,TRUE,FALSE,4,FALSE
"A1A7U8TF7JAMGN","Oct 06 2014","08:05:29",20,"Short","No-social","Zero",4,"Chrome",7,"Switch","Novel139",0,"Novel139",0,194,"straightahead",-1,0,0,1,(Oct 06 2014 08:05:29),0,TRUE,FALSE,4,TRUE
"A1ARCK5GO7TQLE","Oct 06 2014","08:54:36",1,"Noisy","Social","Zero",4,"Safari",0,"Same","squirrel",0,"",0,1530,"straightahead",-1,1,0,0,(Oct 06 2014 08:54:36),0,TRUE,FALSE,4,FALSE
"A1ARCK5GO7TQLE","Oct 06 2014","08:54:36",2,"Noisy","Social","Zero",4,"Safari",0,"Same","squirrel",0,"",0,337,"straightahead",-1,1,0,0,(Oct 06 2014 08:54:36),0,TRUE,FALSE,4,FALSE
"A1ARCK5GO7TQLE","Oct 06 2014","08:54:36",3,"Noisy","Social","Zero",4,"Safari",0,"Same","tomato",1,"",0,2059,"straightahead",-1,1,0,0,(Oct 06 2014 08:54:36),0,TRUE,FALSE,4,FALSE
"A1ARCK5GO7TQLE","Oct 06 2014","08:54:36",4,"Noisy","Social","Zero",4,"Safari",0,"Same","tomato",2,"",0,490,"straightahead",-1,1,0,0,(Oct 06 2014 08:54:36),0,TRUE,FALSE,4,FALSE
"A1ARCK5GO7TQLE","Oct 06 2014","08:54:36",5,"Noisy","Social","Zero",4,"Safari",0,"Same","Novel12",1,"Novel12",1,294,"noisyRU",3,0,1,0,(Oct 06 2014 08:54:36),0,TRUE,FALSE,4,TRUE
"A1ARCK5GO7TQLE","Oct 06 2014","08:54:36",6,"Noisy","Social","Zero",4,"Safari",0,"Same","Novel12",1,"Novel12",1,523,"straightahead",-1,0,0,1,(Oct 06 2014 08:54:36),0,TRUE,TRUE,4,TRUE
"A1ARCK5GO7TQLE","Oct 06 2014","08:54:36",7,"Noisy","Social","Zero",4,"Safari",1,"Switch","Novel139",2,"Novel94",3,281,"noisyLD",0,0,1,0,(Oct 06 2014 08:54:36),0,TRUE,FALSE,4,FALSE
"A1ARCK5GO7TQLE","Oct 06 2014","08:54:36",8,"Noisy","Social","Zero",4,"Safari",1,"Switch","Novel94",0,"Novel94",3,2570,"straightahead",-1,0,0,1,(Oct 06 2014 08:54:36),0,TRUE,FALSE,4,TRUE
"A1ARCK5GO7TQLE","Oct 06 2014","08:54:36",9,"Noisy","Social","Zero",4,"Safari",2,"Same","Novel92",1,"Novel92",1,1184,"noisyLD",0,0,1,0,(Oct 06 2014 08:54:36),0,TRUE,FALSE,4,TRUE
"A1ARCK5GO7TQLE","Oct 06 2014","08:54:36",10,"Noisy","Social","Zero",4,"Safari",2,"Same","Novel92",2,"Novel92",1,91,"straightahead",-1,0,0,1,(Oct 06 2014 08:54:36),0,TRUE,FALSE,4,TRUE
"A1ARCK5GO7TQLE","Oct 06 2014","08:54:36",11,"Noisy","Social","Zero",4,"Safari",3,"Switch","Novel86",3,"Novel59",1,201,"noisyRD",2,0,1,0,(Oct 06 2014 08:54:36),0,TRUE,FALSE,4,FALSE
"A1ARCK5GO7TQLE","Oct 06 2014","08:54:36",12,"Noisy","Social","Zero",4,"Safari",3,"Switch","Novel44",2,"Novel59",1,375,"straightahead",-1,0,0,1,(Oct 06 2014 08:54:36),0,TRUE,FALSE,4,FALSE
"A1ARCK5GO7TQLE","Oct 06 2014","08:54:36",13,"Noisy","Social","Zero",4,"Safari",4,"Same","Novel56",2,"Novel56",2,375,"noisyLD",0,0,1,0,(Oct 06 2014 08:54:36),0,TRUE,FALSE,4,TRUE
"A1ARCK5GO7TQLE","Oct 06 2014","08:54:36",14,"Noisy","Social","Zero",4,"Safari",4,"Same","Novel56",0,"Novel56",2,1334,"straightahead",-1,0,0,1,(Oct 06 2014 08:54:36),0,TRUE,FALSE,4,TRUE
"A1ARCK5GO7TQLE","Oct 06 2014","08:54:36",15,"Noisy","Social","Zero",4,"Safari",5,"Switch","Novel54",3,"Novel33",0,244,"noisyRD",2,0,1,0,(Oct 06 2014 08:54:36),0,TRUE,FALSE,4,FALSE
"A1ARCK5GO7TQLE","Oct 06 2014","08:54:36",16,"Noisy","Social","Zero",4,"Safari",5,"Switch","Novel89",1,"Novel33",0,724,"straightahead",-1,0,0,1,(Oct 06 2014 08:54:36),0,TRUE,FALSE,4,FALSE
"A1ARCK5GO7TQLE","Oct 06 2014","08:54:36",17,"Noisy","Social","Zero",4,"Safari",6,"Same","Novel136",1,"Novel136",1,585,"noisyRU",3,0,1,0,(Oct 06 2014 08:54:36),0,TRUE,FALSE,4,TRUE
"A1ARCK5GO7TQLE","Oct 06 2014","08:54:36",18,"Noisy","Social","Zero",4,"Safari",6,"Same","Novel136",1,"Novel136",1,73,"straightahead",-1,0,0,1,(Oct 06 2014 08:54:36),0,TRUE,FALSE,4,TRUE
"A1ARCK5GO7TQLE","Oct 06 2014","08:54:36",19,"Noisy","Social","Zero",4,"Safari",7,"Switch","Novel8",0,"Novel106",1,428,"noisyLU",1,0,1,0,(Oct 06 2014 08:54:36),0,TRUE,FALSE,4,FALSE
"A1ARCK5GO7TQLE","Oct 06 2014","08:54:36",20,"Noisy","Social","Zero",4,"Safari",7,"Switch","Novel58",1,"Novel106",1,417,"straightahead",-1,0,0,1,(Oct 06 2014 08:54:36),0,TRUE,FALSE,4,FALSE
"A1BECW50LAWZTZ","Oct 05 2014","23:03:54",1,"Noisy","Social","Zero",4,"Safari",0,"Switch","squirrel",0,"",0,5051,"straightahead",-1,1,0,0,(Oct 05 2014 23:03:54),0,TRUE,FALSE,4,FALSE
"A1BECW50LAWZTZ","Oct 05 2014","23:03:54",2,"Noisy","Social","Zero",4,"Safari",0,"Switch","squirrel",0,"",0,1252,"straightahead",-1,1,0,0,(Oct 05 2014 23:03:54),0,TRUE,FALSE,4,FALSE
"A1BECW50LAWZTZ","Oct 05 2014","23:03:54",3,"Noisy","Social","Zero",4,"Safari",0,"Switch","tomato",1,"",0,1059,"straightahead",-1,1,0,0,(Oct 05 2014 23:03:54),0,TRUE,FALSE,4,FALSE
"A1BECW50LAWZTZ","Oct 05 2014","23:03:54",4,"Noisy","Social","Zero",4,"Safari",0,"Switch","tomato",2,"",0,780,"straightahead",-1,1,0,0,(Oct 05 2014 23:03:54),0,TRUE,FALSE,4,FALSE
"A1BECW50LAWZTZ","Oct 05 2014","23:03:54",5,"Noisy","Social","Zero",4,"Safari",0,"Switch","Novel35",2,"Novel138",0,6056,"noisyLU",1,0,1,0,(Oct 05 2014 23:03:54),0,TRUE,FALSE,4,FALSE
"A1BECW50LAWZTZ","Oct 05 2014","23:03:54",6,"Noisy","Social","Zero",4,"Safari",0,"Switch","Novel138",3,"Novel138",0,2755,"straightahead",-1,0,0,1,(Oct 05 2014 23:03:54),0,TRUE,TRUE,4,TRUE
"A1BECW50LAWZTZ","Oct 05 2014","23:03:54",7,"Noisy","Social","Zero",4,"Safari",1,"Same","Novel68",1,"Novel68",1,1269,"noisyRU",3,0,1,0,(Oct 05 2014 23:03:54),0,TRUE,FALSE,4,TRUE
"A1BECW50LAWZTZ","Oct 05 2014","23:03:54",8,"Noisy","Social","Zero",4,"Safari",1,"Same","Novel68",2,"Novel68",1,798,"straightahead",-1,0,0,1,(Oct 05 2014 23:03:54),0,TRUE,FALSE,4,TRUE
"A1BECW50LAWZTZ","Oct 05 2014","23:03:54",9,"Noisy","Social","Zero",4,"Safari",2,"Switch","Novel96",1,"Novel78",3,955,"noisyRU",3,0,1,0,(Oct 05 2014 23:03:54),0,TRUE,FALSE,4,FALSE
"A1BECW50LAWZTZ","Oct 05 2014","23:03:54",10,"Noisy","Social","Zero",4,"Safari",2,"Switch","Novel78",2,"Novel78",3,1837,"straightahead",-1,0,0,1,(Oct 05 2014 23:03:54),0,TRUE,FALSE,4,TRUE
"A1BECW50LAWZTZ","Oct 05 2014","23:03:54",11,"Noisy","Social","Zero",4,"Safari",3,"Same","Novel113",1,"Novel113",1,4274,"noisyRU",3,0,1,0,(Oct 05 2014 23:03:54),0,TRUE,FALSE,4,TRUE
"A1BECW50LAWZTZ","Oct 05 2014","23:03:54",12,"Noisy","Social","Zero",4,"Safari",3,"Same","Novel113",1,"Novel113",1,847,"straightahead",-1,0,0,1,(Oct 05 2014 23:03:54),0,TRUE,FALSE,4,TRUE
"A1BECW50LAWZTZ","Oct 05 2014","23:03:54",13,"Noisy","Social","Zero",4,"Safari",4,"Switch","Novel114",1,"Novel51",3,2977,"noisyRU",3,0,1,0,(Oct 05 2014 23:03:54),0,TRUE,FALSE,4,FALSE
"A1BECW50LAWZTZ","Oct 05 2014","23:03:54",14,"Noisy","Social","Zero",4,"Safari",4,"Switch","Novel51",3,"Novel51",3,2820,"straightahead",-1,0,0,1,(Oct 05 2014 23:03:54),0,TRUE,FALSE,4,TRUE
"A1BECW50LAWZTZ","Oct 05 2014","23:03:54",15,"Noisy","Social","Zero",4,"Safari",5,"Same","Novel41",0,"Novel41",0,7635,"noisyLU",1,0,1,0,(Oct 05 2014 23:03:54),0,TRUE,FALSE,4,TRUE
"A1BECW50LAWZTZ","Oct 05 2014","23:03:54",16,"Noisy","Social","Zero",4,"Safari",5,"Same","Novel41",0,"Novel41",0,642,"straightahead",-1,0,0,1,(Oct 05 2014 23:03:54),0,TRUE,FALSE,4,TRUE
"A1BECW50LAWZTZ","Oct 05 2014","23:03:54",17,"Noisy","Social","Zero",4,"Safari",6,"Switch","Novel46",3,"Novel42",2,1252,"noisyRD",2,0,1,0,(Oct 05 2014 23:03:54),0,TRUE,FALSE,4,FALSE
