"subid","submit.date","submit.time","trial.num","gazeLength","condition","interval","numPic","browser","itemNum","trialType","chosen","chosenIdx","kept","keptIdx","rt","face","faceIdx","example_trial","exposure_trial","test_trial","day.and.time","intervalNum","include","first.trial","numPicN","correct"
"A10DHEIDKZR0IJ","Oct 05 2014","19:44:09",1,"Short","SocialFirst","Zero",4,"Firefox",0,"Switch","squirrel",0,"",0,489,"straightahead",-1,1,0,0,(Oct 05 2014 19:44:09),0,TRUE,FALSE,4,FALSE
"A10DHEIDKZR0IJ","Oct 05 2014","19:44:09",2,"Short","SocialFirst","Zero",4,"Firefox",0,"Switch","squirrel",0,"",0,296,"straightahead",-1,1,0,0,(Oct 05 2014 19:44:09),0,TRUE,FALSE,4,FALSE
"A10DHEIDKZR0IJ","Oct 05 2014","19:44:09",3,"Short","SocialFirst","Zero",4,"Firefox",0,"Switch","tomato",1,"",0,58,"straightahead",-1,1,0,0,(Oct 05 2014 19:44:09),0,TRUE,FALSE,4,FALSE
"A10DHEIDKZR0IJ","Oct 05 2014","19:44:09",4,"Short","SocialFirst","Zero",4,"Firefox",0,"Switch","tomato",2,"",0,282,"straightahead",-1,1,0,0,(Oct 05 2014 19:44:09),0,TRUE,FALSE,4,FALSE
"A10DHEIDKZR0IJ","Oct 05 2014","19:44:09",5,"Short","SocialFirst","Zero",4,"Firefox",0,"Switch","Novel64",3,"Novel3",1,1299,"silentLUshort",1,0,1,0,(Oct 05 2014 19:44:09),0,TRUE,FALSE,4,FALSE
"A10DHEIDKZR0IJ","Oct 05 2014","19:44:09",6,"Short","SocialFirst","Zero",4,"Firefox",0,"Switch","Novel3",1,"Novel3",1,3757,"straightahead",-1,0,0,1,(Oct 05 2014 19:44:09),0,TRUE,TRUE,4,TRUE
"A10DHEIDKZR0IJ","Oct 05 2014","19:44:09",7,"Short","SocialFirst","Zero",4,"Firefox",1,"Same","Novel26",1,"Novel26",1,2048,"silentRDshort",2,0,1,0,(Oct 05 2014 19:44:09),0,TRUE,FALSE,4,TRUE
"A10DHEIDKZR0IJ","Oct 05 2014","19:44:09",8,"Short","SocialFirst","Zero",4,"Firefox",1,"Same","Novel26",1,"Novel26",1,1189,"straightahead",-1,0,0,1,(Oct 05 2014 19:44:09),0,TRUE,FALSE,4,TRUE
"A10DHEIDKZR0IJ","Oct 05 2014","19:44:09",9,"Short","SocialFirst","Zero",4,"Firefox",2,"Switch","Novel80",3,"Novel82",1,421,"silentLUshort",1,0,1,0,(Oct 05 2014 19:44:09),0,TRUE,FALSE,4,FALSE
"A10DHEIDKZR0IJ","Oct 05 2014","19:44:09",10,"Short","SocialFirst","Zero",4,"Firefox",2,"Switch","Novel106",1,"Novel82",1,2549,"straightahead",-1,0,0,1,(Oct 05 2014 19:44:09),0,TRUE,FALSE,4,FALSE
"A10DHEIDKZR0IJ","Oct 05 2014","19:44:09",11,"Short","SocialFirst","Zero",4,"Firefox",3,"Same","Novel79",0,"Novel79",0,1915,"silentLDshort",0,0,1,0,(Oct 05 2014 19:44:09),0,TRUE,FALSE,4,TRUE
"A10DHEIDKZR0IJ","Oct 05 2014","19:44:09",12,"Short","SocialFirst","Zero",4,"Firefox",3,"Same","Novel79",0,"Novel79",0,16,"straightahead",-1,0,0,1,(Oct 05 2014 19:44:09),0,TRUE,FALSE,4,TRUE
"A10DHEIDKZR0IJ","Oct 05 2014","19:44:09",13,"Short","SocialFirst","Zero",4,"Firefox",4,"Switch","Novel112",2,"Novel93",0,534,"silentLUshort",1,0,1,0,(Oct 05 2014 19:44:09),0,TRUE,FALSE,4,FALSE
"A10DHEIDKZR0IJ","Oct 05 2014","19:44:09",14,"Short","SocialFirst","Zero",4,"Firefox",4,"Switch","Novel6",1,"Novel93",0,1025,"straightahead",-1,0,0,1,(Oct 05 2014 19:44:09),0,TRUE,FALSE,4,FALSE
"A10DHEIDKZR0IJ","Oct 05 2014","19:44:09",15,"Short","SocialFirst","Zero",4,"Firefox",5,"Same","Novel91",2,"Novel91",2,1050,"silentRUshort",3,0,1,0,(Oct 05 2014 19:44:09),0,TRUE,FALSE,4,TRUE
"A10DHEIDKZR0IJ","Oct 05 2014","19:44:09",16,"Short","SocialFirst","Zero",4,"Firefox",5,"Same","Novel91",1,"Novel91",2,823,"straightahead",-1,0,0,1,(Oct 05 2014 19:44:09),0,TRUE,FALSE,4,TRUE
"A10DHEIDKZR0IJ","Oct 05 2014","19:44:09",17,"Short","SocialFirst","Zero",4,"Firefox",6,"Switch","Novel116",1,"Novel59",3,2009,"silentRDshort",2,0,1,0,(Oct 05 2014 19:44:09),0,TRUE,FALSE,4,FALSE
"A10DHEIDKZR0IJ","Oct 05 2014","19:44:09",18,"Short","SocialFirst","Zero",4,"Firefox",6,"Switch","Novel103",2,"Novel59",3,356,"straightahead",-1,0,0,1,(Oct 05 2014 19:44:09),0,TRUE,FALSE,4,FALSE
"A10DHEIDKZR0IJ","Oct 05 2014","19:44:09",19,"Short","SocialFirst","Zero",4,"Firefox",7,"Same","Novel17",1,"Novel17",1,659,"silentRDshort",2,0,1,0,(Oct 05 2014 19:44:09),0,TRUE,FALSE,4,TRUE
"A10DHEIDKZR0IJ","Oct 05 2014","19:44:09",20,"Short","SocialFirst","Zero",4,"Firefox",7,"Same","Novel17",2,"Novel17",1,779,"straightahead",-1,0,0,1,(Oct 05 2014 19:44:09),0,TRUE,FALSE,4,TRUE
"A10DHEIDKZR0IJ","Oct 05 2014","19:44:09",21,"Short","SocialFirst","Zero",4,"Firefox",8,"Switch","Novel40",0,"Novel28",1,1318,"straightahead",-1,0,1,0,(Oct 05 2014 19:44:09),0,TRUE,FALSE,4,FALSE
"A10DHEIDKZR0IJ","Oct 05 2014","19:44:09",22,"Short","SocialFirst","Zero",4,"Firefox",8,"Switch","Novel37",1,"Novel28",1,349,"straightahead",-1,0,0,1,(Oct 05 2014 19:44:09),0,TRUE,FALSE,4,FALSE
"A10DHEIDKZR0IJ","Oct 05 2014","19:44:09",23,"Short","SocialFirst","Zero",4,"Firefox",9,"Same","Novel23",1,"Novel23",1,559,"straightahead",-1,0,1,0,(Oct 05 2014 19:44:09),0,TRUE,FALSE,4,TRUE
"A10DHEIDKZR0IJ","Oct 05 2014","19:44:09",24,"Short","SocialFirst","Zero",4,"Firefox",9,"Same","Novel23",2,"Novel23",1,397,"straightahead",-1,0,0,1,(Oct 05 2014 19:44:09),0,TRUE,FALSE,4,TRUE
"A10DHEIDKZR0IJ","Oct 05 2014","19:44:09",25,"Short","SocialFirst","Zero",4,"Firefox",10,"Switch","Novel10",3,"Novel24",1,235,"straightahead",-1,0,1,0,(Oct 05 2014 19:44:09),0,TRUE,FALSE,4,FALSE
"A10DHEIDKZR0IJ","Oct 05 2014","19:44:09",26,"Short","SocialFirst","Zero",4,"Firefox",10,"Switch","Novel43",3,"Novel24",1,245,"straightahead",-1,0,0,1,(Oct 05 2014 19:44:09),0,TRUE,FALSE,4,FALSE
"A10DHEIDKZR0IJ","Oct 05 2014","19:44:09",27,"Short","SocialFirst","Zero",4,"Firefox",11,"Same","Novel127",1,"Novel127",1,289,"straightahead",-1,0,1,0,(Oct 05 2014 19:44:09),0,TRUE,FALSE,4,TRUE
"A10DHEIDKZR0IJ","Oct 05 2014","19:44:09",28,"Short","SocialFirst","Zero",4,"Firefox",11,"Same","Novel119",1,"Novel127",1,13,"straightahead",-1,0,0,1,(Oct 05 2014 19:44:09),0,TRUE,FALSE,4,FALSE
"A10DHEIDKZR0IJ","Oct 05 2014","19:44:09",29,"Short","SocialFirst","Zero",4,"Firefox",12,"Switch","Novel98",2,"Novel36",3,40,"straightahead",-1,0,1,0,(Oct 05 2014 19:44:09),0,TRUE,FALSE,4,FALSE
"A10DHEIDKZR0IJ","Oct 05 2014","19:44:09",30,"Short","SocialFirst","Zero",4,"Firefox",12,"Switch","Novel51",0,"Novel36",3,456,"straightahead",-1,0,0,1,(Oct 05 2014 19:44:09),0,TRUE,FALSE,4,FALSE
"A10DHEIDKZR0IJ","Oct 05 2014","19:44:09",31,"Short","SocialFirst","Zero",4,"Firefox",13,"Same","Novel94",3,"Novel94",3,399,"straightahead",-1,0,1,0,(Oct 05 2014 19:44:09),0,TRUE,FALSE,4,TRUE
"A10DHEIDKZR0IJ","Oct 05 2014","19:44:09",32,"Short","SocialFirst","Zero",4,"Firefox",13,"Same","Novel94",2,"Novel94",3,1666,"straightahead",-1,0,0,1,(Oct 05 2014 19:44:09),0,TRUE,FALSE,4,TRUE
"A10DHEIDKZR0IJ","Oct 05 2014","19:44:09",33,"Short","SocialFirst","Zero",4,"Firefox",14,"Switch","Novel92",0,"Novel109",1,2838,"straightahead",-1,0,1,0,(Oct 05 2014 19:44:09),0,TRUE,FALSE,4,FALSE
"A10DHEIDKZR0IJ","Oct 05 2014","19:44:09",34,"Short","SocialFirst","Zero",4,"Firefox",14,"Switch","Novel109",2,"Novel109",1,1700,"straightahead",-1,0,0,1,(Oct 05 2014 19:44:09),0,TRUE,FALSE,4,TRUE
"A10DHEIDKZR0IJ","Oct 05 2014","19:44:09",35,"Short","SocialFirst","Zero",4,"Firefox",15,"Same","Novel11",2,"Novel11",2,687,"straightahead",-1,0,1,0,(Oct 05 2014 19:44:09),0,TRUE,FALSE,4,TRUE
"A10DHEIDKZR0IJ","Oct 05 2014","19:44:09",36,"Short","SocialFirst","Zero",4,"Firefox",15,"Same","Novel11",0,"Novel11",2,1017,"straightahead",-1,0,0,1,(Oct 05 2014 19:44:09),0,TRUE,FALSE,4,TRUE
"A10UD1YXGLR4TI","Oct 05 2014","18:41:06",1,"Short","No-socialFirst","Zero",4,"Safari",0,"Switch","squirrel",0,"",0,26700,"straightahead",-1,1,0,0,(Oct 05 2014 18:41:06),0,TRUE,FALSE,4,FALSE
"A10UD1YXGLR4TI","Oct 05 2014","18:41:06",2,"Short","No-socialFirst","Zero",4,"Safari",0,"Switch","squirrel",0,"",0,1562,"straightahead",-1,1,0,0,(Oct 05 2014 18:41:06),0,TRUE,FALSE,4,FALSE
"A10UD1YXGLR4TI","Oct 05 2014","18:41:06",3,"Short","No-socialFirst","Zero",4,"Safari",0,"Switch","tomato",1,"",0,1220,"straightahead",-1,1,0,0,(Oct 05 2014 18:41:06),0,TRUE,FALSE,4,FALSE
"A10UD1YXGLR4TI","Oct 05 2014","18:41:06",4,"Short","No-socialFirst","Zero",4,"Safari",0,"Switch","tomato",2,"",0,552,"straightahead",-1,1,0,0,(Oct 05 2014 18:41:06),0,TRUE,FALSE,4,FALSE
"A10UD1YXGLR4TI","Oct 05 2014","18:41:06",5,"Short","No-socialFirst","Zero",4,"Safari",0,"Switch","Novel85",1,"Novel37",0,5580,"straightahead",-1,0,1,0,(Oct 05 2014 18:41:06),0,TRUE,FALSE,4,FALSE
"A10UD1YXGLR4TI","Oct 05 2014","18:41:06",6,"Short","No-socialFirst","Zero",4,"Safari",0,"Switch","Novel114",1,"Novel37",0,4503,"straightahead",-1,0,0,1,(Oct 05 2014 18:41:06),0,TRUE,TRUE,4,FALSE
"A10UD1YXGLR4TI","Oct 05 2014","18:41:06",7,"Short","No-socialFirst","Zero",4,"Safari",1,"Same","Novel122",3,"Novel122",3,2335,"straightahead",-1,0,1,0,(Oct 05 2014 18:41:06),0,TRUE,FALSE,4,TRUE
"A10UD1YXGLR4TI","Oct 05 2014","18:41:06",8,"Short","No-socialFirst","Zero",4,"Safari",1,"Same","Novel122",3,"Novel122",3,883,"straightahead",-1,0,0,1,(Oct 05 2014 18:41:06),0,TRUE,FALSE,4,TRUE
"A10UD1YXGLR4TI","Oct 05 2014","18:41:06",9,"Short","No-socialFirst","Zero",4,"Safari",2,"Switch","Novel78",2,"Novel32",3,6855,"straightahead",-1,0,1,0,(Oct 05 2014 18:41:06),0,TRUE,FALSE,4,FALSE
"A10UD1YXGLR4TI","Oct 05 2014","18:41:06",10,"Short","No-socialFirst","Zero",4,"Safari",2,"Switch","Novel112",1,"Novel32",3,4287,"straightahead",-1,0,0,1,(Oct 05 2014 18:41:06),0,TRUE,FALSE,4,FALSE
"A10UD1YXGLR4TI","Oct 05 2014","18:41:06",11,"Short","No-socialFirst","Zero",4,"Safari",3,"Same","Novel42",1,"Novel42",1,1578,"straightahead",-1,0,1,0,(Oct 05 2014 18:41:06),0,TRUE,FALSE,4,TRUE
"A10UD1YXGLR4TI","Oct 05 2014","18:41:06",12,"Short","No-socialFirst","Zero",4,"Safari",3,"Same","Novel42",1,"Novel42",1,29,"straightahead",-1,0,0,1,(Oct 05 2014 18:41:06),0,TRUE,FALSE,4,TRUE
"A10UD1YXGLR4TI","Oct 05 2014","18:41:06",13,"Short","No-socialFirst","Zero",4,"Safari",4,"Switch","Novel44",2,"Novel20",3,2530,"straightahead",-1,0,1,0,(Oct 05 2014 18:41:06),0,TRUE,FALSE,4,FALSE
"A10UD1YXGLR4TI","Oct 05 2014","18:41:06",14,"Short","No-socialFirst","Zero",4,"Safari",4,"Switch","Novel27",0,"Novel20",3,2188,"straightahead",-1,0,0,1,(Oct 05 2014 18:41:06),0,TRUE,FALSE,4,FALSE
"A10UD1YXGLR4TI","Oct 05 2014","18:41:06",15,"Short","No-socialFirst","Zero",4,"Safari",5,"Same","Novel18",3,"Novel18",3,2387,"straightahead",-1,0,1,0,(Oct 05 2014 18:41:06),0,TRUE,FALSE,4,TRUE
"A10UD1YXGLR4TI","Oct 05 2014","18:41:06",16,"Short","No-socialFirst","Zero",4,"Safari",5,"Same","Novel18",0,"Novel18",3,93,"straightahead",-1,0,0,1,(Oct 05 2014 18:41:06),0,TRUE,FALSE,4,TRUE
"A10UD1YXGLR4TI","Oct 05 2014","18:41:06",17,"Short","No-socialFirst","Zero",4,"Safari",6,"Switch","Novel60",0,"Novel45",1,4542,"straightahead",-1,0,1,0,(Oct 05 2014 18:41:06),0,TRUE,FALSE,4,FALSE
"A10UD1YXGLR4TI","Oct 05 2014","18:41:06",18,"Short","No-socialFirst","Zero",4,"Safari",6,"Switch","Novel48",2,"Novel45",1,1585,"straightahead",-1,0,0,1,(Oct 05 2014 18:41:06),0,TRUE,FALSE,4,FALSE
"A10UD1YXGLR4TI","Oct 05 2014","18:41:06",19,"Short","No-socialFirst","Zero",4,"Safari",7,"Same","Novel133",1,"Novel133",1,1567,"straightahead",-1,0,1,0,(Oct 05 2014 18:41:06),0,TRUE,FALSE,4,TRUE
"A10UD1YXGLR4TI","Oct 05 2014","18:41:06",20,"Short","No-socialFirst","Zero",4,"Safari",7,"Same","Novel133",2,"Novel133",1,203,"straightahead",-1,0,0,1,(Oct 05 2014 18:41:06),0,TRUE,FALSE,4,TRUE
"A10UD1YXGLR4TI","Oct 05 2014","18:41:06",21,"Short","No-socialFirst","Zero",4,"Safari",8,"Switch","Novel8",0,"Novel40",1,1700,"silentLUmedium",1,0,1,0,(Oct 05 2014 18:41:06),0,TRUE,FALSE,4,FALSE
"A10UD1YXGLR4TI","Oct 05 2014","18:41:06",22,"Short","No-socialFirst","Zero",4,"Safari",8,"Switch","Novel106",2,"Novel40",1,2144,"straightahead",-1,0,0,1,(Oct 05 2014 18:41:06),0,TRUE,FALSE,4,FALSE
"A10UD1YXGLR4TI","Oct 05 2014","18:41:06",23,"Short","No-socialFirst","Zero",4,"Safari",9,"Same","Novel88",3,"Novel88",3,615,"silentRDmedium",2,0,1,0,(Oct 05 2014 18:41:06),0,TRUE,FALSE,4,TRUE
"A10UD1YXGLR4TI","Oct 05 2014","18:41:06",24,"Short","No-socialFirst","Zero",4,"Safari",9,"Same","Novel88",2,"Novel88",3,141,"straightahead",-1,0,0,1,(Oct 05 2014 18:41:06),0,TRUE,FALSE,4,TRUE
"A10UD1YXGLR4TI","Oct 05 2014","18:41:06",25,"Short","No-socialFirst","Zero",4,"Safari",10,"Switch","Novel137",2,"Novel35",0,581,"silentLDmedium",0,0,1,0,(Oct 05 2014 18:41:06),0,TRUE,FALSE,4,FALSE
"A10UD1YXGLR4TI","Oct 05 2014","18:41:06",26,"Short","No-socialFirst","Zero",4,"Safari",10,"Switch","Novel104",0,"Novel35",0,596,"straightahead",-1,0,0,1,(Oct 05 2014 18:41:06),0,TRUE,FALSE,4,FALSE
"A10UD1YXGLR4TI","Oct 05 2014","18:41:06",27,"Short","No-socialFirst","Zero",4,"Safari",11,"Same","Novel3",3,"Novel3",3,1264,"silentRDmedium",2,0,1,0,(Oct 05 2014 18:41:06),0,TRUE,FALSE,4,TRUE
"A10UD1YXGLR4TI","Oct 05 2014","18:41:06",28,"Short","No-socialFirst","Zero",4,"Safari",11,"Same","Novel3",2,"Novel3",3,186,"straightahead",-1,0,0,1,(Oct 05 2014 18:41:06),0,TRUE,FALSE,4,TRUE
"A10UD1YXGLR4TI","Oct 05 2014","18:41:06",29,"Short","No-socialFirst","Zero",4,"Safari",12,"Switch","Novel7",0,"Novel59",3,75,"silentLUmedium",1,0,1,0,(Oct 05 2014 18:41:06),0,TRUE,FALSE,4,FALSE
"A10UD1YXGLR4TI","Oct 05 2014","18:41:06",30,"Short","No-socialFirst","Zero",4,"Safari",12,"Switch","Novel59",0,"Novel59",3,895,"straightahead",-1,0,0,1,(Oct 05 2014 18:41:06),0,TRUE,FALSE,4,TRUE
"A10UD1YXGLR4TI","Oct 05 2014","18:41:06",31,"Short","No-socialFirst","Zero",4,"Safari",13,"Same","Novel98",3,"Novel98",3,680,"silentRDmedium",2,0,1,0,(Oct 05 2014 18:41:06),0,TRUE,FALSE,4,TRUE
"A10UD1YXGLR4TI","Oct 05 2014","18:41:06",32,"Short","No-socialFirst","Zero",4,"Safari",13,"Same","Novel98",2,"Novel98",3,1506,"straightahead",-1,0,0,1,(Oct 05 2014 18:41:06),0,TRUE,FALSE,4,TRUE
"A10UD1YXGLR4TI","Oct 05 2014","18:41:06",33,"Short","No-socialFirst","Zero",4,"Safari",14,"Switch","Novel115",0,"Novel34",1,359,"silentLUmedium",1,0,1,0,(Oct 05 2014 18:41:06),0,TRUE,FALSE,4,FALSE
"A10UD1YXGLR4TI","Oct 05 2014","18:41:06",34,"Short","No-socialFirst","Zero",4,"Safari",14,"Switch","Novel94",2,"Novel34",1,1922,"straightahead",-1,0,0,1,(Oct 05 2014 18:41:06),0,TRUE,FALSE,4,FALSE
"A10UD1YXGLR4TI","Oct 05 2014","18:41:06",35,"Short","No-socialFirst","Zero",4,"Safari",15,"Same","Novel119",3,"Novel119",3,420,"silentRDmedium",2,0,1,0,(Oct 05 2014 18:41:06),0,TRUE,FALSE,4,TRUE
"A10UD1YXGLR4TI","Oct 05 2014","18:41:06",36,"Short","No-socialFirst","Zero",4,"Safari",15,"Same","Novel119",2,"Novel119",3,828,"straightahead",-1,0,0,1,(Oct 05 2014 18:41:06),0,TRUE,FALSE,4,TRUE
"A10XEV4PQKUC2C","Oct 05 2014","18:47:31",1,"Short","SocialFirst","Zero",4,"Chrome",0,"Switch","squirrel",0,"",0,788,"straightahead",-1,1,0,0,(Oct 05 2014 18:47:31),0,TRUE,FALSE,4,FALSE
"A10XEV4PQKUC2C","Oct 05 2014","18:47:31",2,"Short","SocialFirst","Zero",4,"Chrome",0,"Switch","squirrel",0,"",0,644,"straightahead",-1,1,0,0,(Oct 05 2014 18:47:31),0,TRUE,FALSE,4,FALSE
"A10XEV4PQKUC2C","Oct 05 2014","18:47:31",3,"Short","SocialFirst","Zero",4,"Chrome",0,"Switch","tomato",1,"",0,115,"straightahead",-1,1,0,0,(Oct 05 2014 18:47:31),0,TRUE,FALSE,4,FALSE
"A10XEV4PQKUC2C","Oct 05 2014","18:47:31",4,"Short","SocialFirst","Zero",4,"Chrome",0,"Switch","tomato",2,"",0,167,"straightahead",-1,1,0,0,(Oct 05 2014 18:47:31),0,TRUE,FALSE,4,FALSE
"A10XEV4PQKUC2C","Oct 05 2014","18:47:31",5,"Short","SocialFirst","Zero",4,"Chrome",0,"Switch","Novel95",0,"Novel68",3,209,"silentLUshort",1,0,1,0,(Oct 05 2014 18:47:31),0,TRUE,FALSE,4,FALSE
"A10XEV4PQKUC2C","Oct 05 2014","18:47:31",6,"Short","SocialFirst","Zero",4,"Chrome",0,"Switch","Novel12",1,"Novel68",3,3041,"straightahead",-1,0,0,1,(Oct 05 2014 18:47:31),0,TRUE,TRUE,4,FALSE
"A10XEV4PQKUC2C","Oct 05 2014","18:47:31",7,"Short","SocialFirst","Zero",4,"Chrome",1,"Same","Novel41",1,"Novel41",1,291,"silentRUshort",3,0,1,0,(Oct 05 2014 18:47:31),0,TRUE,FALSE,4,TRUE
"A10XEV4PQKUC2C","Oct 05 2014","18:47:31",8,"Short","SocialFirst","Zero",4,"Chrome",1,"Same","Novel41",1,"Novel41",1,90,"straightahead",-1,0,0,1,(Oct 05 2014 18:47:31),0,TRUE,FALSE,4,TRUE
"A10XEV4PQKUC2C","Oct 05 2014","18:47:31",9,"Short","SocialFirst","Zero",4,"Chrome",2,"Switch","Novel83",2,"Novel23",3,647,"silentLDshort",0,0,1,0,(Oct 05 2014 18:47:31),0,TRUE,FALSE,4,FALSE
"A10XEV4PQKUC2C","Oct 05 2014","18:47:31",10,"Short","SocialFirst","Zero",4,"Chrome",2,"Switch","Novel23",2,"Novel23",3,186,"straightahead",-1,0,0,1,(Oct 05 2014 18:47:31),0,TRUE,FALSE,4,TRUE
"A10XEV4PQKUC2C","Oct 05 2014","18:47:31",11,"Short","SocialFirst","Zero",4,"Chrome",3,"Same","Novel17",3,"Novel17",3,378,"silentRDshort",2,0,1,0,(Oct 05 2014 18:47:31),0,TRUE,FALSE,4,TRUE
"A10XEV4PQKUC2C","Oct 05 2014","18:47:31",12,"Short","SocialFirst","Zero",4,"Chrome",3,"Same","Novel17",1,"Novel17",3,765,"straightahead",-1,0,0,1,(Oct 05 2014 18:47:31),0,TRUE,FALSE,4,TRUE
"A10XEV4PQKUC2C","Oct 05 2014","18:47:31",13,"Short","SocialFirst","Zero",4,"Chrome",4,"Switch","Novel82",3,"Novel31",2,1048,"silentRDshort",2,0,1,0,(Oct 05 2014 18:47:31),0,TRUE,FALSE,4,FALSE
"A10XEV4PQKUC2C","Oct 05 2014","18:47:31",14,"Short","SocialFirst","Zero",4,"Chrome",4,"Switch","Novel58",0,"Novel31",2,825,"straightahead",-1,0,0,1,(Oct 05 2014 18:47:31),0,TRUE,FALSE,4,FALSE
"A10XEV4PQKUC2C","Oct 05 2014","18:47:31",15,"Short","SocialFirst","Zero",4,"Chrome",5,"Same","Novel24",0,"Novel24",0,448,"silentLUshort",1,0,1,0,(Oct 05 2014 18:47:31),0,TRUE,FALSE,4,TRUE
"A10XEV4PQKUC2C","Oct 05 2014","18:47:31",16,"Short","SocialFirst","Zero",4,"Chrome",5,"Same","Novel24",3,"Novel24",0,367,"straightahead",-1,0,0,1,(Oct 05 2014 18:47:31),0,TRUE,FALSE,4,TRUE
"A10XEV4PQKUC2C","Oct 05 2014","18:47:31",17,"Short","SocialFirst","Zero",4,"Chrome",6,"Switch","Novel115",2,"Novel52",1,25,"silentLDshort",0,0,1,0,(Oct 05 2014 18:47:31),0,TRUE,FALSE,4,FALSE
"A10XEV4PQKUC2C","Oct 05 2014","18:47:31",18,"Short","SocialFirst","Zero",4,"Chrome",6,"Switch","Novel126",2,"Novel52",1,1739,"straightahead",-1,0,0,1,(Oct 05 2014 18:47:31),0,TRUE,FALSE,4,FALSE
"A10XEV4PQKUC2C","Oct 05 2014","18:47:31",19,"Short","SocialFirst","Zero",4,"Chrome",7,"Same","Novel4",0,"Novel4",0,351,"silentLUshort",1,0,1,0,(Oct 05 2014 18:47:31),0,TRUE,FALSE,4,TRUE
"A10XEV4PQKUC2C","Oct 05 2014","18:47:31",20,"Short","SocialFirst","Zero",4,"Chrome",7,"Same","Novel4",0,"Novel4",0,44,"straightahead",-1,0,0,1,(Oct 05 2014 18:47:31),0,TRUE,FALSE,4,TRUE
"A10XEV4PQKUC2C","Oct 05 2014","18:47:31",21,"Short","SocialFirst","Zero",4,"Chrome",8,"Switch","Novel140",2,"Novel110",1,2126,"straightahead",-1,0,1,0,(Oct 05 2014 18:47:31),0,TRUE,FALSE,4,FALSE
"A10XEV4PQKUC2C","Oct 05 2014","18:47:31",22,"Short","SocialFirst","Zero",4,"Chrome",8,"Switch","Novel39",0,"Novel110",1,4752,"straightahead",-1,0,0,1,(Oct 05 2014 18:47:31),0,TRUE,FALSE,4,FALSE
"A10XEV4PQKUC2C","Oct 05 2014","18:47:31",23,"Short","SocialFirst","Zero",4,"Chrome",9,"Same","Novel38",1,"Novel38",1,640,"straightahead",-1,0,1,0,(Oct 05 2014 18:47:31),0,TRUE,FALSE,4,TRUE
"A10XEV4PQKUC2C","Oct 05 2014","18:47:31",24,"Short","SocialFirst","Zero",4,"Chrome",9,"Same","Novel77",3,"Novel38",1,1379,"straightahead",-1,0,0,1,(Oct 05 2014 18:47:31),0,TRUE,FALSE,4,FALSE
"A10XEV4PQKUC2C","Oct 05 2014","18:47:31",25,"Short","SocialFirst","Zero",4,"Chrome",10,"Switch","Novel33",2,"Novel84",1,2405,"straightahead",-1,0,1,0,(Oct 05 2014 18:47:31),0,TRUE,FALSE,4,FALSE
"A10XEV4PQKUC2C","Oct 05 2014","18:47:31",26,"Short","SocialFirst","Zero",4,"Chrome",10,"Switch","Novel122",3,"Novel84",1,88,"straightahead",-1,0,0,1,(Oct 05 2014 18:47:31),0,TRUE,FALSE,4,FALSE
"A10XEV4PQKUC2C","Oct 05 2014","18:47:31",27,"Short","SocialFirst","Zero",4,"Chrome",11,"Same","Novel139",0,"Novel139",0,2973,"straightahead",-1,0,1,0,(Oct 05 2014 18:47:31),0,TRUE,FALSE,4,TRUE
"A10XEV4PQKUC2C","Oct 05 2014","18:47:31",28,"Short","SocialFirst","Zero",4,"Chrome",11,"Same","Novel139",3,"Novel139",0,2204,"straightahead",-1,0,0,1,(Oct 05 2014 18:47:31),0,TRUE,FALSE,4,TRUE
"A10XEV4PQKUC2C","Oct 05 2014","18:47:31",29,"Short","SocialFirst","Zero",4,"Chrome",12,"Switch","Novel117",0,"Novel106",2,3165,"straightahead",-1,0,1,0,(Oct 05 2014 18:47:31),0,TRUE,FALSE,4,FALSE
"A10XEV4PQKUC2C","Oct 05 2014","18:47:31",30,"Short","SocialFirst","Zero",4,"Chrome",12,"Switch","Novel16",3,"Novel106",2,3139,"straightahead",-1,0,0,1,(Oct 05 2014 18:47:31),0,TRUE,FALSE,4,FALSE
"A10XEV4PQKUC2C","Oct 05 2014","18:47:31",31,"Short","SocialFirst","Zero",4,"Chrome",13,"Same","Novel8",0,"Novel8",0,1783,"straightahead",-1,0,1,0,(Oct 05 2014 18:47:31),0,TRUE,FALSE,4,TRUE
"A10XEV4PQKUC2C","Oct 05 2014","18:47:31",32,"Short","SocialFirst","Zero",4,"Chrome",13,"Same","Novel8",2,"Novel8",0,417,"straightahead",-1,0,0,1,(Oct 05 2014 18:47:31),0,TRUE,FALSE,4,TRUE
"A10XEV4PQKUC2C","Oct 05 2014","18:47:31",33,"Short","SocialFirst","Zero",4,"Chrome",14,"Switch","Novel60",1,"Novel46",0,1281,"straightahead",-1,0,1,0,(Oct 05 2014 18:47:31),0,TRUE,FALSE,4,FALSE
"A10XEV4PQKUC2C","Oct 05 2014","18:47:31",34,"Short","SocialFirst","Zero",4,"Chrome",14,"Switch","Novel91",1,"Novel46",0,631,"straightahead",-1,0,0,1,(Oct 05 2014 18:47:31),0,TRUE,FALSE,4,FALSE
"A10XEV4PQKUC2C","Oct 05 2014","18:47:31",35,"Short","SocialFirst","Zero",4,"Chrome",15,"Same","Novel121",0,"Novel121",0,1573,"straightahead",-1,0,1,0,(Oct 05 2014 18:47:31),0,TRUE,FALSE,4,TRUE
"A10XEV4PQKUC2C","Oct 05 2014","18:47:31",36,"Short","SocialFirst","Zero",4,"Chrome",15,"Same","Novel121",2,"Novel121",0,444,"straightahead",-1,0,0,1,(Oct 05 2014 18:47:31),0,TRUE,FALSE,4,TRUE
"A11Z67QL5DW3UE","Oct 05 2014","18:53:10",1,"Short","No-socialFirst","Zero",4,"Chrome",0,"Switch","squirrel",0,"",0,1840,"straightahead",-1,1,0,0,(Oct 05 2014 18:53:10),0,TRUE,FALSE,4,FALSE
"A11Z67QL5DW3UE","Oct 05 2014","18:53:10",2,"Short","No-socialFirst","Zero",4,"Chrome",0,"Switch","squirrel",0,"",0,1077,"straightahead",-1,1,0,0,(Oct 05 2014 18:53:10),0,TRUE,FALSE,4,FALSE
"A11Z67QL5DW3UE","Oct 05 2014","18:53:10",3,"Short","No-socialFirst","Zero",4,"Chrome",0,"Switch","tomato",1,"",0,241,"straightahead",-1,1,0,0,(Oct 05 2014 18:53:10),0,TRUE,FALSE,4,FALSE
"A11Z67QL5DW3UE","Oct 05 2014","18:53:10",4,"Short","No-socialFirst","Zero",4,"Chrome",0,"Switch","tomato",2,"",0,386,"straightahead",-1,1,0,0,(Oct 05 2014 18:53:10),0,TRUE,FALSE,4,FALSE
"A11Z67QL5DW3UE","Oct 05 2014","18:53:10",5,"Short","No-socialFirst","Zero",4,"Chrome",0,"Switch","Novel64",1,"Novel42",0,2355,"straightahead",-1,0,1,0,(Oct 05 2014 18:53:10),0,TRUE,FALSE,4,FALSE
"A11Z67QL5DW3UE","Oct 05 2014","18:53:10",6,"Short","No-socialFirst","Zero",4,"Chrome",0,"Switch","Novel42",1,"Novel42",0,1619,"straightahead",-1,0,0,1,(Oct 05 2014 18:53:10),0,TRUE,TRUE,4,TRUE
"A11Z67QL5DW3UE","Oct 05 2014","18:53:10",7,"Short","No-socialFirst","Zero",4,"Chrome",1,"Same","Novel97",2,"Novel97",2,1512,"straightahead",-1,0,1,0,(Oct 05 2014 18:53:10),0,TRUE,FALSE,4,TRUE
"A11Z67QL5DW3UE","Oct 05 2014","18:53:10",8,"Short","No-socialFirst","Zero",4,"Chrome",1,"Same","Novel29",3,"Novel97",2,2541,"straightahead",-1,0,0,1,(Oct 05 2014 18:53:10),0,TRUE,FALSE,4,FALSE
"A11Z67QL5DW3UE","Oct 05 2014","18:53:10",9,"Short","No-socialFirst","Zero",4,"Chrome",2,"Switch","Novel119",2,"Novel40",0,2372,"straightahead",-1,0,1,0,(Oct 05 2014 18:53:10),0,TRUE,FALSE,4,FALSE
"A11Z67QL5DW3UE","Oct 05 2014","18:53:10",10,"Short","No-socialFirst","Zero",4,"Chrome",2,"Switch","Novel26",2,"Novel40",0,35,"straightahead",-1,0,0,1,(Oct 05 2014 18:53:10),0,TRUE,FALSE,4,FALSE
"A11Z67QL5DW3UE","Oct 05 2014","18:53:10",11,"Short","No-socialFirst","Zero",4,"Chrome",3,"Same","Novel121",1,"Novel121",1,1030,"straightahead",-1,0,1,0,(Oct 05 2014 18:53:10),0,TRUE,FALSE,4,TRUE
"A11Z67QL5DW3UE","Oct 05 2014","18:53:10",12,"Short","No-socialFirst","Zero",4,"Chrome",3,"Same","Novel121",0,"Novel121",1,726,"straightahead",-1,0,0,1,(Oct 05 2014 18:53:10),0,TRUE,FALSE,4,TRUE
"A11Z67QL5DW3UE","Oct 05 2014","18:53:10",13,"Short","No-socialFirst","Zero",4,"Chrome",4,"Switch","Novel126",1,"Novel129",0,1377,"straightahead",-1,0,1,0,(Oct 05 2014 18:53:10),0,TRUE,FALSE,4,FALSE
"A11Z67QL5DW3UE","Oct 05 2014","18:53:10",14,"Short","No-socialFirst","Zero",4,"Chrome",4,"Switch","Novel31",3,"Novel129",0,655,"straightahead",-1,0,0,1,(Oct 05 2014 18:53:10),0,TRUE,FALSE,4,FALSE
"A11Z67QL5DW3UE","Oct 05 2014","18:53:10",15,"Short","No-socialFirst","Zero",4,"Chrome",5,"Same","Novel21",0,"Novel21",0,2120,"straightahead",-1,0,1,0,(Oct 05 2014 18:53:10),0,TRUE,FALSE,4,TRUE
"A11Z67QL5DW3UE","Oct 05 2014","18:53:10",16,"Short","No-socialFirst","Zero",4,"Chrome",5,"Same","Novel117",2,"Novel21",0,176,"straightahead",-1,0,0,1,(Oct 05 2014 18:53:10),0,TRUE,FALSE,4,FALSE
"A11Z67QL5DW3UE","Oct 05 2014","18:53:10",17,"Short","No-socialFirst","Zero",4,"Chrome",6,"Switch","Novel102",2,"Novel110",0,484,"straightahead",-1,0,1,0,(Oct 05 2014 18:53:10),0,TRUE,FALSE,4,FALSE
"A11Z67QL5DW3UE","Oct 05 2014","18:53:10",18,"Short","No-socialFirst","Zero",4,"Chrome",6,"Switch","Novel110",1,"Novel110",0,391,"straightahead",-1,0,0,1,(Oct 05 2014 18:53:10),0,TRUE,FALSE,4,TRUE
"A11Z67QL5DW3UE","Oct 05 2014","18:53:10",19,"Short","No-socialFirst","Zero",4,"Chrome",7,"Same","Novel38",2,"Novel38",2,16,"straightahead",-1,0,1,0,(Oct 05 2014 18:53:10),0,TRUE,FALSE,4,TRUE
"A11Z67QL5DW3UE","Oct 05 2014","18:53:10",20,"Short","No-socialFirst","Zero",4,"Chrome",7,"Same","Novel35",1,"Novel38",2,1688,"straightahead",-1,0,0,1,(Oct 05 2014 18:53:10),0,TRUE,FALSE,4,FALSE
"A11Z67QL5DW3UE","Oct 05 2014","18:53:10",21,"Short","No-socialFirst","Zero",4,"Chrome",8,"Switch","Novel76",3,"Novel85",1,681,"silentLDmedium",0,0,1,0,(Oct 05 2014 18:53:10),0,TRUE,FALSE,4,FALSE
"A11Z67QL5DW3UE","Oct 05 2014","18:53:10",22,"Short","No-socialFirst","Zero",4,"Chrome",8,"Switch","Novel107",0,"Novel85",1,1112,"straightahead",-1,0,0,1,(Oct 05 2014 18:53:10),0,TRUE,FALSE,4,FALSE
"A11Z67QL5DW3UE","Oct 05 2014","18:53:10",23,"Short","No-socialFirst","Zero",4,"Chrome",9,"Same","Novel48",1,"Novel48",1,4632,"silentRDmedium",2,0,1,0,(Oct 05 2014 18:53:10),0,TRUE,FALSE,4,TRUE
"A11Z67QL5DW3UE","Oct 05 2014","18:53:10",24,"Short","No-socialFirst","Zero",4,"Chrome",9,"Same","Novel16",3,"Novel48",1,809,"straightahead",-1,0,0,1,(Oct 05 2014 18:53:10),0,TRUE,FALSE,4,FALSE
"A11Z67QL5DW3UE","Oct 05 2014","18:53:10",25,"Short","No-socialFirst","Zero",4,"Chrome",10,"Switch","Novel52",0,"Novel41",3,1009,"silentLUmedium",1,0,1,0,(Oct 05 2014 18:53:10),0,TRUE,FALSE,4,FALSE
"A11Z67QL5DW3UE","Oct 05 2014","18:53:10",26,"Short","No-socialFirst","Zero",4,"Chrome",10,"Switch","Novel36",3,"Novel41",3,1550,"straightahead",-1,0,0,1,(Oct 05 2014 18:53:10),0,TRUE,FALSE,4,FALSE
"A11Z67QL5DW3UE","Oct 05 2014","18:53:10",27,"Short","No-socialFirst","Zero",4,"Chrome",11,"Same","Novel54",2,"Novel54",2,467,"silentLDmedium",0,0,1,0,(Oct 05 2014 18:53:10),0,TRUE,FALSE,4,TRUE
"A11Z67QL5DW3UE","Oct 05 2014","18:53:10",28,"Short","No-socialFirst","Zero",4,"Chrome",11,"Same","Novel54",1,"Novel54",2,1208,"straightahead",-1,0,0,1,(Oct 05 2014 18:53:10),0,TRUE,FALSE,4,TRUE
"A11Z67QL5DW3UE","Oct 05 2014","18:53:10",29,"Short","No-socialFirst","Zero",4,"Chrome",12,"Switch","Novel101",1,"Novel115",3,461,"silentRUmedium",3,0,1,0,(Oct 05 2014 18:53:10),0,TRUE,FALSE,4,FALSE
"A11Z67QL5DW3UE","Oct 05 2014","18:53:10",30,"Short","No-socialFirst","Zero",4,"Chrome",12,"Switch","Novel112",0,"Novel115",3,569,"straightahead",-1,0,0,1,(Oct 05 2014 18:53:10),0,TRUE,FALSE,4,FALSE
"A11Z67QL5DW3UE","Oct 05 2014","18:53:10",31,"Short","No-socialFirst","Zero",4,"Chrome",13,"Same","Novel111",2,"Novel111",2,577,"silentLDmedium",0,0,1,0,(Oct 05 2014 18:53:10),0,TRUE,FALSE,4,TRUE
"A11Z67QL5DW3UE","Oct 05 2014","18:53:10",32,"Short","No-socialFirst","Zero",4,"Chrome",13,"Same","Novel4",2,"Novel111",2,1216,"straightahead",-1,0,0,1,(Oct 05 2014 18:53:10),0,TRUE,FALSE,4,FALSE
"A11Z67QL5DW3UE","Oct 05 2014","18:53:10",33,"Short","No-socialFirst","Zero",4,"Chrome",14,"Switch","Novel72",0,"Novel79",1,537,"silentLUmedium",1,0,1,0,(Oct 05 2014 18:53:10),0,TRUE,FALSE,4,FALSE
"A11Z67QL5DW3UE","Oct 05 2014","18:53:10",34,"Short","No-socialFirst","Zero",4,"Chrome",14,"Switch","Novel103",1,"Novel79",1,1765,"straightahead",-1,0,0,1,(Oct 05 2014 18:53:10),0,TRUE,FALSE,4,FALSE
"A11Z67QL5DW3UE","Oct 05 2014","18:53:10",35,"Short","No-socialFirst","Zero",4,"Chrome",15,"Same","Novel22",2,"Novel22",2,392,"silentLDmedium",0,0,1,0,(Oct 05 2014 18:53:10),0,TRUE,FALSE,4,TRUE
"A11Z67QL5DW3UE","Oct 05 2014","18:53:10",36,"Short","No-socialFirst","Zero",4,"Chrome",15,"Same","Novel22",1,"Novel22",2,31,"straightahead",-1,0,0,1,(Oct 05 2014 18:53:10),0,TRUE,FALSE,4,TRUE
"A13U20NTO8DK2Q","Oct 05 2014","18:06:22",1,"Short","No-socialFirst","Zero",4,"Chrome",0,"Same","squirrel",0,"",0,9630,"straightahead",-1,1,0,0,(Oct 05 2014 18:06:22),0,TRUE,FALSE,4,FALSE
"A13U20NTO8DK2Q","Oct 05 2014","18:06:22",2,"Short","No-socialFirst","Zero",4,"Chrome",0,"Same","squirrel",0,"",0,2653,"straightahead",-1,1,0,0,(Oct 05 2014 18:06:22),0,TRUE,FALSE,4,FALSE
"A13U20NTO8DK2Q","Oct 05 2014","18:06:22",3,"Short","No-socialFirst","Zero",4,"Chrome",0,"Same","tomato",1,"",0,575,"straightahead",-1,1,0,0,(Oct 05 2014 18:06:22),0,TRUE,FALSE,4,FALSE
"A13U20NTO8DK2Q","Oct 05 2014","18:06:22",4,"Short","No-socialFirst","Zero",4,"Chrome",0,"Same","tomato",2,"",0,2014,"straightahead",-1,1,0,0,(Oct 05 2014 18:06:22),0,TRUE,FALSE,4,FALSE
"A13U20NTO8DK2Q","Oct 05 2014","18:06:22",5,"Short","No-socialFirst","Zero",4,"Chrome",0,"Same","Novel2",1,"Novel2",1,10454,"straightahead",-1,0,1,0,(Oct 05 2014 18:06:22),0,TRUE,FALSE,4,TRUE
"A13U20NTO8DK2Q","Oct 05 2014","18:06:22",6,"Short","No-socialFirst","Zero",4,"Chrome",0,"Same","Novel2",1,"Novel2",1,23512,"straightahead",-1,0,0,1,(Oct 05 2014 18:06:22),0,TRUE,TRUE,4,TRUE
"A13U20NTO8DK2Q","Oct 05 2014","18:06:22",7,"Short","No-socialFirst","Zero",4,"Chrome",1,"Switch","Novel91",2,"Novel13",3,9205,"straightahead",-1,0,1,0,(Oct 05 2014 18:06:22),0,TRUE,FALSE,4,FALSE
"A13U20NTO8DK2Q","Oct 05 2014","18:06:22",8,"Short","No-socialFirst","Zero",4,"Chrome",1,"Switch","Novel13",3,"Novel13",3,7042,"straightahead",-1,0,0,1,(Oct 05 2014 18:06:22),0,TRUE,FALSE,4,TRUE
"A13U20NTO8DK2Q","Oct 05 2014","18:06:22",9,"Short","No-socialFirst","Zero",4,"Chrome",2,"Same","Novel71",1,"Novel71",1,7815,"straightahead",-1,0,1,0,(Oct 05 2014 18:06:22),0,TRUE,FALSE,4,TRUE
"A13U20NTO8DK2Q","Oct 05 2014","18:06:22",10,"Short","No-socialFirst","Zero",4,"Chrome",2,"Same","Novel71",2,"Novel71",1,5799,"straightahead",-1,0,0,1,(Oct 05 2014 18:06:22),0,TRUE,FALSE,4,TRUE
"A13U20NTO8DK2Q","Oct 05 2014","18:06:22",11,"Short","No-socialFirst","Zero",4,"Chrome",3,"Switch","Novel68",3,"Novel102",2,4939,"straightahead",-1,0,1,0,(Oct 05 2014 18:06:22),0,TRUE,FALSE,4,FALSE
"A13U20NTO8DK2Q","Oct 05 2014","18:06:22",12,"Short","No-socialFirst","Zero",4,"Chrome",3,"Switch","Novel102",2,"Novel102",2,2532,"straightahead",-1,0,0,1,(Oct 05 2014 18:06:22),0,TRUE,FALSE,4,TRUE
"A13U20NTO8DK2Q","Oct 05 2014","18:06:22",13,"Short","No-socialFirst","Zero",4,"Chrome",4,"Same","Novel35",3,"Novel35",3,29637,"straightahead",-1,0,1,0,(Oct 05 2014 18:06:22),0,TRUE,FALSE,4,TRUE
"A13U20NTO8DK2Q","Oct 05 2014","18:06:22",14,"Short","No-socialFirst","Zero",4,"Chrome",4,"Same","Novel5",0,"Novel35",3,6912,"straightahead",-1,0,0,1,(Oct 05 2014 18:06:22),0,TRUE,FALSE,4,FALSE
"A13U20NTO8DK2Q","Oct 05 2014","18:06:22",15,"Short","No-socialFirst","Zero",4,"Chrome",5,"Switch","Novel7",2,"Novel107",0,15675,"straightahead",-1,0,1,0,(Oct 05 2014 18:06:22),0,TRUE,FALSE,4,FALSE
"A13U20NTO8DK2Q","Oct 05 2014","18:06:22",16,"Short","No-socialFirst","Zero",4,"Chrome",5,"Switch","Novel18",0,"Novel107",0,4078,"straightahead",-1,0,0,1,(Oct 05 2014 18:06:22),0,TRUE,FALSE,4,FALSE
"A13U20NTO8DK2Q","Oct 05 2014","18:06:22",17,"Short","No-socialFirst","Zero",4,"Chrome",6,"Same","Novel94",3,"Novel94",3,5151,"straightahead",-1,0,1,0,(Oct 05 2014 18:06:22),0,TRUE,FALSE,4,TRUE
"A13U20NTO8DK2Q","Oct 05 2014","18:06:22",18,"Short","No-socialFirst","Zero",4,"Chrome",6,"Same","Novel113",1,"Novel94",3,2251,"straightahead",-1,0,0,1,(Oct 05 2014 18:06:22),0,TRUE,FALSE,4,FALSE
"A13U20NTO8DK2Q","Oct 05 2014","18:06:22",19,"Short","No-socialFirst","Zero",4,"Chrome",7,"Switch","Novel8",1,"Novel130",0,5798,"straightahead",-1,0,1,0,(Oct 05 2014 18:06:22),0,TRUE,FALSE,4,FALSE
"A13U20NTO8DK2Q","Oct 05 2014","18:06:22",20,"Short","No-socialFirst","Zero",4,"Chrome",7,"Switch","Novel127",3,"Novel130",0,6044,"straightahead",-1,0,0,1,(Oct 05 2014 18:06:22),0,TRUE,FALSE,4,FALSE
"A13U20NTO8DK2Q","Oct 05 2014","18:06:22",21,"Short","No-socialFirst","Zero",4,"Chrome",8,"Same","Novel129",1,"Novel129",1,1956,"silentRUmedium",3,0,1,0,(Oct 05 2014 18:06:22),0,TRUE,FALSE,4,TRUE
"A13U20NTO8DK2Q","Oct 05 2014","18:06:22",22,"Short","No-socialFirst","Zero",4,"Chrome",8,"Same","Novel129",0,"Novel129",1,1957,"straightahead",-1,0,0,1,(Oct 05 2014 18:06:22),0,TRUE,FALSE,4,TRUE
"A13U20NTO8DK2Q","Oct 05 2014","18:06:22",23,"Short","No-socialFirst","Zero",4,"Chrome",9,"Switch","Novel22",3,"Novel25",2,1956,"silentRDmedium",2,0,1,0,(Oct 05 2014 18:06:22),0,TRUE,FALSE,4,FALSE
"A13U20NTO8DK2Q","Oct 05 2014","18:06:22",24,"Short","No-socialFirst","Zero",4,"Chrome",9,"Switch","Novel101",1,"Novel25",2,3739,"straightahead",-1,0,0,1,(Oct 05 2014 18:06:22),0,TRUE,FALSE,4,FALSE
"A13U20NTO8DK2Q","Oct 05 2014","18:06:22",25,"Short","No-socialFirst","Zero",4,"Chrome",10,"Same","Novel55",2,"Novel55",2,1775,"silentLDmedium",0,0,1,0,(Oct 05 2014 18:06:22),0,TRUE,FALSE,4,TRUE
"A13U20NTO8DK2Q","Oct 05 2014","18:06:22",26,"Short","No-socialFirst","Zero",4,"Chrome",10,"Same","Novel55",0,"Novel55",2,3162,"straightahead",-1,0,0,1,(Oct 05 2014 18:06:22),0,TRUE,FALSE,4,TRUE
"A13U20NTO8DK2Q","Oct 05 2014","18:06:22",27,"Short","No-socialFirst","Zero",4,"Chrome",11,"Switch","Novel64",0,"Novel132",3,1629,"silentLUmedium",1,0,1,0,(Oct 05 2014 18:06:22),0,TRUE,FALSE,4,FALSE
"A13U20NTO8DK2Q","Oct 05 2014","18:06:22",28,"Short","No-socialFirst","Zero",4,"Chrome",11,"Switch","Novel132",1,"Novel132",3,1763,"straightahead",-1,0,0,1,(Oct 05 2014 18:06:22),0,TRUE,FALSE,4,TRUE
"A13U20NTO8DK2Q","Oct 05 2014","18:06:22",29,"Short","No-socialFirst","Zero",4,"Chrome",12,"Same","Novel138",2,"Novel138",2,1763,"silentLDmedium",0,0,1,0,(Oct 05 2014 18:06:22),0,TRUE,FALSE,4,TRUE
"A13U20NTO8DK2Q","Oct 05 2014","18:06:22",30,"Short","No-socialFirst","Zero",4,"Chrome",12,"Same","Novel138",0,"Novel138",2,10,"straightahead",-1,0,0,1,(Oct 05 2014 18:06:22),0,TRUE,FALSE,4,TRUE
"A13U20NTO8DK2Q","Oct 05 2014","18:06:22",31,"Short","No-socialFirst","Zero",4,"Chrome",13,"Switch","Novel103",1,"Novel19",0,2548,"silentRUmedium",3,0,1,0,(Oct 05 2014 18:06:22),0,TRUE,FALSE,4,FALSE
"A13U20NTO8DK2Q","Oct 05 2014","18:06:22",32,"Short","No-socialFirst","Zero",4,"Chrome",13,"Switch","Novel133",0,"Novel19",0,1159,"straightahead",-1,0,0,1,(Oct 05 2014 18:06:22),0,TRUE,FALSE,4,FALSE
"A13U20NTO8DK2Q","Oct 05 2014","18:06:22",33,"Short","No-socialFirst","Zero",4,"Chrome",14,"Same","Novel40",2,"Novel40",2,2459,"silentLDmedium",0,0,1,0,(Oct 05 2014 18:06:22),0,TRUE,FALSE,4,TRUE
"A13U20NTO8DK2Q","Oct 05 2014","18:06:22",34,"Short","No-socialFirst","Zero",4,"Chrome",14,"Same","Novel40",0,"Novel40",2,185,"straightahead",-1,0,0,1,(Oct 05 2014 18:06:22),0,TRUE,FALSE,4,TRUE
"A13U20NTO8DK2Q","Oct 05 2014","18:06:22",35,"Short","No-socialFirst","Zero",4,"Chrome",15,"Switch","Novel87",1,"Novel3",3,968,"silentRUmedium",3,0,1,0,(Oct 05 2014 18:06:22),0,TRUE,FALSE,4,FALSE
"A13U20NTO8DK2Q","Oct 05 2014","18:06:22",36,"Short","No-socialFirst","Zero",4,"Chrome",15,"Switch","Novel106",1,"Novel3",3,2691,"straightahead",-1,0,0,1,(Oct 05 2014 18:06:22),0,TRUE,FALSE,4,FALSE
"A15OMDIZ9621E7","Oct 05 2014","18:09:10",1,"Short","SocialFirst","Zero",4,"Chrome",0,"Same","squirrel",0,"",0,572,"straightahead",-1,1,0,0,(Oct 05 2014 18:09:10),0,TRUE,FALSE,4,FALSE
"A15OMDIZ9621E7","Oct 05 2014","18:09:10",2,"Short","SocialFirst","Zero",4,"Chrome",0,"Same","squirrel",0,"",0,528,"straightahead",-1,1,0,0,(Oct 05 2014 18:09:10),0,TRUE,FALSE,4,FALSE
"A15OMDIZ9621E7","Oct 05 2014","18:09:10",3,"Short","SocialFirst","Zero",4,"Chrome",0,"Same","tomato",1,"",0,163,"straightahead",-1,1,0,0,(Oct 05 2014 18:09:10),0,TRUE,FALSE,4,FALSE
"A15OMDIZ9621E7","Oct 05 2014","18:09:10",4,"Short","SocialFirst","Zero",4,"Chrome",0,"Same","tomato",2,"",0,454,"straightahead",-1,1,0,0,(Oct 05 2014 18:09:10),0,TRUE,FALSE,4,FALSE
"A15OMDIZ9621E7","Oct 05 2014","18:09:10",5,"Short","SocialFirst","Zero",4,"Chrome",0,"Same","Novel91",1,"Novel91",1,1252,"silentLDshort",0,0,1,0,(Oct 05 2014 18:09:10),0,TRUE,FALSE,4,TRUE
"A15OMDIZ9621E7","Oct 05 2014","18:09:10",6,"Short","SocialFirst","Zero",4,"Chrome",0,"Same","Novel91",1,"Novel91",1,851,"straightahead",-1,0,0,1,(Oct 05 2014 18:09:10),0,TRUE,TRUE,4,TRUE
"A15OMDIZ9621E7","Oct 05 2014","18:09:10",7,"Short","SocialFirst","Zero",4,"Chrome",1,"Switch","Novel96",3,"Novel71",1,2632,"silentRUshort",3,0,1,0,(Oct 05 2014 18:09:10),0,TRUE,FALSE,4,FALSE
"A15OMDIZ9621E7","Oct 05 2014","18:09:10",8,"Short","SocialFirst","Zero",4,"Chrome",1,"Switch","Novel71",2,"Novel71",1,1303,"straightahead",-1,0,0,1,(Oct 05 2014 18:09:10),0,TRUE,FALSE,4,TRUE
"A15OMDIZ9621E7","Oct 05 2014","18:09:10",9,"Short","SocialFirst","Zero",4,"Chrome",2,"Same","Novel30",0,"Novel30",0,2643,"silentRDshort",2,0,1,0,(Oct 05 2014 18:09:10),0,TRUE,FALSE,4,TRUE
"A15OMDIZ9621E7","Oct 05 2014","18:09:10",10,"Short","SocialFirst","Zero",4,"Chrome",2,"Same","Novel30",0,"Novel30",0,97,"straightahead",-1,0,0,1,(Oct 05 2014 18:09:10),0,TRUE,FALSE,4,TRUE
"A15OMDIZ9621E7","Oct 05 2014","18:09:10",11,"Short","SocialFirst","Zero",4,"Chrome",3,"Switch","Novel93",0,"Novel104",1,1605,"silentRUshort",3,0,1,0,(Oct 05 2014 18:09:10),0,TRUE,FALSE,4,FALSE
"A15OMDIZ9621E7","Oct 05 2014","18:09:10",12,"Short","SocialFirst","Zero",4,"Chrome",3,"Switch","Novel104",1,"Novel104",1,986,"straightahead",-1,0,0,1,(Oct 05 2014 18:09:10),0,TRUE,FALSE,4,TRUE
"A15OMDIZ9621E7","Oct 05 2014","18:09:10",13,"Short","SocialFirst","Zero",4,"Chrome",4,"Same","Novel78",1,"Novel78",1,553,"silentLDshort",0,0,1,0,(Oct 05 2014 18:09:10),0,TRUE,FALSE,4,TRUE
"A15OMDIZ9621E7","Oct 05 2014","18:09:10",14,"Short","SocialFirst","Zero",4,"Chrome",4,"Same","Novel78",0,"Novel78",1,1008,"straightahead",-1,0,0,1,(Oct 05 2014 18:09:10),0,TRUE,FALSE,4,TRUE
"A15OMDIZ9621E7","Oct 05 2014","18:09:10",15,"Short","SocialFirst","Zero",4,"Chrome",5,"Switch","Novel119",0,"Novel66",2,1480,"silentLDshort",0,0,1,0,(Oct 05 2014 18:09:10),0,TRUE,FALSE,4,FALSE
"A15OMDIZ9621E7","Oct 05 2014","18:09:10",16,"Short","SocialFirst","Zero",4,"Chrome",5,"Switch","Novel66",2,"Novel66",2,239,"straightahead",-1,0,0,1,(Oct 05 2014 18:09:10),0,TRUE,FALSE,4,TRUE
"A15OMDIZ9621E7","Oct 05 2014","18:09:10",17,"Short","SocialFirst","Zero",4,"Chrome",6,"Same","Novel138",1,"Novel138",1,501,"silentLUshort",1,0,1,0,(Oct 05 2014 18:09:10),0,TRUE,FALSE,4,TRUE
"A15OMDIZ9621E7","Oct 05 2014","18:09:10",18,"Short","SocialFirst","Zero",4,"Chrome",6,"Same","Novel138",0,"Novel138",1,544,"straightahead",-1,0,0,1,(Oct 05 2014 18:09:10),0,TRUE,FALSE,4,TRUE
"A15OMDIZ9621E7","Oct 05 2014","18:09:10",19,"Short","SocialFirst","Zero",4,"Chrome",7,"Switch","Novel20",2,"Novel72",1,349,"silentLDshort",0,0,1,0,(Oct 05 2014 18:09:10),0,TRUE,FALSE,4,FALSE
"A15OMDIZ9621E7","Oct 05 2014","18:09:10",20,"Short","SocialFirst","Zero",4,"Chrome",7,"Switch","Novel72",0,"Novel72",1,1321,"straightahead",-1,0,0,1,(Oct 05 2014 18:09:10),0,TRUE,FALSE,4,TRUE
"A15OMDIZ9621E7","Oct 05 2014","18:09:10",21,"Short","SocialFirst","Zero",4,"Chrome",8,"Same","Novel95",1,"Novel95",1,1054,"straightahead",-1,0,1,0,(Oct 05 2014 18:09:10),0,TRUE,FALSE,4,TRUE
"A15OMDIZ9621E7","Oct 05 2014","18:09:10",22,"Short","SocialFirst","Zero",4,"Chrome",8,"Same","Novel95",2,"Novel95",1,305,"straightahead",-1,0,0,1,(Oct 05 2014 18:09:10),0,TRUE,FALSE,4,TRUE
"A15OMDIZ9621E7","Oct 05 2014","18:09:10",23,"Short","SocialFirst","Zero",4,"Chrome",9,"Switch","Novel9",0,"Novel132",3,158,"straightahead",-1,0,1,0,(Oct 05 2014 18:09:10),0,TRUE,FALSE,4,FALSE
"A15OMDIZ9621E7","Oct 05 2014","18:09:10",24,"Short","SocialFirst","Zero",4,"Chrome",9,"Switch","Novel132",2,"Novel132",3,76,"straightahead",-1,0,0,1,(Oct 05 2014 18:09:10),0,TRUE,FALSE,4,TRUE
"A15OMDIZ9621E7","Oct 05 2014","18:09:10",25,"Short","SocialFirst","Zero",4,"Chrome",10,"Same","Novel35",1,"Novel35",1,86,"straightahead",-1,0,1,0,(Oct 05 2014 18:09:10),0,TRUE,FALSE,4,TRUE
"A15OMDIZ9621E7","Oct 05 2014","18:09:10",26,"Short","SocialFirst","Zero",4,"Chrome",10,"Same","Novel35",0,"Novel35",1,103,"straightahead",-1,0,0,1,(Oct 05 2014 18:09:10),0,TRUE,FALSE,4,TRUE
"A15OMDIZ9621E7","Oct 05 2014","18:09:10",27,"Short","SocialFirst","Zero",4,"Chrome",11,"Switch","Novel122",0,"Novel51",1,761,"straightahead",-1,0,1,0,(Oct 05 2014 18:09:10),0,TRUE,FALSE,4,FALSE
"A15OMDIZ9621E7","Oct 05 2014","18:09:10",28,"Short","SocialFirst","Zero",4,"Chrome",11,"Switch","Novel7",1,"Novel51",1,351,"straightahead",-1,0,0,1,(Oct 05 2014 18:09:10),0,TRUE,FALSE,4,FALSE
"A15OMDIZ9621E7","Oct 05 2014","18:09:10",29,"Short","SocialFirst","Zero",4,"Chrome",12,"Same","Novel101",0,"Novel101",0,429,"straightahead",-1,0,1,0,(Oct 05 2014 18:09:10),0,TRUE,FALSE,4,TRUE
"A15OMDIZ9621E7","Oct 05 2014","18:09:10",30,"Short","SocialFirst","Zero",4,"Chrome",12,"Same","Novel101",1,"Novel101",0,915,"straightahead",-1,0,0,1,(Oct 05 2014 18:09:10),0,TRUE,FALSE,4,TRUE
"A15OMDIZ9621E7","Oct 05 2014","18:09:10",31,"Short","SocialFirst","Zero",4,"Chrome",13,"Switch","Novel55",2,"Novel57",3,398,"straightahead",-1,0,1,0,(Oct 05 2014 18:09:10),0,TRUE,FALSE,4,FALSE
"A15OMDIZ9621E7","Oct 05 2014","18:09:10",32,"Short","SocialFirst","Zero",4,"Chrome",13,"Switch","Novel57",2,"Novel57",3,167,"straightahead",-1,0,0,1,(Oct 05 2014 18:09:10),0,TRUE,FALSE,4,TRUE
"A15OMDIZ9621E7","Oct 05 2014","18:09:10",33,"Short","SocialFirst","Zero",4,"Chrome",14,"Same","Novel121",1,"Novel121",1,249,"straightahead",-1,0,1,0,(Oct 05 2014 18:09:10),0,TRUE,FALSE,4,TRUE
"A15OMDIZ9621E7","Oct 05 2014","18:09:10",34,"Short","SocialFirst","Zero",4,"Chrome",14,"Same","Novel121",3,"Novel121",1,346,"straightahead",-1,0,0,1,(Oct 05 2014 18:09:10),0,TRUE,FALSE,4,TRUE
"A15OMDIZ9621E7","Oct 05 2014","18:09:10",35,"Short","SocialFirst","Zero",4,"Chrome",15,"Switch","Novel134",2,"Novel54",0,351,"straightahead",-1,0,1,0,(Oct 05 2014 18:09:10),0,TRUE,FALSE,4,FALSE
"A15OMDIZ9621E7","Oct 05 2014","18:09:10",36,"Short","SocialFirst","Zero",4,"Chrome",15,"Switch","Novel40",3,"Novel54",0,251,"straightahead",-1,0,0,1,(Oct 05 2014 18:09:10),0,TRUE,FALSE,4,FALSE
"A15UWGADIRZ04I","Oct 05 2014","18:05:10",1,"Short","SocialFirst","Zero",4,"Chrome",0,"Same","squirrel",0,"",0,1726,"straightahead",-1,1,0,0,(Oct 05 2014 18:05:10),0,TRUE,FALSE,4,FALSE
"A15UWGADIRZ04I","Oct 05 2014","18:05:10",2,"Short","SocialFirst","Zero",4,"Chrome",0,"Same","squirrel",0,"",0,605,"straightahead",-1,1,0,0,(Oct 05 2014 18:05:10),0,TRUE,FALSE,4,FALSE
"A15UWGADIRZ04I","Oct 05 2014","18:05:10",3,"Short","SocialFirst","Zero",4,"Chrome",0,"Same","tomato",1,"",0,402,"straightahead",-1,1,0,0,(Oct 05 2014 18:05:10),0,TRUE,FALSE,4,FALSE
"A15UWGADIRZ04I","Oct 05 2014","18:05:10",4,"Short","SocialFirst","Zero",4,"Chrome",0,"Same","tomato",2,"",0,365,"straightahead",-1,1,0,0,(Oct 05 2014 18:05:10),0,TRUE,FALSE,4,FALSE
"A15UWGADIRZ04I","Oct 05 2014","18:05:10",5,"Short","SocialFirst","Zero",4,"Chrome",0,"Same","Novel95",0,"Novel95",0,3078,"silentLUshort",1,0,1,0,(Oct 05 2014 18:05:10),0,TRUE,FALSE,4,TRUE
"A15UWGADIRZ04I","Oct 05 2014","18:05:10",6,"Short","SocialFirst","Zero",4,"Chrome",0,"Same","Novel95",2,"Novel95",0,1520,"straightahead",-1,0,0,1,(Oct 05 2014 18:05:10),0,TRUE,TRUE,4,TRUE
"A15UWGADIRZ04I","Oct 05 2014","18:05:10",7,"Short","SocialFirst","Zero",4,"Chrome",1,"Switch","Novel50",1,"Novel7",3,1000,"silentRUshort",3,0,1,0,(Oct 05 2014 18:05:10),0,TRUE,FALSE,4,FALSE
"A15UWGADIRZ04I","Oct 05 2014","18:05:10",8,"Short","SocialFirst","Zero",4,"Chrome",1,"Switch","Novel113",1,"Novel7",3,2772,"straightahead",-1,0,0,1,(Oct 05 2014 18:05:10),0,TRUE,FALSE,4,FALSE
"A15UWGADIRZ04I","Oct 05 2014","18:05:10",9,"Short","SocialFirst","Zero",4,"Chrome",2,"Same","Novel117",3,"Novel117",3,1562,"silentRDshort",2,0,1,0,(Oct 05 2014 18:05:10),0,TRUE,FALSE,4,TRUE
"A15UWGADIRZ04I","Oct 05 2014","18:05:10",10,"Short","SocialFirst","Zero",4,"Chrome",2,"Same","Novel117",2,"Novel117",3,100,"straightahead",-1,0,0,1,(Oct 05 2014 18:05:10),0,TRUE,FALSE,4,TRUE
"A15UWGADIRZ04I","Oct 05 2014","18:05:10",11,"Short","SocialFirst","Zero",4,"Chrome",3,"Switch","Novel111",2,"Novel17",3,1646,"silentLDshort",0,0,1,0,(Oct 05 2014 18:05:10),0,TRUE,FALSE,4,FALSE
"A15UWGADIRZ04I","Oct 05 2014","18:05:10",12,"Short","SocialFirst","Zero",4,"Chrome",3,"Switch","Novel48",0,"Novel17",3,662,"straightahead",-1,0,0,1,(Oct 05 2014 18:05:10),0,TRUE,FALSE,4,FALSE
"A15UWGADIRZ04I","Oct 05 2014","18:05:10",13,"Short","SocialFirst","Zero",4,"Chrome",4,"Same","Novel108",3,"Novel108",3,1628,"silentRDshort",2,0,1,0,(Oct 05 2014 18:05:10),0,TRUE,FALSE,4,TRUE
"A15UWGADIRZ04I","Oct 05 2014","18:05:10",14,"Short","SocialFirst","Zero",4,"Chrome",4,"Same","Novel108",3,"Novel108",3,2486,"straightahead",-1,0,0,1,(Oct 05 2014 18:05:10),0,TRUE,FALSE,4,TRUE
"A15UWGADIRZ04I","Oct 05 2014","18:05:10",15,"Short","SocialFirst","Zero",4,"Chrome",5,"Switch","Novel122",0,"Novel97",2,1316,"silentLUshort",1,0,1,0,(Oct 05 2014 18:05:10),0,TRUE,FALSE,4,FALSE
"A15UWGADIRZ04I","Oct 05 2014","18:05:10",16,"Short","SocialFirst","Zero",4,"Chrome",5,"Switch","Novel8",3,"Novel97",2,2830,"straightahead",-1,0,0,1,(Oct 05 2014 18:05:10),0,TRUE,FALSE,4,FALSE
"A15UWGADIRZ04I","Oct 05 2014","18:05:10",17,"Short","SocialFirst","Zero",4,"Chrome",6,"Same","Novel57",2,"Novel57",2,1214,"silentLDshort",0,0,1,0,(Oct 05 2014 18:05:10),0,TRUE,FALSE,4,TRUE
"A15UWGADIRZ04I","Oct 05 2014","18:05:10",18,"Short","SocialFirst","Zero",4,"Chrome",6,"Same","Novel57",2,"Novel57",2,58,"straightahead",-1,0,0,1,(Oct 05 2014 18:05:10),0,TRUE,FALSE,4,TRUE
"A15UWGADIRZ04I","Oct 05 2014","18:05:10",19,"Short","SocialFirst","Zero",4,"Chrome",7,"Switch","Novel109",1,"Novel90",0,963,"silentRUshort",3,0,1,0,(Oct 05 2014 18:05:10),0,TRUE,FALSE,4,FALSE
"A15UWGADIRZ04I","Oct 05 2014","18:05:10",20,"Short","SocialFirst","Zero",4,"Chrome",7,"Switch","Novel30",1,"Novel90",0,3899,"straightahead",-1,0,0,1,(Oct 05 2014 18:05:10),0,TRUE,FALSE,4,FALSE
"A15UWGADIRZ04I","Oct 05 2014","18:05:10",21,"Short","SocialFirst","Zero",4,"Chrome",8,"Same","Novel18",2,"Novel18",2,1505,"straightahead",-1,0,1,0,(Oct 05 2014 18:05:10),0,TRUE,FALSE,4,TRUE
"A15UWGADIRZ04I","Oct 05 2014","18:05:10",22,"Short","SocialFirst","Zero",4,"Chrome",8,"Same","Novel18",0,"Novel18",2,1265,"straightahead",-1,0,0,1,(Oct 05 2014 18:05:10),0,TRUE,FALSE,4,TRUE
"A15UWGADIRZ04I","Oct 05 2014","18:05:10",23,"Short","SocialFirst","Zero",4,"Chrome",9,"Switch","Novel23",1,"Novel105",0,6271,"straightahead",-1,0,1,0,(Oct 05 2014 18:05:10),0,TRUE,FALSE,4,FALSE
"A15UWGADIRZ04I","Oct 05 2014","18:05:10",24,"Short","SocialFirst","Zero",4,"Chrome",9,"Switch","Novel44",2,"Novel105",0,2851,"straightahead",-1,0,0,1,(Oct 05 2014 18:05:10),0,TRUE,FALSE,4,FALSE
"A15UWGADIRZ04I","Oct 05 2014","18:05:10",25,"Short","SocialFirst","Zero",4,"Chrome",10,"Same","Novel110",3,"Novel110",3,3118,"straightahead",-1,0,1,0,(Oct 05 2014 18:05:10),0,TRUE,FALSE,4,TRUE
"A15UWGADIRZ04I","Oct 05 2014","18:05:10",26,"Short","SocialFirst","Zero",4,"Chrome",10,"Same","Novel110",1,"Novel110",3,648,"straightahead",-1,0,0,1,(Oct 05 2014 18:05:10),0,TRUE,FALSE,4,TRUE
"A15UWGADIRZ04I","Oct 05 2014","18:05:10",27,"Short","SocialFirst","Zero",4,"Chrome",11,"Switch","Novel92",1,"Novel129",3,2631,"straightahead",-1,0,1,0,(Oct 05 2014 18:05:10),0,TRUE,FALSE,4,FALSE
"A15UWGADIRZ04I","Oct 05 2014","18:05:10",28,"Short","SocialFirst","Zero",4,"Chrome",11,"Switch","Novel70",1,"Novel129",3,3633,"straightahead",-1,0,0,1,(Oct 05 2014 18:05:10),0,TRUE,FALSE,4,FALSE
"A15UWGADIRZ04I","Oct 05 2014","18:05:10",29,"Short","SocialFirst","Zero",4,"Chrome",12,"Same","Novel64",3,"Novel64",3,2634,"straightahead",-1,0,1,0,(Oct 05 2014 18:05:10),0,TRUE,FALSE,4,TRUE
"A15UWGADIRZ04I","Oct 05 2014","18:05:10",30,"Short","SocialFirst","Zero",4,"Chrome",12,"Same","Novel64",0,"Novel64",3,26,"straightahead",-1,0,0,1,(Oct 05 2014 18:05:10),0,TRUE,FALSE,4,TRUE
"A15UWGADIRZ04I","Oct 05 2014","18:05:10",31,"Short","SocialFirst","Zero",4,"Chrome",13,"Switch","Novel42",1,"Novel10",2,5990,"straightahead",-1,0,1,0,(Oct 05 2014 18:05:10),0,TRUE,FALSE,4,FALSE
"A15UWGADIRZ04I","Oct 05 2014","18:05:10",32,"Short","SocialFirst","Zero",4,"Chrome",13,"Switch","Novel12",1,"Novel10",2,3859,"straightahead",-1,0,0,1,(Oct 05 2014 18:05:10),0,TRUE,FALSE,4,FALSE
"A15UWGADIRZ04I","Oct 05 2014","18:05:10",33,"Short","SocialFirst","Zero",4,"Chrome",14,"Same","Novel6",3,"Novel6",3,3062,"straightahead",-1,0,1,0,(Oct 05 2014 18:05:10),0,TRUE,FALSE,4,TRUE
"A15UWGADIRZ04I","Oct 05 2014","18:05:10",34,"Short","SocialFirst","Zero",4,"Chrome",14,"Same","Novel6",2,"Novel6",3,1069,"straightahead",-1,0,0,1,(Oct 05 2014 18:05:10),0,TRUE,FALSE,4,TRUE
"A15UWGADIRZ04I","Oct 05 2014","18:05:10",35,"Short","SocialFirst","Zero",4,"Chrome",15,"Switch","Novel103",3,"Novel119",2,2179,"straightahead",-1,0,1,0,(Oct 05 2014 18:05:10),0,TRUE,FALSE,4,FALSE
"A15UWGADIRZ04I","Oct 05 2014","18:05:10",36,"Short","SocialFirst","Zero",4,"Chrome",15,"Switch","Novel65",2,"Novel119",2,2101,"straightahead",-1,0,0,1,(Oct 05 2014 18:05:10),0,TRUE,FALSE,4,FALSE
"A166A2M31CW2C7","Oct 05 2014","17:52:03",1,"Short","SocialFirst","Zero",4,"Chrome",0,"Switch","squirrel",0,"",0,1000,"straightahead",-1,1,0,0,(Oct 05 2014 17:52:03),0,TRUE,FALSE,4,FALSE
"A166A2M31CW2C7","Oct 05 2014","17:52:03",2,"Short","SocialFirst","Zero",4,"Chrome",0,"Switch","squirrel",0,"",0,118,"straightahead",-1,1,0,0,(Oct 05 2014 17:52:03),0,TRUE,FALSE,4,FALSE
"A166A2M31CW2C7","Oct 05 2014","17:52:03",3,"Short","SocialFirst","Zero",4,"Chrome",0,"Switch","tomato",1,"",0,609,"straightahead",-1,1,0,0,(Oct 05 2014 17:52:03),0,TRUE,FALSE,4,FALSE
"A166A2M31CW2C7","Oct 05 2014","17:52:03",4,"Short","SocialFirst","Zero",4,"Chrome",0,"Switch","tomato",2,"",0,280,"straightahead",-1,1,0,0,(Oct 05 2014 17:52:03),0,TRUE,FALSE,4,FALSE
"A166A2M31CW2C7","Oct 05 2014","17:52:03",5,"Short","SocialFirst","Zero",4,"Chrome",0,"Switch","Novel122",0,"Novel71",1,190,"silentLUshort",1,0,1,0,(Oct 05 2014 17:52:03),0,TRUE,FALSE,4,FALSE
"A166A2M31CW2C7","Oct 05 2014","17:52:03",6,"Short","SocialFirst","Zero",4,"Chrome",0,"Switch","Novel118",0,"Novel71",1,767,"straightahead",-1,0,0,1,(Oct 05 2014 17:52:03),0,TRUE,TRUE,4,FALSE
"A166A2M31CW2C7","Oct 05 2014","17:52:03",7,"Short","SocialFirst","Zero",4,"Chrome",1,"Same","Novel77",0,"Novel77",0,739,"silentLUshort",1,0,1,0,(Oct 05 2014 17:52:03),0,TRUE,FALSE,4,TRUE
"A166A2M31CW2C7","Oct 05 2014","17:52:03",8,"Short","SocialFirst","Zero",4,"Chrome",1,"Same","Novel77",0,"Novel77",0,393,"straightahead",-1,0,0,1,(Oct 05 2014 17:52:03),0,TRUE,FALSE,4,TRUE
"A166A2M31CW2C7","Oct 05 2014","17:52:03",9,"Short","SocialFirst","Zero",4,"Chrome",2,"Switch","Novel12",1,"Novel95",2,218,"silentRUshort",3,0,1,0,(Oct 05 2014 17:52:03),0,TRUE,FALSE,4,FALSE
"A166A2M31CW2C7","Oct 05 2014","17:52:03",10,"Short","SocialFirst","Zero",4,"Chrome",2,"Switch","Novel56",0,"Novel95",2,2377,"straightahead",-1,0,0,1,(Oct 05 2014 17:52:03),0,TRUE,FALSE,4,FALSE
"A166A2M31CW2C7","Oct 05 2014","17:52:03",11,"Short","SocialFirst","Zero",4,"Chrome",3,"Same","Novel11",1,"Novel11",1,128,"silentRUshort",3,0,1,0,(Oct 05 2014 17:52:03),0,TRUE,FALSE,4,TRUE
"A166A2M31CW2C7","Oct 05 2014","17:52:03",12,"Short","SocialFirst","Zero",4,"Chrome",3,"Same","Novel11",1,"Novel11",1,678,"straightahead",-1,0,0,1,(Oct 05 2014 17:52:03),0,TRUE,FALSE,4,TRUE
"A166A2M31CW2C7","Oct 05 2014","17:52:03",13,"Short","SocialFirst","Zero",4,"Chrome",4,"Switch","Novel46",1,"Novel133",0,233,"silentRUshort",3,0,1,0,(Oct 05 2014 17:52:03),0,TRUE,FALSE,4,FALSE
"A166A2M31CW2C7","Oct 05 2014","17:52:03",14,"Short","SocialFirst","Zero",4,"Chrome",4,"Switch","Novel103",1,"Novel133",0,699,"straightahead",-1,0,0,1,(Oct 05 2014 17:52:03),0,TRUE,FALSE,4,FALSE
"A166A2M31CW2C7","Oct 05 2014","17:52:03",15,"Short","SocialFirst","Zero",4,"Chrome",5,"Same","Novel36",0,"Novel36",0,310,"silentLUshort",1,0,1,0,(Oct 05 2014 17:52:03),0,TRUE,FALSE,4,TRUE
"A166A2M31CW2C7","Oct 05 2014","17:52:03",16,"Short","SocialFirst","Zero",4,"Chrome",5,"Same","Novel36",1,"Novel36",0,199,"straightahead",-1,0,0,1,(Oct 05 2014 17:52:03),0,TRUE,FALSE,4,TRUE
"A166A2M31CW2C7","Oct 05 2014","17:52:03",17,"Short","SocialFirst","Zero",4,"Chrome",6,"Switch","Novel40",3,"Novel8",2,200,"silentRDshort",2,0,1,0,(Oct 05 2014 17:52:03),0,TRUE,FALSE,4,FALSE
"A166A2M31CW2C7","Oct 05 2014","17:52:03",18,"Short","SocialFirst","Zero",4,"Chrome",6,"Switch","Novel5",2,"Novel8",2,773,"straightahead",-1,0,0,1,(Oct 05 2014 17:52:03),0,TRUE,FALSE,4,FALSE
"A166A2M31CW2C7","Oct 05 2014","17:52:03",19,"Short","SocialFirst","Zero",4,"Chrome",7,"Same","Novel102",2,"Novel102",2,27,"silentLDshort",0,0,1,0,(Oct 05 2014 17:52:03),0,TRUE,FALSE,4,TRUE
"A166A2M31CW2C7","Oct 05 2014","17:52:03",20,"Short","SocialFirst","Zero",4,"Chrome",7,"Same","Novel102",3,"Novel102",2,191,"straightahead",-1,0,0,1,(Oct 05 2014 17:52:03),0,TRUE,FALSE,4,TRUE
"A166A2M31CW2C7","Oct 05 2014","17:52:03",21,"Short","SocialFirst","Zero",4,"Chrome",8,"Switch","Novel78",1,"Novel42",2,1031,"straightahead",-1,0,1,0,(Oct 05 2014 17:52:03),0,TRUE,FALSE,4,FALSE
"A166A2M31CW2C7","Oct 05 2014","17:52:03",22,"Short","SocialFirst","Zero",4,"Chrome",8,"Switch","Novel130",2,"Novel42",2,1369,"straightahead",-1,0,0,1,(Oct 05 2014 17:52:03),0,TRUE,FALSE,4,FALSE
"A166A2M31CW2C7","Oct 05 2014","17:52:03",23,"Short","SocialFirst","Zero",4,"Chrome",9,"Same","Novel84",2,"Novel84",2,1013,"straightahead",-1,0,1,0,(Oct 05 2014 17:52:03),0,TRUE,FALSE,4,TRUE
"A166A2M31CW2C7","Oct 05 2014","17:52:03",24,"Short","SocialFirst","Zero",4,"Chrome",9,"Same","Novel84",0,"Novel84",2,516,"straightahead",-1,0,0,1,(Oct 05 2014 17:52:03),0,TRUE,FALSE,4,TRUE
"A166A2M31CW2C7","Oct 05 2014","17:52:03",25,"Short","SocialFirst","Zero",4,"Chrome",10,"Switch","Novel73",3,"Novel67",0,697,"straightahead",-1,0,1,0,(Oct 05 2014 17:52:03),0,TRUE,FALSE,4,FALSE
"A166A2M31CW2C7","Oct 05 2014","17:52:03",26,"Short","SocialFirst","Zero",4,"Chrome",10,"Switch","Novel70",3,"Novel67",0,242,"straightahead",-1,0,0,1,(Oct 05 2014 17:52:03),0,TRUE,FALSE,4,FALSE
"A166A2M31CW2C7","Oct 05 2014","17:52:03",27,"Short","SocialFirst","Zero",4,"Chrome",11,"Same","Novel114",0,"Novel114",0,798,"straightahead",-1,0,1,0,(Oct 05 2014 17:52:03),0,TRUE,FALSE,4,TRUE
"A166A2M31CW2C7","Oct 05 2014","17:52:03",28,"Short","SocialFirst","Zero",4,"Chrome",11,"Same","Novel114",1,"Novel114",0,151,"straightahead",-1,0,0,1,(Oct 05 2014 17:52:03),0,TRUE,FALSE,4,TRUE
"A166A2M31CW2C7","Oct 05 2014","17:52:03",29,"Short","SocialFirst","Zero",4,"Chrome",12,"Switch","Novel53",2,"Novel18",3,1143,"straightahead",-1,0,1,0,(Oct 05 2014 17:52:03),0,TRUE,FALSE,4,FALSE
"A166A2M31CW2C7","Oct 05 2014","17:52:03",30,"Short","SocialFirst","Zero",4,"Chrome",12,"Switch","Novel18",2,"Novel18",3,615,"straightahead",-1,0,0,1,(Oct 05 2014 17:52:03),0,TRUE,FALSE,4,TRUE
"A166A2M31CW2C7","Oct 05 2014","17:52:03",31,"Short","SocialFirst","Zero",4,"Chrome",13,"Same","Novel89",1,"Novel89",1,20,"straightahead",-1,0,1,0,(Oct 05 2014 17:52:03),0,TRUE,FALSE,4,TRUE
"A166A2M31CW2C7","Oct 05 2014","17:52:03",32,"Short","SocialFirst","Zero",4,"Chrome",13,"Same","Novel89",0,"Novel89",1,226,"straightahead",-1,0,0,1,(Oct 05 2014 17:52:03),0,TRUE,FALSE,4,TRUE
"A166A2M31CW2C7","Oct 05 2014","17:52:03",33,"Short","SocialFirst","Zero",4,"Chrome",14,"Switch","Novel104",3,"Novel28",2,405,"straightahead",-1,0,1,0,(Oct 05 2014 17:52:03),0,TRUE,FALSE,4,FALSE
"A166A2M31CW2C7","Oct 05 2014","17:52:03",34,"Short","SocialFirst","Zero",4,"Chrome",14,"Switch","Novel28",3,"Novel28",2,424,"straightahead",-1,0,0,1,(Oct 05 2014 17:52:03),0,TRUE,FALSE,4,TRUE
"A166A2M31CW2C7","Oct 05 2014","17:52:03",35,"Short","SocialFirst","Zero",4,"Chrome",15,"Same","Novel115",1,"Novel115",1,156,"straightahead",-1,0,1,0,(Oct 05 2014 17:52:03),0,TRUE,FALSE,4,TRUE
"A166A2M31CW2C7","Oct 05 2014","17:52:03",36,"Short","SocialFirst","Zero",4,"Chrome",15,"Same","Novel115",3,"Novel115",1,82,"straightahead",-1,0,0,1,(Oct 05 2014 17:52:03),0,TRUE,FALSE,4,TRUE
"A16ZEIAJF8SKKP","Oct 05 2014","19:27:47",1,"Short","SocialFirst","Zero",4,"Firefox",0,"Switch","squirrel",0,"",0,4554,"straightahead",-1,1,0,0,(Oct 05 2014 19:27:47),0,TRUE,FALSE,4,FALSE
"A16ZEIAJF8SKKP","Oct 05 2014","19:27:47",2,"Short","SocialFirst","Zero",4,"Firefox",0,"Switch","squirrel",0,"",0,4205,"straightahead",-1,1,0,0,(Oct 05 2014 19:27:47),0,TRUE,FALSE,4,FALSE
"A16ZEIAJF8SKKP","Oct 05 2014","19:27:47",3,"Short","SocialFirst","Zero",4,"Firefox",0,"Switch","tomato",1,"",0,1748,"straightahead",-1,1,0,0,(Oct 05 2014 19:27:47),0,TRUE,FALSE,4,FALSE
"A16ZEIAJF8SKKP","Oct 05 2014","19:27:47",4,"Short","SocialFirst","Zero",4,"Firefox",0,"Switch","tomato",2,"",0,4499,"straightahead",-1,1,0,0,(Oct 05 2014 19:27:47),0,TRUE,FALSE,4,FALSE
"A16ZEIAJF8SKKP","Oct 05 2014","19:27:47",5,"Short","SocialFirst","Zero",4,"Firefox",0,"Switch","Novel81",2,"Novel49",3,8376,"silentRUshort",3,0,1,0,(Oct 05 2014 19:27:47),0,TRUE,FALSE,4,FALSE
"A16ZEIAJF8SKKP","Oct 05 2014","19:27:47",6,"Short","SocialFirst","Zero",4,"Firefox",0,"Switch","Novel49",3,"Novel49",3,1394,"straightahead",-1,0,0,1,(Oct 05 2014 19:27:47),0,TRUE,TRUE,4,TRUE
"A16ZEIAJF8SKKP","Oct 05 2014","19:27:47",7,"Short","SocialFirst","Zero",4,"Firefox",1,"Same","Novel109",1,"Novel109",1,3628,"silentLUshort",1,0,1,0,(Oct 05 2014 19:27:47),0,TRUE,FALSE,4,TRUE
"A16ZEIAJF8SKKP","Oct 05 2014","19:27:47",8,"Short","SocialFirst","Zero",4,"Firefox",1,"Same","Novel109",3,"Novel109",1,203,"straightahead",-1,0,0,1,(Oct 05 2014 19:27:47),0,TRUE,FALSE,4,TRUE
"A16ZEIAJF8SKKP","Oct 05 2014","19:27:47",9,"Short","SocialFirst","Zero",4,"Firefox",2,"Switch","Novel22",3,"Novel82",0,1521,"silentRUshort",3,0,1,0,(Oct 05 2014 19:27:47),0,TRUE,FALSE,4,FALSE
"A16ZEIAJF8SKKP","Oct 05 2014","19:27:47",10,"Short","SocialFirst","Zero",4,"Firefox",2,"Switch","Novel111",2,"Novel82",0,58,"straightahead",-1,0,0,1,(Oct 05 2014 19:27:47),0,TRUE,FALSE,4,FALSE
"A16ZEIAJF8SKKP","Oct 05 2014","19:27:47",11,"Short","SocialFirst","Zero",4,"Firefox",3,"Same","Novel42",3,"Novel42",3,1168,"silentRDshort",2,0,1,0,(Oct 05 2014 19:27:47),0,TRUE,FALSE,4,TRUE
"A16ZEIAJF8SKKP","Oct 05 2014","19:27:47",12,"Short","SocialFirst","Zero",4,"Firefox",3,"Same","Novel42",1,"Novel42",3,42,"straightahead",-1,0,0,1,(Oct 05 2014 19:27:47),0,TRUE,FALSE,4,TRUE
"A16ZEIAJF8SKKP","Oct 05 2014","19:27:47",13,"Short","SocialFirst","Zero",4,"Firefox",4,"Switch","Novel9",2,"Novel119",0,1307,"silentLDshort",0,0,1,0,(Oct 05 2014 19:27:47),0,TRUE,FALSE,4,FALSE
"A16ZEIAJF8SKKP","Oct 05 2014","19:27:47",14,"Short","SocialFirst","Zero",4,"Firefox",4,"Switch","Novel10",1,"Novel119",0,553,"straightahead",-1,0,0,1,(Oct 05 2014 19:27:47),0,TRUE,FALSE,4,FALSE
"A16ZEIAJF8SKKP","Oct 05 2014","19:27:47",15,"Short","SocialFirst","Zero",4,"Firefox",5,"Same","Novel6",0,"Novel6",0,1005,"silentRUshort",3,0,1,0,(Oct 05 2014 19:27:47),0,TRUE,FALSE,4,TRUE
"A16ZEIAJF8SKKP","Oct 05 2014","19:27:47",16,"Short","SocialFirst","Zero",4,"Firefox",5,"Same","Novel6",0,"Novel6",0,645,"straightahead",-1,0,0,1,(Oct 05 2014 19:27:47),0,TRUE,FALSE,4,TRUE
"A16ZEIAJF8SKKP","Oct 05 2014","19:27:47",17,"Short","SocialFirst","Zero",4,"Firefox",6,"Switch","Novel65",2,"Novel59",0,1881,"silentLDshort",0,0,1,0,(Oct 05 2014 19:27:47),0,TRUE,FALSE,4,FALSE
"A16ZEIAJF8SKKP","Oct 05 2014","19:27:47",18,"Short","SocialFirst","Zero",4,"Firefox",6,"Switch","Novel51",2,"Novel59",0,1360,"straightahead",-1,0,0,1,(Oct 05 2014 19:27:47),0,TRUE,FALSE,4,FALSE
"A16ZEIAJF8SKKP","Oct 05 2014","19:27:47",19,"Short","SocialFirst","Zero",4,"Firefox",7,"Same","Novel86",1,"Novel86",1,160,"silentLUshort",1,0,1,0,(Oct 05 2014 19:27:47),0,TRUE,FALSE,4,TRUE
"A16ZEIAJF8SKKP","Oct 05 2014","19:27:47",20,"Short","SocialFirst","Zero",4,"Firefox",7,"Same","Novel86",1,"Novel86",1,203,"straightahead",-1,0,0,1,(Oct 05 2014 19:27:47),0,TRUE,FALSE,4,TRUE
"A16ZEIAJF8SKKP","Oct 05 2014","19:27:47",21,"Short","SocialFirst","Zero",4,"Firefox",8,"Switch","Novel25",3,"Novel61",2,1555,"straightahead",-1,0,1,0,(Oct 05 2014 19:27:47),0,TRUE,FALSE,4,FALSE
"A16ZEIAJF8SKKP","Oct 05 2014","19:27:47",22,"Short","SocialFirst","Zero",4,"Firefox",8,"Switch","Novel61",1,"Novel61",2,519,"straightahead",-1,0,0,1,(Oct 05 2014 19:27:47),0,TRUE,FALSE,4,TRUE
"A16ZEIAJF8SKKP","Oct 05 2014","19:27:47",23,"Short","SocialFirst","Zero",4,"Firefox",9,"Same","Novel3",0,"Novel3",0,567,"straightahead",-1,0,1,0,(Oct 05 2014 19:27:47),0,TRUE,FALSE,4,TRUE
"A16ZEIAJF8SKKP","Oct 05 2014","19:27:47",24,"Short","SocialFirst","Zero",4,"Firefox",9,"Same","Novel3",1,"Novel3",0,763,"straightahead",-1,0,0,1,(Oct 05 2014 19:27:47),0,TRUE,FALSE,4,TRUE
"A16ZEIAJF8SKKP","Oct 05 2014","19:27:47",25,"Short","SocialFirst","Zero",4,"Firefox",10,"Switch","Novel18",0,"Novel132",3,229,"straightahead",-1,0,1,0,(Oct 05 2014 19:27:47),0,TRUE,FALSE,4,FALSE
"A16ZEIAJF8SKKP","Oct 05 2014","19:27:47",26,"Short","SocialFirst","Zero",4,"Firefox",10,"Switch","Novel122",1,"Novel132",3,319,"straightahead",-1,0,0,1,(Oct 05 2014 19:27:47),0,TRUE,FALSE,4,FALSE
"A16ZEIAJF8SKKP","Oct 05 2014","19:27:47",27,"Short","SocialFirst","Zero",4,"Firefox",11,"Same","Novel95",1,"Novel95",1,209,"straightahead",-1,0,1,0,(Oct 05 2014 19:27:47),0,TRUE,FALSE,4,TRUE
"A16ZEIAJF8SKKP","Oct 05 2014","19:27:47",28,"Short","SocialFirst","Zero",4,"Firefox",11,"Same","Novel95",0,"Novel95",1,149,"straightahead",-1,0,0,1,(Oct 05 2014 19:27:47),0,TRUE,FALSE,4,TRUE
"A16ZEIAJF8SKKP","Oct 05 2014","19:27:47",29,"Short","SocialFirst","Zero",4,"Firefox",12,"Switch","Novel69",3,"Novel128",2,255,"straightahead",-1,0,1,0,(Oct 05 2014 19:27:47),0,TRUE,FALSE,4,FALSE
"A16ZEIAJF8SKKP","Oct 05 2014","19:27:47",30,"Short","SocialFirst","Zero",4,"Firefox",12,"Switch","Novel125",2,"Novel128",2,709,"straightahead",-1,0,0,1,(Oct 05 2014 19:27:47),0,TRUE,FALSE,4,FALSE
"A16ZEIAJF8SKKP","Oct 05 2014","19:27:47",31,"Short","SocialFirst","Zero",4,"Firefox",13,"Same","Novel108",1,"Novel108",1,170,"straightahead",-1,0,1,0,(Oct 05 2014 19:27:47),0,TRUE,FALSE,4,TRUE
"A16ZEIAJF8SKKP","Oct 05 2014","19:27:47",32,"Short","SocialFirst","Zero",4,"Firefox",13,"Same","Novel108",3,"Novel108",1,550,"straightahead",-1,0,0,1,(Oct 05 2014 19:27:47),0,TRUE,FALSE,4,TRUE
"A16ZEIAJF8SKKP","Oct 05 2014","19:27:47",33,"Short","SocialFirst","Zero",4,"Firefox",14,"Switch","Novel87",3,"Novel126",0,1565,"straightahead",-1,0,1,0,(Oct 05 2014 19:27:47),0,TRUE,FALSE,4,FALSE
"A16ZEIAJF8SKKP","Oct 05 2014","19:27:47",34,"Short","SocialFirst","Zero",4,"Firefox",14,"Switch","Novel126",2,"Novel126",0,517,"straightahead",-1,0,0,1,(Oct 05 2014 19:27:47),0,TRUE,FALSE,4,TRUE
"A16ZEIAJF8SKKP","Oct 05 2014","19:27:47",35,"Short","SocialFirst","Zero",4,"Firefox",15,"Same","Novel98",3,"Novel98",3,75,"straightahead",-1,0,1,0,(Oct 05 2014 19:27:47),0,TRUE,FALSE,4,TRUE
"A16ZEIAJF8SKKP","Oct 05 2014","19:27:47",36,"Short","SocialFirst","Zero",4,"Firefox",15,"Same","Novel98",0,"Novel98",3,155,"straightahead",-1,0,0,1,(Oct 05 2014 19:27:47),0,TRUE,FALSE,4,TRUE
"A17F6LB4PVB0Z6","Oct 05 2014","19:10:37",1,"Short","No-socialFirst","Zero",4,"Chrome",0,"Switch","squirrel",0,"",0,530,"straightahead",-1,1,0,0,(Oct 05 2014 19:10:37),0,TRUE,FALSE,4,FALSE
"A17F6LB4PVB0Z6","Oct 05 2014","19:10:37",2,"Short","No-socialFirst","Zero",4,"Chrome",0,"Switch","squirrel",0,"",0,416,"straightahead",-1,1,0,0,(Oct 05 2014 19:10:37),0,TRUE,FALSE,4,FALSE
"A17F6LB4PVB0Z6","Oct 05 2014","19:10:37",3,"Short","No-socialFirst","Zero",4,"Chrome",0,"Switch","tomato",1,"",0,712,"straightahead",-1,1,0,0,(Oct 05 2014 19:10:37),0,TRUE,FALSE,4,FALSE
"A17F6LB4PVB0Z6","Oct 05 2014","19:10:37",4,"Short","No-socialFirst","Zero",4,"Chrome",0,"Switch","tomato",2,"",0,283,"straightahead",-1,1,0,0,(Oct 05 2014 19:10:37),0,TRUE,FALSE,4,FALSE
"A17F6LB4PVB0Z6","Oct 05 2014","19:10:37",5,"Short","No-socialFirst","Zero",4,"Chrome",0,"Switch","Novel100",2,"Novel70",1,5966,"straightahead",-1,0,1,0,(Oct 05 2014 19:10:37),0,TRUE,FALSE,4,FALSE
"A17F6LB4PVB0Z6","Oct 05 2014","19:10:37",6,"Short","No-socialFirst","Zero",4,"Chrome",0,"Switch","Novel70",1,"Novel70",1,1526,"straightahead",-1,0,0,1,(Oct 05 2014 19:10:37),0,TRUE,TRUE,4,TRUE
"A17F6LB4PVB0Z6","Oct 05 2014","19:10:37",7,"Short","No-socialFirst","Zero",4,"Chrome",1,"Same","Novel59",0,"Novel59",0,3931,"straightahead",-1,0,1,0,(Oct 05 2014 19:10:37),0,TRUE,FALSE,4,TRUE
"A17F6LB4PVB0Z6","Oct 05 2014","19:10:37",8,"Short","No-socialFirst","Zero",4,"Chrome",1,"Same","Novel59",0,"Novel59",0,1816,"straightahead",-1,0,0,1,(Oct 05 2014 19:10:37),0,TRUE,FALSE,4,TRUE
"A17F6LB4PVB0Z6","Oct 05 2014","19:10:37",9,"Short","No-socialFirst","Zero",4,"Chrome",2,"Switch","Novel34",3,"Novel137",0,2369,"straightahead",-1,0,1,0,(Oct 05 2014 19:10:37),0,TRUE,FALSE,4,FALSE
"A17F6LB4PVB0Z6","Oct 05 2014","19:10:37",10,"Short","No-socialFirst","Zero",4,"Chrome",2,"Switch","Novel137",1,"Novel137",0,5101,"straightahead",-1,0,0,1,(Oct 05 2014 19:10:37),0,TRUE,FALSE,4,TRUE
"A17F6LB4PVB0Z6","Oct 05 2014","19:10:37",11,"Short","No-socialFirst","Zero",4,"Chrome",3,"Same","Novel58",2,"Novel58",2,2077,"straightahead",-1,0,1,0,(Oct 05 2014 19:10:37),0,TRUE,FALSE,4,TRUE
"A17F6LB4PVB0Z6","Oct 05 2014","19:10:37",12,"Short","No-socialFirst","Zero",4,"Chrome",3,"Same","Novel20",0,"Novel58",2,788,"straightahead",-1,0,0,1,(Oct 05 2014 19:10:37),0,TRUE,FALSE,4,FALSE
"A17F6LB4PVB0Z6","Oct 05 2014","19:10:37",13,"Short","No-socialFirst","Zero",4,"Chrome",4,"Switch","Novel75",2,"Novel94",3,6342,"straightahead",-1,0,1,0,(Oct 05 2014 19:10:37),0,TRUE,FALSE,4,FALSE
"A17F6LB4PVB0Z6","Oct 05 2014","19:10:37",14,"Short","No-socialFirst","Zero",4,"Chrome",4,"Switch","Novel49",0,"Novel94",3,4496,"straightahead",-1,0,0,1,(Oct 05 2014 19:10:37),0,TRUE,FALSE,4,FALSE
"A17F6LB4PVB0Z6","Oct 05 2014","19:10:37",15,"Short","No-socialFirst","Zero",4,"Chrome",5,"Same","Novel12",1,"Novel12",1,2125,"straightahead",-1,0,1,0,(Oct 05 2014 19:10:37),0,TRUE,FALSE,4,TRUE
"A17F6LB4PVB0Z6","Oct 05 2014","19:10:37",16,"Short","No-socialFirst","Zero",4,"Chrome",5,"Same","Novel12",1,"Novel12",1,1561,"straightahead",-1,0,0,1,(Oct 05 2014 19:10:37),0,TRUE,FALSE,4,TRUE
"A17F6LB4PVB0Z6","Oct 05 2014","19:10:37",17,"Short","No-socialFirst","Zero",4,"Chrome",6,"Switch","Novel136",0,"Novel4",1,2228,"straightahead",-1,0,1,0,(Oct 05 2014 19:10:37),0,TRUE,FALSE,4,FALSE
"A17F6LB4PVB0Z6","Oct 05 2014","19:10:37",18,"Short","No-socialFirst","Zero",4,"Chrome",6,"Switch","Novel98",1,"Novel4",1,2234,"straightahead",-1,0,0,1,(Oct 05 2014 19:10:37),0,TRUE,FALSE,4,FALSE
"A17F6LB4PVB0Z6","Oct 05 2014","19:10:37",19,"Short","No-socialFirst","Zero",4,"Chrome",7,"Same","Novel48",3,"Novel48",3,2860,"straightahead",-1,0,1,0,(Oct 05 2014 19:10:37),0,TRUE,FALSE,4,TRUE
"A17F6LB4PVB0Z6","Oct 05 2014","19:10:37",20,"Short","No-socialFirst","Zero",4,"Chrome",7,"Same","Novel48",0,"Novel48",3,155,"straightahead",-1,0,0,1,(Oct 05 2014 19:10:37),0,TRUE,FALSE,4,TRUE
"A17F6LB4PVB0Z6","Oct 05 2014","19:10:37",21,"Short","No-socialFirst","Zero",4,"Chrome",8,"Switch","Novel29",2,"Novel140",3,1206,"silentLDmedium",0,0,1,0,(Oct 05 2014 19:10:37),0,TRUE,FALSE,4,FALSE
"A17F6LB4PVB0Z6","Oct 05 2014","19:10:37",22,"Short","No-socialFirst","Zero",4,"Chrome",8,"Switch","Novel76",3,"Novel140",3,260,"straightahead",-1,0,0,1,(Oct 05 2014 19:10:37),0,TRUE,FALSE,4,FALSE
"A17F6LB4PVB0Z6","Oct 05 2014","19:10:37",23,"Short","No-socialFirst","Zero",4,"Chrome",9,"Same","Novel50",2,"Novel50",2,2612,"silentLDmedium",0,0,1,0,(Oct 05 2014 19:10:37),0,TRUE,FALSE,4,TRUE
"A17F6LB4PVB0Z6","Oct 05 2014","19:10:37",24,"Short","No-socialFirst","Zero",4,"Chrome",9,"Same","Novel50",3,"Novel50",2,129,"straightahead",-1,0,0,1,(Oct 05 2014 19:10:37),0,TRUE,FALSE,4,TRUE
"A17F6LB4PVB0Z6","Oct 05 2014","19:10:37",25,"Short","No-socialFirst","Zero",4,"Chrome",10,"Switch","Novel71",2,"Novel54",1,389,"silentLDmedium",0,0,1,0,(Oct 05 2014 19:10:37),0,TRUE,FALSE,4,FALSE
"A17F6LB4PVB0Z6","Oct 05 2014","19:10:37",26,"Short","No-socialFirst","Zero",4,"Chrome",10,"Switch","Novel45",1,"Novel54",1,554,"straightahead",-1,0,0,1,(Oct 05 2014 19:10:37),0,TRUE,FALSE,4,FALSE
"A17F6LB4PVB0Z6","Oct 05 2014","19:10:37",27,"Short","No-socialFirst","Zero",4,"Chrome",11,"Same","Novel92",1,"Novel92",1,1276,"silentRUmedium",3,0,1,0,(Oct 05 2014 19:10:37),0,TRUE,FALSE,4,TRUE
"A17F6LB4PVB0Z6","Oct 05 2014","19:10:37",28,"Short","No-socialFirst","Zero",4,"Chrome",11,"Same","Novel92",2,"Novel92",1,64,"straightahead",-1,0,0,1,(Oct 05 2014 19:10:37),0,TRUE,FALSE,4,TRUE
"A17F6LB4PVB0Z6","Oct 05 2014","19:10:37",29,"Short","No-socialFirst","Zero",4,"Chrome",12,"Switch","Novel24",3,"Novel21",1,14,"silentRDmedium",2,0,1,0,(Oct 05 2014 19:10:37),0,TRUE,FALSE,4,FALSE
"A17F6LB4PVB0Z6","Oct 05 2014","19:10:37",30,"Short","No-socialFirst","Zero",4,"Chrome",12,"Switch","Novel21",3,"Novel21",1,1403,"straightahead",-1,0,0,1,(Oct 05 2014 19:10:37),0,TRUE,FALSE,4,TRUE
"A17F6LB4PVB0Z6","Oct 05 2014","19:10:37",31,"Short","No-socialFirst","Zero",4,"Chrome",13,"Same","Novel108",2,"Novel108",2,47,"silentLDmedium",0,0,1,0,(Oct 05 2014 19:10:37),0,TRUE,FALSE,4,TRUE
"A17F6LB4PVB0Z6","Oct 05 2014","19:10:37",32,"Short","No-socialFirst","Zero",4,"Chrome",13,"Same","Novel80",3,"Novel108",2,2597,"straightahead",-1,0,0,1,(Oct 05 2014 19:10:37),0,TRUE,FALSE,4,FALSE
"A17F6LB4PVB0Z6","Oct 05 2014","19:10:37",33,"Short","No-socialFirst","Zero",4,"Chrome",14,"Switch","Novel18",1,"Novel51",3,201,"silentRUmedium",3,0,1,0,(Oct 05 2014 19:10:37),0,TRUE,FALSE,4,FALSE
"A17F6LB4PVB0Z6","Oct 05 2014","19:10:37",34,"Short","No-socialFirst","Zero",4,"Chrome",14,"Switch","Novel30",2,"Novel51",3,738,"straightahead",-1,0,0,1,(Oct 05 2014 19:10:37),0,TRUE,FALSE,4,FALSE
"A17F6LB4PVB0Z6","Oct 05 2014","19:10:37",35,"Short","No-socialFirst","Zero",4,"Chrome",15,"Same","Novel96",0,"Novel96",0,931,"silentLDmedium",0,0,1,0,(Oct 05 2014 19:10:37),0,TRUE,FALSE,4,TRUE
"A17F6LB4PVB0Z6","Oct 05 2014","19:10:37",36,"Short","No-socialFirst","Zero",4,"Chrome",15,"Same","Novel96",3,"Novel96",0,106,"straightahead",-1,0,0,1,(Oct 05 2014 19:10:37),0,TRUE,FALSE,4,TRUE
"A18191WLS4VIW0","Oct 05 2014","19:08:48",1,"Short","SocialFirst","Zero",4,"Chrome",0,"Same","squirrel",0,"",0,1605,"straightahead",-1,1,0,0,(Oct 05 2014 19:08:48),0,TRUE,FALSE,4,FALSE
"A18191WLS4VIW0","Oct 05 2014","19:08:48",2,"Short","SocialFirst","Zero",4,"Chrome",0,"Same","squirrel",0,"",0,1767,"straightahead",-1,1,0,0,(Oct 05 2014 19:08:48),0,TRUE,FALSE,4,FALSE
"A18191WLS4VIW0","Oct 05 2014","19:08:48",3,"Short","SocialFirst","Zero",4,"Chrome",0,"Same","tomato",1,"",0,1101,"straightahead",-1,1,0,0,(Oct 05 2014 19:08:48),0,TRUE,FALSE,4,FALSE
"A18191WLS4VIW0","Oct 05 2014","19:08:48",4,"Short","SocialFirst","Zero",4,"Chrome",0,"Same","tomato",2,"",0,251,"straightahead",-1,1,0,0,(Oct 05 2014 19:08:48),0,TRUE,FALSE,4,FALSE
"A18191WLS4VIW0","Oct 05 2014","19:08:48",5,"Short","SocialFirst","Zero",4,"Chrome",0,"Same","Novel36",0,"Novel36",0,5117,"silentLUshort",1,0,1,0,(Oct 05 2014 19:08:48),0,TRUE,FALSE,4,TRUE
"A18191WLS4VIW0","Oct 05 2014","19:08:48",6,"Short","SocialFirst","Zero",4,"Chrome",0,"Same","Novel36",1,"Novel36",0,917,"straightahead",-1,0,0,1,(Oct 05 2014 19:08:48),0,TRUE,TRUE,4,TRUE
"A18191WLS4VIW0","Oct 05 2014","19:08:48",7,"Short","SocialFirst","Zero",4,"Chrome",1,"Switch","Novel27",2,"Novel43",0,429,"silentLDshort",0,0,1,0,(Oct 05 2014 19:08:48),0,TRUE,FALSE,4,FALSE
"A18191WLS4VIW0","Oct 05 2014","19:08:48",8,"Short","SocialFirst","Zero",4,"Chrome",1,"Switch","Novel60",1,"Novel43",0,8741,"straightahead",-1,0,0,1,(Oct 05 2014 19:08:48),0,TRUE,FALSE,4,FALSE
"A18191WLS4VIW0","Oct 05 2014","19:08:48",9,"Short","SocialFirst","Zero",4,"Chrome",2,"Same","Novel78",2,"Novel78",2,1141,"silentLDshort",0,0,1,0,(Oct 05 2014 19:08:48),0,TRUE,FALSE,4,TRUE
"A18191WLS4VIW0","Oct 05 2014","19:08:48",10,"Short","SocialFirst","Zero",4,"Chrome",2,"Same","Novel78",2,"Novel78",2,2554,"straightahead",-1,0,0,1,(Oct 05 2014 19:08:48),0,TRUE,FALSE,4,TRUE
"A18191WLS4VIW0","Oct 05 2014","19:08:48",11,"Short","SocialFirst","Zero",4,"Chrome",3,"Switch","Novel117",0,"Novel86",3,705,"silentLUshort",1,0,1,0,(Oct 05 2014 19:08:48),0,TRUE,FALSE,4,FALSE
"A18191WLS4VIW0","Oct 05 2014","19:08:48",12,"Short","SocialFirst","Zero",4,"Chrome",3,"Switch","Novel13",1,"Novel86",3,5902,"straightahead",-1,0,0,1,(Oct 05 2014 19:08:48),0,TRUE,FALSE,4,FALSE
"A18191WLS4VIW0","Oct 05 2014","19:08:48",13,"Short","SocialFirst","Zero",4,"Chrome",4,"Same","Novel79",0,"Novel79",0,3426,"silentLUshort",1,0,1,0,(Oct 05 2014 19:08:48),0,TRUE,FALSE,4,TRUE
"A18191WLS4VIW0","Oct 05 2014","19:08:48",14,"Short","SocialFirst","Zero",4,"Chrome",4,"Same","Novel79",2,"Novel79",0,51,"straightahead",-1,0,0,1,(Oct 05 2014 19:08:48),0,TRUE,FALSE,4,TRUE
"A18191WLS4VIW0","Oct 05 2014","19:08:48",15,"Short","SocialFirst","Zero",4,"Chrome",5,"Switch","Novel108",2,"Novel18",0,795,"silentLDshort",0,0,1,0,(Oct 05 2014 19:08:48),0,TRUE,FALSE,4,FALSE
"A18191WLS4VIW0","Oct 05 2014","19:08:48",16,"Short","SocialFirst","Zero",4,"Chrome",5,"Switch","Novel18",1,"Novel18",0,600,"straightahead",-1,0,0,1,(Oct 05 2014 19:08:48),0,TRUE,FALSE,4,TRUE
"A18191WLS4VIW0","Oct 05 2014","19:08:48",17,"Short","SocialFirst","Zero",4,"Chrome",6,"Same","Novel37",3,"Novel37",3,855,"silentRDshort",2,0,1,0,(Oct 05 2014 19:08:48),0,TRUE,FALSE,4,TRUE
"A18191WLS4VIW0","Oct 05 2014","19:08:48",18,"Short","SocialFirst","Zero",4,"Chrome",6,"Same","Novel37",3,"Novel37",3,151,"straightahead",-1,0,0,1,(Oct 05 2014 19:08:48),0,TRUE,FALSE,4,TRUE
"A18191WLS4VIW0","Oct 05 2014","19:08:48",19,"Short","SocialFirst","Zero",4,"Chrome",7,"Switch","Novel77",0,"Novel133",1,1061,"silentLUshort",1,0,1,0,(Oct 05 2014 19:08:48),0,TRUE,FALSE,4,FALSE
"A18191WLS4VIW0","Oct 05 2014","19:08:48",20,"Short","SocialFirst","Zero",4,"Chrome",7,"Switch","Novel133",2,"Novel133",1,444,"straightahead",-1,0,0,1,(Oct 05 2014 19:08:48),0,TRUE,FALSE,4,TRUE
"A18191WLS4VIW0","Oct 05 2014","19:08:48",21,"Short","SocialFirst","Zero",4,"Chrome",8,"Same","Novel23",3,"Novel23",3,2101,"straightahead",-1,0,1,0,(Oct 05 2014 19:08:48),0,TRUE,FALSE,4,TRUE
"A18191WLS4VIW0","Oct 05 2014","19:08:48",22,"Short","SocialFirst","Zero",4,"Chrome",8,"Same","Novel23",1,"Novel23",3,146,"straightahead",-1,0,0,1,(Oct 05 2014 19:08:48),0,TRUE,FALSE,4,TRUE
"A18191WLS4VIW0","Oct 05 2014","19:08:48",23,"Short","SocialFirst","Zero",4,"Chrome",9,"Switch","Novel72",1,"Novel30",0,1046,"straightahead",-1,0,1,0,(Oct 05 2014 19:08:48),0,TRUE,FALSE,4,FALSE
"A18191WLS4VIW0","Oct 05 2014","19:08:48",24,"Short","SocialFirst","Zero",4,"Chrome",9,"Switch","Novel30",3,"Novel30",0,528,"straightahead",-1,0,0,1,(Oct 05 2014 19:08:48),0,TRUE,FALSE,4,TRUE
"A18191WLS4VIW0","Oct 05 2014","19:08:48",25,"Short","SocialFirst","Zero",4,"Chrome",10,"Same","Novel2",2,"Novel2",2,934,"straightahead",-1,0,1,0,(Oct 05 2014 19:08:48),0,TRUE,FALSE,4,TRUE
"A18191WLS4VIW0","Oct 05 2014","19:08:48",26,"Short","SocialFirst","Zero",4,"Chrome",10,"Same","Novel2",0,"Novel2",2,457,"straightahead",-1,0,0,1,(Oct 05 2014 19:08:48),0,TRUE,FALSE,4,TRUE
"A18191WLS4VIW0","Oct 05 2014","19:08:48",27,"Short","SocialFirst","Zero",4,"Chrome",11,"Switch","Novel41",3,"Novel9",1,656,"straightahead",-1,0,1,0,(Oct 05 2014 19:08:48),0,TRUE,FALSE,4,FALSE
"A18191WLS4VIW0","Oct 05 2014","19:08:48",28,"Short","SocialFirst","Zero",4,"Chrome",11,"Switch","Novel9",0,"Novel9",1,220,"straightahead",-1,0,0,1,(Oct 05 2014 19:08:48),0,TRUE,FALSE,4,TRUE
"A18191WLS4VIW0","Oct 05 2014","19:08:48",29,"Short","SocialFirst","Zero",4,"Chrome",12,"Same","Novel134",3,"Novel134",3,1843,"straightahead",-1,0,1,0,(Oct 05 2014 19:08:48),0,TRUE,FALSE,4,TRUE
"A18191WLS4VIW0","Oct 05 2014","19:08:48",30,"Short","SocialFirst","Zero",4,"Chrome",12,"Same","Novel134",0,"Novel134",3,211,"straightahead",-1,0,0,1,(Oct 05 2014 19:08:48),0,TRUE,FALSE,4,TRUE
"A18191WLS4VIW0","Oct 05 2014","19:08:48",31,"Short","SocialFirst","Zero",4,"Chrome",13,"Switch","Novel44",1,"Novel11",2,3142,"straightahead",-1,0,1,0,(Oct 05 2014 19:08:48),0,TRUE,FALSE,4,FALSE
"A18191WLS4VIW0","Oct 05 2014","19:08:48",32,"Short","SocialFirst","Zero",4,"Chrome",13,"Switch","Novel59",3,"Novel11",2,533,"straightahead",-1,0,0,1,(Oct 05 2014 19:08:48),0,TRUE,FALSE,4,FALSE
"A18191WLS4VIW0","Oct 05 2014","19:08:48",33,"Short","SocialFirst","Zero",4,"Chrome",14,"Same","Novel17",2,"Novel17",2,2263,"straightahead",-1,0,1,0,(Oct 05 2014 19:08:48),0,TRUE,FALSE,4,TRUE
"A18191WLS4VIW0","Oct 05 2014","19:08:48",34,"Short","SocialFirst","Zero",4,"Chrome",14,"Same","Novel17",0,"Novel17",2,655,"straightahead",-1,0,0,1,(Oct 05 2014 19:08:48),0,TRUE,FALSE,4,TRUE
"A18191WLS4VIW0","Oct 05 2014","19:08:48",35,"Short","SocialFirst","Zero",4,"Chrome",15,"Switch","Novel74",1,"Novel135",0,1581,"straightahead",-1,0,1,0,(Oct 05 2014 19:08:48),0,TRUE,FALSE,4,FALSE
"A18191WLS4VIW0","Oct 05 2014","19:08:48",36,"Short","SocialFirst","Zero",4,"Chrome",15,"Switch","Novel66",3,"Novel135",0,826,"straightahead",-1,0,0,1,(Oct 05 2014 19:08:48),0,TRUE,FALSE,4,FALSE
"A182CHO6N044YK","Oct 05 2014","18:42:41",1,"Short","SocialFirst","Zero",4,"Firefox",0,"Same","squirrel",0,"",0,104,"straightahead",-1,1,0,0,(Oct 05 2014 18:42:41),0,TRUE,FALSE,4,FALSE
"A182CHO6N044YK","Oct 05 2014","18:42:41",2,"Short","SocialFirst","Zero",4,"Firefox",0,"Same","squirrel",0,"",0,612,"straightahead",-1,1,0,0,(Oct 05 2014 18:42:41),0,TRUE,FALSE,4,FALSE
"A182CHO6N044YK","Oct 05 2014","18:42:41",3,"Short","SocialFirst","Zero",4,"Firefox",0,"Same","tomato",1,"",0,1818,"straightahead",-1,1,0,0,(Oct 05 2014 18:42:41),0,TRUE,FALSE,4,FALSE
"A182CHO6N044YK","Oct 05 2014","18:42:41",4,"Short","SocialFirst","Zero",4,"Firefox",0,"Same","tomato",2,"",0,326,"straightahead",-1,1,0,0,(Oct 05 2014 18:42:41),0,TRUE,FALSE,4,FALSE
"A182CHO6N044YK","Oct 05 2014","18:42:41",5,"Short","SocialFirst","Zero",4,"Firefox",0,"Same","Novel4",2,"Novel4",2,1376,"silentLUshort",1,0,1,0,(Oct 05 2014 18:42:41),0,TRUE,FALSE,4,TRUE
"A182CHO6N044YK","Oct 05 2014","18:42:41",6,"Short","SocialFirst","Zero",4,"Firefox",0,"Same","Novel74",1,"Novel4",2,261,"straightahead",-1,0,0,1,(Oct 05 2014 18:42:41),0,TRUE,TRUE,4,FALSE
"A182CHO6N044YK","Oct 05 2014","18:42:41",7,"Short","SocialFirst","Zero",4,"Firefox",1,"Switch","Novel31",2,"Novel125",1,11,"silentRDshort",2,0,1,0,(Oct 05 2014 18:42:41),0,TRUE,FALSE,4,FALSE
"A182CHO6N044YK","Oct 05 2014","18:42:41",8,"Short","SocialFirst","Zero",4,"Firefox",1,"Switch","Novel125",1,"Novel125",1,141,"straightahead",-1,0,0,1,(Oct 05 2014 18:42:41),0,TRUE,FALSE,4,TRUE
"A182CHO6N044YK","Oct 05 2014","18:42:41",9,"Short","SocialFirst","Zero",4,"Firefox",2,"Same","Novel84",0,"Novel84",0,77,"silentLUshort",1,0,1,0,(Oct 05 2014 18:42:41),0,TRUE,FALSE,4,TRUE
"A182CHO6N044YK","Oct 05 2014","18:42:41",10,"Short","SocialFirst","Zero",4,"Firefox",2,"Same","Novel84",2,"Novel84",0,687,"straightahead",-1,0,0,1,(Oct 05 2014 18:42:41),0,TRUE,FALSE,4,TRUE
"A182CHO6N044YK","Oct 05 2014","18:42:41",11,"Short","SocialFirst","Zero",4,"Firefox",3,"Switch","Novel25",3,"Novel51",0,173,"silentRDshort",2,0,1,0,(Oct 05 2014 18:42:41),0,TRUE,FALSE,4,FALSE
"A182CHO6N044YK","Oct 05 2014","18:42:41",12,"Short","SocialFirst","Zero",4,"Firefox",3,"Switch","Novel51",1,"Novel51",0,345,"straightahead",-1,0,0,1,(Oct 05 2014 18:42:41),0,TRUE,FALSE,4,TRUE
"A182CHO6N044YK","Oct 05 2014","18:42:41",13,"Short","SocialFirst","Zero",4,"Firefox",4,"Same","Novel78",2,"Novel78",2,142,"silentLUshort",1,0,1,0,(Oct 05 2014 18:42:41),0,TRUE,FALSE,4,TRUE
"A182CHO6N044YK","Oct 05 2014","18:42:41",14,"Short","SocialFirst","Zero",4,"Firefox",4,"Same","Novel78",2,"Novel78",2,1026,"straightahead",-1,0,0,1,(Oct 05 2014 18:42:41),0,TRUE,FALSE,4,TRUE
"A182CHO6N044YK","Oct 05 2014","18:42:41",15,"Short","SocialFirst","Zero",4,"Firefox",5,"Switch","Novel21",3,"Novel68",0,1133,"silentRUshort",3,0,1,0,(Oct 05 2014 18:42:41),0,TRUE,FALSE,4,FALSE
"A182CHO6N044YK","Oct 05 2014","18:42:41",16,"Short","SocialFirst","Zero",4,"Firefox",5,"Switch","Novel61",1,"Novel68",0,804,"straightahead",-1,0,0,1,(Oct 05 2014 18:42:41),0,TRUE,FALSE,4,FALSE
"A182CHO6N044YK","Oct 05 2014","18:42:41",17,"Short","SocialFirst","Zero",4,"Firefox",6,"Same","Novel33",0,"Novel33",0,77,"silentRUshort",3,0,1,0,(Oct 05 2014 18:42:41),0,TRUE,FALSE,4,TRUE
"A182CHO6N044YK","Oct 05 2014","18:42:41",18,"Short","SocialFirst","Zero",4,"Firefox",6,"Same","Novel33",0,"Novel33",0,874,"straightahead",-1,0,0,1,(Oct 05 2014 18:42:41),0,TRUE,FALSE,4,TRUE
"A182CHO6N044YK","Oct 05 2014","18:42:41",19,"Short","SocialFirst","Zero",4,"Firefox",7,"Switch","Novel73",1,"Novel55",2,619,"silentLDshort",0,0,1,0,(Oct 05 2014 18:42:41),0,TRUE,FALSE,4,FALSE
"A182CHO6N044YK","Oct 05 2014","18:42:41",20,"Short","SocialFirst","Zero",4,"Firefox",7,"Switch","Novel130",2,"Novel55",2,101,"straightahead",-1,0,0,1,(Oct 05 2014 18:42:41),0,TRUE,FALSE,4,FALSE
"A182CHO6N044YK","Oct 05 2014","18:42:41",21,"Short","SocialFirst","Zero",4,"Firefox",8,"Same","Novel27",2,"Novel27",2,13,"straightahead",-1,0,1,0,(Oct 05 2014 18:42:41),0,TRUE,FALSE,4,TRUE
"A182CHO6N044YK","Oct 05 2014","18:42:41",22,"Short","SocialFirst","Zero",4,"Firefox",8,"Same","Novel27",3,"Novel27",2,166,"straightahead",-1,0,0,1,(Oct 05 2014 18:42:41),0,TRUE,FALSE,4,TRUE
"A182CHO6N044YK","Oct 05 2014","18:42:41",23,"Short","SocialFirst","Zero",4,"Firefox",9,"Switch","Novel122",0,"Novel89",3,560,"straightahead",-1,0,1,0,(Oct 05 2014 18:42:41),0,TRUE,FALSE,4,FALSE
"A182CHO6N044YK","Oct 05 2014","18:42:41",24,"Short","SocialFirst","Zero",4,"Firefox",9,"Switch","Novel70",3,"Novel89",3,238,"straightahead",-1,0,0,1,(Oct 05 2014 18:42:41),0,TRUE,FALSE,4,FALSE
"A182CHO6N044YK","Oct 05 2014","18:42:41",25,"Short","SocialFirst","Zero",4,"Firefox",10,"Same","Novel16",3,"Novel16",3,205,"straightahead",-1,0,1,0,(Oct 05 2014 18:42:41),0,TRUE,FALSE,4,TRUE
"A182CHO6N044YK","Oct 05 2014","18:42:41",26,"Short","SocialFirst","Zero",4,"Firefox",10,"Same","Novel16",0,"Novel16",3,188,"straightahead",-1,0,0,1,(Oct 05 2014 18:42:41),0,TRUE,FALSE,4,TRUE
"A182CHO6N044YK","Oct 05 2014","18:42:41",27,"Short","SocialFirst","Zero",4,"Firefox",11,"Switch","Novel121",1,"Novel18",3,167,"straightahead",-1,0,1,0,(Oct 05 2014 18:42:41),0,TRUE,FALSE,4,FALSE
"A182CHO6N044YK","Oct 05 2014","18:42:41",28,"Short","SocialFirst","Zero",4,"Firefox",11,"Switch","Novel86",0,"Novel18",3,238,"straightahead",-1,0,0,1,(Oct 05 2014 18:42:41),0,TRUE,FALSE,4,FALSE
"A182CHO6N044YK","Oct 05 2014","18:42:41",29,"Short","SocialFirst","Zero",4,"Firefox",12,"Same","Novel11",2,"Novel11",2,294,"straightahead",-1,0,1,0,(Oct 05 2014 18:42:41),0,TRUE,FALSE,4,TRUE
"A182CHO6N044YK","Oct 05 2014","18:42:41",30,"Short","SocialFirst","Zero",4,"Firefox",12,"Same","Novel102",3,"Novel11",2,1111,"straightahead",-1,0,0,1,(Oct 05 2014 18:42:41),0,TRUE,FALSE,4,FALSE
"A182CHO6N044YK","Oct 05 2014","18:42:41",31,"Short","SocialFirst","Zero",4,"Firefox",13,"Switch","Novel117",3,"Novel36",1,158,"straightahead",-1,0,1,0,(Oct 05 2014 18:42:41),0,TRUE,FALSE,4,FALSE
"A182CHO6N044YK","Oct 05 2014","18:42:41",32,"Short","SocialFirst","Zero",4,"Firefox",13,"Switch","Novel24",1,"Novel36",1,933,"straightahead",-1,0,0,1,(Oct 05 2014 18:42:41),0,TRUE,FALSE,4,FALSE
"A182CHO6N044YK","Oct 05 2014","18:42:41",33,"Short","SocialFirst","Zero",4,"Firefox",14,"Same","Novel109",2,"Novel109",2,567,"straightahead",-1,0,1,0,(Oct 05 2014 18:42:41),0,TRUE,FALSE,4,TRUE
"A182CHO6N044YK","Oct 05 2014","18:42:41",34,"Short","SocialFirst","Zero",4,"Firefox",14,"Same","Novel109",1,"Novel109",2,147,"straightahead",-1,0,0,1,(Oct 05 2014 18:42:41),0,TRUE,FALSE,4,TRUE
"A182CHO6N044YK","Oct 05 2014","18:42:41",35,"Short","SocialFirst","Zero",4,"Firefox",15,"Switch","Novel116",0,"Novel66",1,28,"straightahead",-1,0,1,0,(Oct 05 2014 18:42:41),0,TRUE,FALSE,4,FALSE
"A182CHO6N044YK","Oct 05 2014","18:42:41",36,"Short","SocialFirst","Zero",4,"Firefox",15,"Switch","Novel128",3,"Novel66",1,973,"straightahead",-1,0,0,1,(Oct 05 2014 18:42:41),0,TRUE,FALSE,4,FALSE
"A18SXC3JEN1O0U","Oct 05 2014","18:17:20",1,"Short","No-socialFirst","Zero",4,"Chrome",0,"Same","squirrel",0,"",0,511,"straightahead",-1,1,0,0,(Oct 05 2014 18:17:20),0,TRUE,FALSE,4,FALSE
"A18SXC3JEN1O0U","Oct 05 2014","18:17:20",2,"Short","No-socialFirst","Zero",4,"Chrome",0,"Same","squirrel",0,"",0,353,"straightahead",-1,1,0,0,(Oct 05 2014 18:17:20),0,TRUE,FALSE,4,FALSE
"A18SXC3JEN1O0U","Oct 05 2014","18:17:20",3,"Short","No-socialFirst","Zero",4,"Chrome",0,"Same","tomato",1,"",0,674,"straightahead",-1,1,0,0,(Oct 05 2014 18:17:20),0,TRUE,FALSE,4,FALSE
"A18SXC3JEN1O0U","Oct 05 2014","18:17:20",4,"Short","No-socialFirst","Zero",4,"Chrome",0,"Same","tomato",2,"",0,749,"straightahead",-1,1,0,0,(Oct 05 2014 18:17:20),0,TRUE,FALSE,4,FALSE
"A18SXC3JEN1O0U","Oct 05 2014","18:17:20",5,"Short","No-socialFirst","Zero",4,"Chrome",0,"Same","Novel5",0,"Novel5",0,2490,"straightahead",-1,0,1,0,(Oct 05 2014 18:17:20),0,TRUE,FALSE,4,TRUE
"A18SXC3JEN1O0U","Oct 05 2014","18:17:20",6,"Short","No-socialFirst","Zero",4,"Chrome",0,"Same","Novel5",2,"Novel5",0,168,"straightahead",-1,0,0,1,(Oct 05 2014 18:17:20),0,TRUE,TRUE,4,TRUE
"A18SXC3JEN1O0U","Oct 05 2014","18:17:20",7,"Short","No-socialFirst","Zero",4,"Chrome",1,"Switch","Novel20",0,"Novel65",3,1906,"straightahead",-1,0,1,0,(Oct 05 2014 18:17:20),0,TRUE,FALSE,4,FALSE
"A18SXC3JEN1O0U","Oct 05 2014","18:17:20",8,"Short","No-socialFirst","Zero",4,"Chrome",1,"Switch","Novel48",3,"Novel65",3,5141,"straightahead",-1,0,0,1,(Oct 05 2014 18:17:20),0,TRUE,FALSE,4,FALSE
"A18SXC3JEN1O0U","Oct 05 2014","18:17:20",9,"Short","No-socialFirst","Zero",4,"Chrome",2,"Same","Novel52",0,"Novel52",0,1816,"straightahead",-1,0,1,0,(Oct 05 2014 18:17:20),0,TRUE,FALSE,4,TRUE
"A18SXC3JEN1O0U","Oct 05 2014","18:17:20",10,"Short","No-socialFirst","Zero",4,"Chrome",2,"Same","Novel52",0,"Novel52",0,251,"straightahead",-1,0,0,1,(Oct 05 2014 18:17:20),0,TRUE,FALSE,4,TRUE
"A18SXC3JEN1O0U","Oct 05 2014","18:17:20",11,"Short","No-socialFirst","Zero",4,"Chrome",3,"Switch","Novel61",1,"Novel34",0,2337,"straightahead",-1,0,1,0,(Oct 05 2014 18:17:20),0,TRUE,FALSE,4,FALSE
"A18SXC3JEN1O0U","Oct 05 2014","18:17:20",12,"Short","No-socialFirst","Zero",4,"Chrome",3,"Switch","Novel136",1,"Novel34",0,3679,"straightahead",-1,0,0,1,(Oct 05 2014 18:17:20),0,TRUE,FALSE,4,FALSE
"A18SXC3JEN1O0U","Oct 05 2014","18:17:20",13,"Short","No-socialFirst","Zero",4,"Chrome",4,"Same","Novel73",1,"Novel73",1,1207,"straightahead",-1,0,1,0,(Oct 05 2014 18:17:20),0,TRUE,FALSE,4,TRUE
"A18SXC3JEN1O0U","Oct 05 2014","18:17:20",14,"Short","No-socialFirst","Zero",4,"Chrome",4,"Same","Novel73",1,"Novel73",1,225,"straightahead",-1,0,0,1,(Oct 05 2014 18:17:20),0,TRUE,FALSE,4,TRUE
"A18SXC3JEN1O0U","Oct 05 2014","18:17:20",15,"Short","No-socialFirst","Zero",4,"Chrome",5,"Switch","Novel123",1,"Novel138",0,2839,"straightahead",-1,0,1,0,(Oct 05 2014 18:17:20),0,TRUE,FALSE,4,FALSE
"A18SXC3JEN1O0U","Oct 05 2014","18:17:20",16,"Short","No-socialFirst","Zero",4,"Chrome",5,"Switch","Novel81",2,"Novel138",0,3307,"straightahead",-1,0,0,1,(Oct 05 2014 18:17:20),0,TRUE,FALSE,4,FALSE
"A18SXC3JEN1O0U","Oct 05 2014","18:17:20",17,"Short","No-socialFirst","Zero",4,"Chrome",6,"Same","Novel25",1,"Novel25",1,1238,"straightahead",-1,0,1,0,(Oct 05 2014 18:17:20),0,TRUE,FALSE,4,TRUE
"A18SXC3JEN1O0U","Oct 05 2014","18:17:20",18,"Short","No-socialFirst","Zero",4,"Chrome",6,"Same","Novel25",3,"Novel25",1,72,"straightahead",-1,0,0,1,(Oct 05 2014 18:17:20),0,TRUE,FALSE,4,TRUE
"A18SXC3JEN1O0U","Oct 05 2014","18:17:20",19,"Short","No-socialFirst","Zero",4,"Chrome",7,"Switch","Novel7",1,"Novel91",0,745,"straightahead",-1,0,1,0,(Oct 05 2014 18:17:20),0,TRUE,FALSE,4,FALSE
"A18SXC3JEN1O0U","Oct 05 2014","18:17:20",20,"Short","No-socialFirst","Zero",4,"Chrome",7,"Switch","Novel91",0,"Novel91",0,1424,"straightahead",-1,0,0,1,(Oct 05 2014 18:17:20),0,TRUE,FALSE,4,TRUE
"A18SXC3JEN1O0U","Oct 05 2014","18:17:20",21,"Short","No-socialFirst","Zero",4,"Chrome",8,"Same","Novel95",0,"Novel95",0,538,"silentRUmedium",3,0,1,0,(Oct 05 2014 18:17:20),0,TRUE,FALSE,4,TRUE
"A18SXC3JEN1O0U","Oct 05 2014","18:17:20",22,"Short","No-socialFirst","Zero",4,"Chrome",8,"Same","Novel95",2,"Novel95",0,1071,"straightahead",-1,0,0,1,(Oct 05 2014 18:17:20),0,TRUE,FALSE,4,TRUE
"A18SXC3JEN1O0U","Oct 05 2014","18:17:20",23,"Short","No-socialFirst","Zero",4,"Chrome",9,"Switch","Novel86",0,"Novel118",1,586,"silentRDmedium",2,0,1,0,(Oct 05 2014 18:17:20),0,TRUE,FALSE,4,FALSE
"A18SXC3JEN1O0U","Oct 05 2014","18:17:20",24,"Short","No-socialFirst","Zero",4,"Chrome",9,"Switch","Novel118",3,"Novel118",1,121,"straightahead",-1,0,0,1,(Oct 05 2014 18:17:20),0,TRUE,FALSE,4,TRUE
"A18SXC3JEN1O0U","Oct 05 2014","18:17:20",25,"Short","No-socialFirst","Zero",4,"Chrome",10,"Same","Novel75",0,"Novel75",0,1126,"silentRUmedium",3,0,1,0,(Oct 05 2014 18:17:20),0,TRUE,FALSE,4,TRUE
"A18SXC3JEN1O0U","Oct 05 2014","18:17:20",26,"Short","No-socialFirst","Zero",4,"Chrome",10,"Same","Novel75",1,"Novel75",0,156,"straightahead",-1,0,0,1,(Oct 05 2014 18:17:20),0,TRUE,FALSE,4,TRUE
"A18SXC3JEN1O0U","Oct 05 2014","18:17:20",27,"Short","No-socialFirst","Zero",4,"Chrome",11,"Switch","Novel94",2,"Novel88",1,1462,"silentLUmedium",1,0,1,0,(Oct 05 2014 18:17:20),0,TRUE,FALSE,4,FALSE
"A18SXC3JEN1O0U","Oct 05 2014","18:17:20",28,"Short","No-socialFirst","Zero",4,"Chrome",11,"Switch","Novel88",3,"Novel88",1,1395,"straightahead",-1,0,0,1,(Oct 05 2014 18:17:20),0,TRUE,FALSE,4,TRUE
"A18SXC3JEN1O0U","Oct 05 2014","18:17:20",29,"Short","No-socialFirst","Zero",4,"Chrome",12,"Same","Novel17",1,"Novel17",1,3204,"silentRDmedium",2,0,1,0,(Oct 05 2014 18:17:20),0,TRUE,FALSE,4,TRUE
"A18SXC3JEN1O0U","Oct 05 2014","18:17:20",30,"Short","No-socialFirst","Zero",4,"Chrome",12,"Same","Novel17",3,"Novel17",1,3936,"straightahead",-1,0,0,1,(Oct 05 2014 18:17:20),0,TRUE,FALSE,4,TRUE
"A18SXC3JEN1O0U","Oct 05 2014","18:17:20",31,"Short","No-socialFirst","Zero",4,"Chrome",13,"Switch","Novel30",0,"Novel120",3,1511,"silentRUmedium",3,0,1,0,(Oct 05 2014 18:17:20),0,TRUE,FALSE,4,FALSE
"A18SXC3JEN1O0U","Oct 05 2014","18:17:20",32,"Short","No-socialFirst","Zero",4,"Chrome",13,"Switch","Novel93",2,"Novel120",3,2016,"straightahead",-1,0,0,1,(Oct 05 2014 18:17:20),0,TRUE,FALSE,4,FALSE
"A18SXC3JEN1O0U","Oct 05 2014","18:17:20",33,"Short","No-socialFirst","Zero",4,"Chrome",14,"Same","Novel50",2,"Novel50",2,1785,"silentRUmedium",3,0,1,0,(Oct 05 2014 18:17:20),0,TRUE,FALSE,4,TRUE
"A18SXC3JEN1O0U","Oct 05 2014","18:17:20",34,"Short","No-socialFirst","Zero",4,"Chrome",14,"Same","Novel50",1,"Novel50",2,2312,"straightahead",-1,0,0,1,(Oct 05 2014 18:17:20),0,TRUE,FALSE,4,TRUE
"A18SXC3JEN1O0U","Oct 05 2014","18:17:20",35,"Short","No-socialFirst","Zero",4,"Chrome",15,"Switch","Novel83",0,"Novel109",3,2682,"silentLUmedium",1,0,1,0,(Oct 05 2014 18:17:20),0,TRUE,FALSE,4,FALSE
"A18SXC3JEN1O0U","Oct 05 2014","18:17:20",36,"Short","No-socialFirst","Zero",4,"Chrome",15,"Switch","Novel127",0,"Novel109",3,4329,"straightahead",-1,0,0,1,(Oct 05 2014 18:17:20),0,TRUE,FALSE,4,FALSE
"A18WRW8BXFJT7U","Oct 05 2014","19:39:09",1,"Short","SocialFirst","Zero",4,"Chrome",0,"Switch","squirrel",0,"",0,1102,"straightahead",-1,1,0,0,(Oct 05 2014 19:39:09),0,TRUE,FALSE,4,FALSE
"A18WRW8BXFJT7U","Oct 05 2014","19:39:09",2,"Short","SocialFirst","Zero",4,"Chrome",0,"Switch","squirrel",0,"",0,471,"straightahead",-1,1,0,0,(Oct 05 2014 19:39:09),0,TRUE,FALSE,4,FALSE
"A18WRW8BXFJT7U","Oct 05 2014","19:39:09",3,"Short","SocialFirst","Zero",4,"Chrome",0,"Switch","tomato",1,"",0,158,"straightahead",-1,1,0,0,(Oct 05 2014 19:39:09),0,TRUE,FALSE,4,FALSE
"A18WRW8BXFJT7U","Oct 05 2014","19:39:09",4,"Short","SocialFirst","Zero",4,"Chrome",0,"Switch","tomato",2,"",0,284,"straightahead",-1,1,0,0,(Oct 05 2014 19:39:09),0,TRUE,FALSE,4,FALSE
"A18WRW8BXFJT7U","Oct 05 2014","19:39:09",5,"Short","SocialFirst","Zero",4,"Chrome",0,"Switch","Novel118",3,"Novel32",0,896,"silentRDshort",2,0,1,0,(Oct 05 2014 19:39:09),0,TRUE,FALSE,4,FALSE
"A18WRW8BXFJT7U","Oct 05 2014","19:39:09",6,"Short","SocialFirst","Zero",4,"Chrome",0,"Switch","Novel132",2,"Novel32",0,2098,"straightahead",-1,0,0,1,(Oct 05 2014 19:39:09),0,TRUE,TRUE,4,FALSE
"A18WRW8BXFJT7U","Oct 05 2014","19:39:09",7,"Short","SocialFirst","Zero",4,"Chrome",1,"Same","Novel46",3,"Novel46",3,676,"silentRDshort",2,0,1,0,(Oct 05 2014 19:39:09),0,TRUE,FALSE,4,TRUE
"A18WRW8BXFJT7U","Oct 05 2014","19:39:09",8,"Short","SocialFirst","Zero",4,"Chrome",1,"Same","Novel46",3,"Novel46",3,50,"straightahead",-1,0,0,1,(Oct 05 2014 19:39:09),0,TRUE,FALSE,4,TRUE
"A18WRW8BXFJT7U","Oct 05 2014","19:39:09",9,"Short","SocialFirst","Zero",4,"Chrome",2,"Switch","Novel40",0,"Novel8",1,594,"silentLUshort",1,0,1,0,(Oct 05 2014 19:39:09),0,TRUE,FALSE,4,FALSE
"A18WRW8BXFJT7U","Oct 05 2014","19:39:09",10,"Short","SocialFirst","Zero",4,"Chrome",2,"Switch","Novel90",2,"Novel8",1,420,"straightahead",-1,0,0,1,(Oct 05 2014 19:39:09),0,TRUE,FALSE,4,FALSE
"A18WRW8BXFJT7U","Oct 05 2014","19:39:09",11,"Short","SocialFirst","Zero",4,"Chrome",3,"Same","Novel55",1,"Novel55",1,686,"silentRUshort",3,0,1,0,(Oct 05 2014 19:39:09),0,TRUE,FALSE,4,TRUE
"A18WRW8BXFJT7U","Oct 05 2014","19:39:09",12,"Short","SocialFirst","Zero",4,"Chrome",3,"Same","Novel55",1,"Novel55",1,2321,"straightahead",-1,0,0,1,(Oct 05 2014 19:39:09),0,TRUE,FALSE,4,TRUE
"A18WRW8BXFJT7U","Oct 05 2014","19:39:09",13,"Short","SocialFirst","Zero",4,"Chrome",4,"Switch","Novel80",1,"Novel77",3,745,"silentRUshort",3,0,1,0,(Oct 05 2014 19:39:09),0,TRUE,FALSE,4,FALSE
"A18WRW8BXFJT7U","Oct 05 2014","19:39:09",14,"Short","SocialFirst","Zero",4,"Chrome",4,"Switch","Novel77",3,"Novel77",3,115,"straightahead",-1,0,0,1,(Oct 05 2014 19:39:09),0,TRUE,FALSE,4,TRUE
"A18WRW8BXFJT7U","Oct 05 2014","19:39:09",15,"Short","SocialFirst","Zero",4,"Chrome",5,"Same","Novel133",3,"Novel133",3,281,"silentRDshort",2,0,1,0,(Oct 05 2014 19:39:09),0,TRUE,FALSE,4,TRUE
"A18WRW8BXFJT7U","Oct 05 2014","19:39:09",16,"Short","SocialFirst","Zero",4,"Chrome",5,"Same","Novel133",2,"Novel133",3,1345,"straightahead",-1,0,0,1,(Oct 05 2014 19:39:09),0,TRUE,FALSE,4,TRUE
"A18WRW8BXFJT7U","Oct 05 2014","19:39:09",17,"Short","SocialFirst","Zero",4,"Chrome",6,"Switch","Novel74",3,"Novel98",1,736,"silentRDshort",2,0,1,0,(Oct 05 2014 19:39:09),0,TRUE,FALSE,4,FALSE
"A18WRW8BXFJT7U","Oct 05 2014","19:39:09",18,"Short","SocialFirst","Zero",4,"Chrome",6,"Switch","Novel114",1,"Novel98",1,173,"straightahead",-1,0,0,1,(Oct 05 2014 19:39:09),0,TRUE,FALSE,4,FALSE
"A18WRW8BXFJT7U","Oct 05 2014","19:39:09",19,"Short","SocialFirst","Zero",4,"Chrome",7,"Same","Novel93",1,"Novel93",1,454,"silentRUshort",3,0,1,0,(Oct 05 2014 19:39:09),0,TRUE,FALSE,4,TRUE
"A18WRW8BXFJT7U","Oct 05 2014","19:39:09",20,"Short","SocialFirst","Zero",4,"Chrome",7,"Same","Novel93",2,"Novel93",1,1345,"straightahead",-1,0,0,1,(Oct 05 2014 19:39:09),0,TRUE,FALSE,4,TRUE
"A18WRW8BXFJT7U","Oct 05 2014","19:39:09",21,"Short","SocialFirst","Zero",4,"Chrome",8,"Switch","Novel38",3,"Novel87",1,2760,"straightahead",-1,0,1,0,(Oct 05 2014 19:39:09),0,TRUE,FALSE,4,FALSE
"A18WRW8BXFJT7U","Oct 05 2014","19:39:09",22,"Short","SocialFirst","Zero",4,"Chrome",8,"Switch","Novel87",3,"Novel87",1,1660,"straightahead",-1,0,0,1,(Oct 05 2014 19:39:09),0,TRUE,FALSE,4,TRUE
"A18WRW8BXFJT7U","Oct 05 2014","19:39:09",23,"Short","SocialFirst","Zero",4,"Chrome",9,"Same","Novel47",1,"Novel47",1,688,"straightahead",-1,0,1,0,(Oct 05 2014 19:39:09),0,TRUE,FALSE,4,TRUE
"A18WRW8BXFJT7U","Oct 05 2014","19:39:09",24,"Short","SocialFirst","Zero",4,"Chrome",9,"Same","Novel47",0,"Novel47",1,14,"straightahead",-1,0,0,1,(Oct 05 2014 19:39:09),0,TRUE,FALSE,4,TRUE
"A18WRW8BXFJT7U","Oct 05 2014","19:39:09",25,"Short","SocialFirst","Zero",4,"Chrome",10,"Switch","Novel44",0,"Novel49",2,748,"straightahead",-1,0,1,0,(Oct 05 2014 19:39:09),0,TRUE,FALSE,4,FALSE
"A18WRW8BXFJT7U","Oct 05 2014","19:39:09",26,"Short","SocialFirst","Zero",4,"Chrome",10,"Switch","Novel104",1,"Novel49",2,1296,"straightahead",-1,0,0,1,(Oct 05 2014 19:39:09),0,TRUE,FALSE,4,FALSE
"A18WRW8BXFJT7U","Oct 05 2014","19:39:09",27,"Short","SocialFirst","Zero",4,"Chrome",11,"Same","Novel45",2,"Novel45",2,1369,"straightahead",-1,0,1,0,(Oct 05 2014 19:39:09),0,TRUE,FALSE,4,TRUE
"A18WRW8BXFJT7U","Oct 05 2014","19:39:09",28,"Short","SocialFirst","Zero",4,"Chrome",11,"Same","Novel45",3,"Novel45",2,63,"straightahead",-1,0,0,1,(Oct 05 2014 19:39:09),0,TRUE,FALSE,4,TRUE
"A18WRW8BXFJT7U","Oct 05 2014","19:39:09",29,"Short","SocialFirst","Zero",4,"Chrome",12,"Switch","Novel39",2,"Novel139",1,1344,"straightahead",-1,0,1,0,(Oct 05 2014 19:39:09),0,TRUE,FALSE,4,FALSE
"A18WRW8BXFJT7U","Oct 05 2014","19:39:09",30,"Short","SocialFirst","Zero",4,"Chrome",12,"Switch","Novel28",0,"Novel139",1,1710,"straightahead",-1,0,0,1,(Oct 05 2014 19:39:09),0,TRUE,FALSE,4,FALSE
"A18WRW8BXFJT7U","Oct 05 2014","19:39:09",31,"Short","SocialFirst","Zero",4,"Chrome",13,"Same","Novel81",1,"Novel81",1,296,"straightahead",-1,0,1,0,(Oct 05 2014 19:39:09),0,TRUE,FALSE,4,TRUE
"A18WRW8BXFJT7U","Oct 05 2014","19:39:09",32,"Short","SocialFirst","Zero",4,"Chrome",13,"Same","Novel81",0,"Novel81",1,674,"straightahead",-1,0,0,1,(Oct 05 2014 19:39:09),0,TRUE,FALSE,4,TRUE
"A18WRW8BXFJT7U","Oct 05 2014","19:39:09",33,"Short","SocialFirst","Zero",4,"Chrome",14,"Switch","Novel75",3,"Novel65",2,1872,"straightahead",-1,0,1,0,(Oct 05 2014 19:39:09),0,TRUE,FALSE,4,FALSE
"A18WRW8BXFJT7U","Oct 05 2014","19:39:09",34,"Short","SocialFirst","Zero",4,"Chrome",14,"Switch","Novel65",0,"Novel65",2,710,"straightahead",-1,0,0,1,(Oct 05 2014 19:39:09),0,TRUE,FALSE,4,TRUE
"A18WRW8BXFJT7U","Oct 05 2014","19:39:09",35,"Short","SocialFirst","Zero",4,"Chrome",15,"Same","Novel4",3,"Novel4",3,282,"straightahead",-1,0,1,0,(Oct 05 2014 19:39:09),0,TRUE,FALSE,4,TRUE
"A18WRW8BXFJT7U","Oct 05 2014","19:39:09",36,"Short","SocialFirst","Zero",4,"Chrome",15,"Same","Novel4",1,"Novel4",3,160,"straightahead",-1,0,0,1,(Oct 05 2014 19:39:09),0,TRUE,FALSE,4,TRUE
"A19C72XZ10NA82","Oct 05 2014","18:08:50",1,"Short","SocialFirst","Zero",4,"Chrome",0,"Switch","squirrel",0,"",0,1784,"straightahead",-1,1,0,0,(Oct 05 2014 18:08:50),0,TRUE,FALSE,4,FALSE
"A19C72XZ10NA82","Oct 05 2014","18:08:50",2,"Short","SocialFirst","Zero",4,"Chrome",0,"Switch","squirrel",0,"",0,1886,"straightahead",-1,1,0,0,(Oct 05 2014 18:08:50),0,TRUE,FALSE,4,FALSE
"A19C72XZ10NA82","Oct 05 2014","18:08:50",3,"Short","SocialFirst","Zero",4,"Chrome",0,"Switch","tomato",1,"",0,251,"straightahead",-1,1,0,0,(Oct 05 2014 18:08:50),0,TRUE,FALSE,4,FALSE
"A19C72XZ10NA82","Oct 05 2014","18:08:50",4,"Short","SocialFirst","Zero",4,"Chrome",0,"Switch","tomato",2,"",0,89,"straightahead",-1,1,0,0,(Oct 05 2014 18:08:50),0,TRUE,FALSE,4,FALSE
"A19C72XZ10NA82","Oct 05 2014","18:08:50",5,"Short","SocialFirst","Zero",4,"Chrome",0,"Switch","Novel53",3,"Novel97",1,1353,"silentRDshort",2,0,1,0,(Oct 05 2014 18:08:50),0,TRUE,FALSE,4,FALSE
"A19C72XZ10NA82","Oct 05 2014","18:08:50",6,"Short","SocialFirst","Zero",4,"Chrome",0,"Switch","Novel97",1,"Novel97",1,1540,"straightahead",-1,0,0,1,(Oct 05 2014 18:08:50),0,TRUE,TRUE,4,TRUE
"A19C72XZ10NA82","Oct 05 2014","18:08:50",7,"Short","SocialFirst","Zero",4,"Chrome",1,"Same","Novel130",1,"Novel130",1,1896,"silentRUshort",3,0,1,0,(Oct 05 2014 18:08:50),0,TRUE,FALSE,4,TRUE
"A19C72XZ10NA82","Oct 05 2014","18:08:50",8,"Short","SocialFirst","Zero",4,"Chrome",1,"Same","Novel130",3,"Novel130",1,182,"straightahead",-1,0,0,1,(Oct 05 2014 18:08:50),0,TRUE,FALSE,4,TRUE
"A19C72XZ10NA82","Oct 05 2014","18:08:50",9,"Short","SocialFirst","Zero",4,"Chrome",2,"Switch","Novel134",3,"Novel20",2,268,"silentRDshort",2,0,1,0,(Oct 05 2014 18:08:50),0,TRUE,FALSE,4,FALSE
"A19C72XZ10NA82","Oct 05 2014","18:08:50",10,"Short","SocialFirst","Zero",4,"Chrome",2,"Switch","Novel76",1,"Novel20",2,3480,"straightahead",-1,0,0,1,(Oct 05 2014 18:08:50),0,TRUE,FALSE,4,FALSE
"A19C72XZ10NA82","Oct 05 2014","18:08:50",11,"Short","SocialFirst","Zero",4,"Chrome",3,"Same","Novel19",3,"Novel19",3,445,"silentRDshort",2,0,1,0,(Oct 05 2014 18:08:50),0,TRUE,FALSE,4,TRUE
"A19C72XZ10NA82","Oct 05 2014","18:08:50",12,"Short","SocialFirst","Zero",4,"Chrome",3,"Same","Novel19",0,"Novel19",3,593,"straightahead",-1,0,0,1,(Oct 05 2014 18:08:50),0,TRUE,FALSE,4,TRUE
"A19C72XZ10NA82","Oct 05 2014","18:08:50",13,"Short","SocialFirst","Zero",4,"Chrome",4,"Switch","Novel56",0,"Novel11",1,387,"silentLUshort",1,0,1,0,(Oct 05 2014 18:08:50),0,TRUE,FALSE,4,FALSE
