"subid","submit.date","submit.time","trial.num","gazeLength","condition","interval","numPic","browser","itemNum","trialType","chosen","chosenIdx","kept","keptIdx","rt","face","faceIdx","example_trial","exposure_trial","test_trial","day.and.time","intervalNum","include","first.trial","numPicN","correct"
"A10K935NTPPOIJ","Aug 12 2014","16:00:44",1,"Short","This","Zero",4,"Chrome",0,"Same","flower",0,"",0,4968,"straightaheadlonger",-1,1,0,0,(Aug 12 2014 16:00:44),0,TRUE,FALSE,4,FALSE
"A10K935NTPPOIJ","Aug 12 2014","16:00:44",2,"Short","This","Zero",4,"Chrome",0,"Same","flower",0,"",0,2758,"straightaheadlonger",-1,1,0,0,(Aug 12 2014 16:00:44),0,TRUE,FALSE,4,FALSE
"A10K935NTPPOIJ","Aug 12 2014","16:00:44",3,"Short","This","Zero",4,"Chrome",0,"Same","truck",1,"",0,1348,"straightaheadlonger",-1,1,0,0,(Aug 12 2014 16:00:44),0,TRUE,FALSE,4,FALSE
"A10K935NTPPOIJ","Aug 12 2014","16:00:44",4,"Short","This","Zero",4,"Chrome",0,"Same","truck",2,"",0,279,"straightaheadlonger",-1,1,0,0,(Aug 12 2014 16:00:44),0,TRUE,FALSE,4,FALSE
"A10K935NTPPOIJ","Aug 12 2014","16:00:44",5,"Short","This","Zero",4,"Chrome",0,"Same","Novel119",1,"Novel119",1,1860,"RUkidslonger",3,0,1,0,(Aug 12 2014 16:00:44),0,TRUE,FALSE,4,TRUE
"A10K935NTPPOIJ","Aug 12 2014","16:00:44",6,"Short","This","Zero",4,"Chrome",0,"Same","Novel119",1,"Novel119",1,1200,"straightaheadlonger",-1,0,0,1,(Aug 12 2014 16:00:44),0,TRUE,TRUE,4,TRUE
"A10K935NTPPOIJ","Aug 12 2014","16:00:44",7,"Short","This","Zero",4,"Chrome",1,"Switch","Novel22",1,"Novel18",3,2169,"RUkidslonger",3,0,1,0,(Aug 12 2014 16:00:44),0,TRUE,FALSE,4,FALSE
"A10K935NTPPOIJ","Aug 12 2014","16:00:44",8,"Short","This","Zero",4,"Chrome",1,"Switch","Novel18",3,"Novel18",3,2149,"straightaheadlonger",-1,0,0,1,(Aug 12 2014 16:00:44),0,TRUE,FALSE,4,TRUE
"A10K935NTPPOIJ","Aug 12 2014","16:00:44",9,"Short","This","Zero",4,"Chrome",2,"Same","Novel114",0,"Novel114",0,3806,"LUkidslonger",1,0,1,0,(Aug 12 2014 16:00:44),0,TRUE,FALSE,4,TRUE
"A10K935NTPPOIJ","Aug 12 2014","16:00:44",10,"Short","This","Zero",4,"Chrome",2,"Same","Novel114",1,"Novel114",0,859,"straightaheadlonger",-1,0,0,1,(Aug 12 2014 16:00:44),0,TRUE,FALSE,4,TRUE
"A10K935NTPPOIJ","Aug 12 2014","16:00:44",11,"Short","This","Zero",4,"Chrome",3,"Switch","Novel77",3,"Novel81",0,1927,"RDkidslonger",2,0,1,0,(Aug 12 2014 16:00:44),0,TRUE,FALSE,4,FALSE
"A10K935NTPPOIJ","Aug 12 2014","16:00:44",12,"Short","This","Zero",4,"Chrome",3,"Switch","Novel51",0,"Novel81",0,2266,"straightaheadlonger",-1,0,0,1,(Aug 12 2014 16:00:44),0,TRUE,FALSE,4,FALSE
"A10K935NTPPOIJ","Aug 12 2014","16:00:44",13,"Short","This","Zero",4,"Chrome",4,"Same","Novel59",2,"Novel59",2,5170,"LDkidslonger",0,0,1,0,(Aug 12 2014 16:00:44),0,TRUE,FALSE,4,TRUE
"A10K935NTPPOIJ","Aug 12 2014","16:00:44",14,"Short","This","Zero",4,"Chrome",4,"Same","Novel59",2,"Novel59",2,775,"straightaheadlonger",-1,0,0,1,(Aug 12 2014 16:00:44),0,TRUE,FALSE,4,TRUE
"A10K935NTPPOIJ","Aug 12 2014","16:00:44",15,"Short","This","Zero",4,"Chrome",5,"Switch","Novel66",2,"Novel111",0,2571,"LDkidslonger",0,0,1,0,(Aug 12 2014 16:00:44),0,TRUE,FALSE,4,FALSE
"A10K935NTPPOIJ","Aug 12 2014","16:00:44",16,"Short","This","Zero",4,"Chrome",5,"Switch","Novel129",2,"Novel111",0,7055,"straightaheadlonger",-1,0,0,1,(Aug 12 2014 16:00:44),0,TRUE,FALSE,4,FALSE
"A118DWOXWSI8VC","Aug 12 2014","16:25:04",1,"Short","One","Zero",4,"Firefox",0,"Switch","flower",0,"",0,1622,"straightaheadlonger",-1,1,0,0,(Aug 12 2014 16:25:04),0,TRUE,FALSE,4,FALSE
"A118DWOXWSI8VC","Aug 12 2014","16:25:04",2,"Short","One","Zero",4,"Firefox",0,"Switch","flower",0,"",0,1843,"straightaheadlonger",-1,1,0,0,(Aug 12 2014 16:25:04),0,TRUE,FALSE,4,FALSE
"A118DWOXWSI8VC","Aug 12 2014","16:25:04",3,"Short","One","Zero",4,"Firefox",0,"Switch","truck",1,"",0,544,"straightaheadlonger",-1,1,0,0,(Aug 12 2014 16:25:04),0,TRUE,FALSE,4,FALSE
"A118DWOXWSI8VC","Aug 12 2014","16:25:04",4,"Short","One","Zero",4,"Firefox",0,"Switch","truck",2,"",0,1025,"straightaheadlonger",-1,1,0,0,(Aug 12 2014 16:25:04),0,TRUE,FALSE,4,FALSE
"A118DWOXWSI8VC","Aug 12 2014","16:25:04",5,"Short","One","Zero",4,"Firefox",0,"Switch","Novel75",3,"Novel51",0,3894,"LDkidslonger",0,0,1,0,(Aug 12 2014 16:25:04),0,TRUE,FALSE,4,FALSE
"A118DWOXWSI8VC","Aug 12 2014","16:25:04",6,"Short","One","Zero",4,"Firefox",0,"Switch","Novel7",2,"Novel51",0,2211,"straightaheadlonger",-1,0,0,1,(Aug 12 2014 16:25:04),0,TRUE,TRUE,4,FALSE
"A118DWOXWSI8VC","Aug 12 2014","16:25:04",7,"Short","One","Zero",4,"Firefox",1,"Same","Novel23",3,"Novel23",3,2280,"LUkidslonger",1,0,1,0,(Aug 12 2014 16:25:04),0,TRUE,FALSE,4,TRUE
"A118DWOXWSI8VC","Aug 12 2014","16:25:04",8,"Short","One","Zero",4,"Firefox",1,"Same","Novel23",2,"Novel23",3,1129,"straightaheadlonger",-1,0,0,1,(Aug 12 2014 16:25:04),0,TRUE,FALSE,4,TRUE
"A118DWOXWSI8VC","Aug 12 2014","16:25:04",9,"Short","One","Zero",4,"Firefox",2,"Switch","Novel108",3,"Novel11",1,3123,"LUkidslonger",1,0,1,0,(Aug 12 2014 16:25:04),0,TRUE,FALSE,4,FALSE
"A118DWOXWSI8VC","Aug 12 2014","16:25:04",10,"Short","One","Zero",4,"Firefox",2,"Switch","Novel13",3,"Novel11",1,1678,"straightaheadlonger",-1,0,0,1,(Aug 12 2014 16:25:04),0,TRUE,FALSE,4,FALSE
"A118DWOXWSI8VC","Aug 12 2014","16:25:04",11,"Short","One","Zero",4,"Firefox",3,"Same","Novel69",1,"Novel69",1,2770,"LDkidslonger",0,0,1,0,(Aug 12 2014 16:25:04),0,TRUE,FALSE,4,TRUE
"A118DWOXWSI8VC","Aug 12 2014","16:25:04",12,"Short","One","Zero",4,"Firefox",3,"Same","Novel112",1,"Novel69",1,2061,"straightaheadlonger",-1,0,0,1,(Aug 12 2014 16:25:04),0,TRUE,FALSE,4,FALSE
"A118DWOXWSI8VC","Aug 12 2014","16:25:04",13,"Short","One","Zero",4,"Firefox",4,"Switch","Novel105",0,"Novel96",1,1637,"RUkidslonger",3,0,1,0,(Aug 12 2014 16:25:04),0,TRUE,FALSE,4,FALSE
"A118DWOXWSI8VC","Aug 12 2014","16:25:04",14,"Short","One","Zero",4,"Firefox",4,"Switch","Novel101",1,"Novel96",1,4046,"straightaheadlonger",-1,0,0,1,(Aug 12 2014 16:25:04),0,TRUE,FALSE,4,FALSE
"A118DWOXWSI8VC","Aug 12 2014","16:25:04",15,"Short","One","Zero",4,"Firefox",5,"Same","Novel109",3,"Novel109",3,3347,"LDkidslonger",0,0,1,0,(Aug 12 2014 16:25:04),0,TRUE,FALSE,4,TRUE
"A118DWOXWSI8VC","Aug 12 2014","16:25:04",16,"Short","One","Zero",4,"Firefox",5,"Same","Novel109",3,"Novel109",3,936,"straightaheadlonger",-1,0,0,1,(Aug 12 2014 16:25:04),0,TRUE,FALSE,4,TRUE
"A13MDV9AYEN144","Aug 12 2014","15:43:34",1,"Short","One","Zero",4,"Chrome",0,"Same","flower",0,"",0,2235,"straightaheadlonger",-1,1,0,0,(Aug 12 2014 15:43:34),0,TRUE,FALSE,4,FALSE
"A13MDV9AYEN144","Aug 12 2014","15:43:34",2,"Short","One","Zero",4,"Chrome",0,"Same","flower",0,"",0,1848,"straightaheadlonger",-1,1,0,0,(Aug 12 2014 15:43:34),0,TRUE,FALSE,4,FALSE
"A13MDV9AYEN144","Aug 12 2014","15:43:34",3,"Short","One","Zero",4,"Chrome",0,"Same","truck",1,"",0,283,"straightaheadlonger",-1,1,0,0,(Aug 12 2014 15:43:34),0,TRUE,FALSE,4,FALSE
"A13MDV9AYEN144","Aug 12 2014","15:43:34",4,"Short","One","Zero",4,"Chrome",0,"Same","truck",2,"",0,250,"straightaheadlonger",-1,1,0,0,(Aug 12 2014 15:43:34),0,TRUE,FALSE,4,FALSE
"A13MDV9AYEN144","Aug 12 2014","15:43:34",5,"Short","One","Zero",4,"Chrome",0,"Same","Novel2",0,"Novel2",0,1861,"RDkidslonger",2,0,1,0,(Aug 12 2014 15:43:34),0,TRUE,FALSE,4,TRUE
"A13MDV9AYEN144","Aug 12 2014","15:43:34",6,"Short","One","Zero",4,"Chrome",0,"Same","Novel2",0,"Novel2",0,2147,"straightaheadlonger",-1,0,0,1,(Aug 12 2014 15:43:34),0,TRUE,TRUE,4,TRUE
"A13MDV9AYEN144","Aug 12 2014","15:43:34",7,"Short","One","Zero",4,"Chrome",1,"Switch","Novel13",1,"Novel85",2,2171,"LDkidslonger",0,0,1,0,(Aug 12 2014 15:43:34),0,TRUE,FALSE,4,FALSE
"A13MDV9AYEN144","Aug 12 2014","15:43:34",8,"Short","One","Zero",4,"Chrome",1,"Switch","Novel85",2,"Novel85",2,2588,"straightaheadlonger",-1,0,0,1,(Aug 12 2014 15:43:34),0,TRUE,FALSE,4,TRUE
"A13MDV9AYEN144","Aug 12 2014","15:43:34",9,"Short","One","Zero",4,"Chrome",2,"Same","Novel75",0,"Novel75",0,3171,"LDkidslonger",0,0,1,0,(Aug 12 2014 15:43:34),0,TRUE,FALSE,4,TRUE
"A13MDV9AYEN144","Aug 12 2014","15:43:34",10,"Short","One","Zero",4,"Chrome",2,"Same","Novel75",0,"Novel75",0,725,"straightaheadlonger",-1,0,0,1,(Aug 12 2014 15:43:34),0,TRUE,FALSE,4,TRUE
"A13MDV9AYEN144","Aug 12 2014","15:43:34",11,"Short","One","Zero",4,"Chrome",3,"Switch","Novel94",3,"Novel7",1,2333,"RDkidslonger",2,0,1,0,(Aug 12 2014 15:43:34),0,TRUE,FALSE,4,FALSE
"A13MDV9AYEN144","Aug 12 2014","15:43:34",12,"Short","One","Zero",4,"Chrome",3,"Switch","Novel7",0,"Novel7",1,722,"straightaheadlonger",-1,0,0,1,(Aug 12 2014 15:43:34),0,TRUE,FALSE,4,TRUE
"A13MDV9AYEN144","Aug 12 2014","15:43:34",13,"Short","One","Zero",4,"Chrome",4,"Same","Novel22",1,"Novel22",1,5700,"RUkidslonger",3,0,1,0,(Aug 12 2014 15:43:34),0,TRUE,FALSE,4,TRUE
"A13MDV9AYEN144","Aug 12 2014","15:43:34",14,"Short","One","Zero",4,"Chrome",4,"Same","Novel22",2,"Novel22",1,3875,"straightaheadlonger",-1,0,0,1,(Aug 12 2014 15:43:34),0,TRUE,FALSE,4,TRUE
"A13MDV9AYEN144","Aug 12 2014","15:43:34",15,"Short","One","Zero",4,"Chrome",5,"Switch","Novel119",2,"Novel135",1,10819,"LDkidslonger",0,0,1,0,(Aug 12 2014 15:43:34),0,TRUE,FALSE,4,FALSE
"A13MDV9AYEN144","Aug 12 2014","15:43:34",16,"Short","One","Zero",4,"Chrome",5,"Switch","Novel135",1,"Novel135",1,2748,"straightaheadlonger",-1,0,0,1,(Aug 12 2014 15:43:34),0,TRUE,FALSE,4,TRUE
"A179OX1482SRXK","Aug 12 2014","16:00:40",1,"Short","This","Zero",4,"Chrome",0,"Same","flower",0,"",0,2073,"straightaheadlonger",-1,1,0,0,(Aug 12 2014 16:00:40),0,TRUE,FALSE,4,FALSE
"A179OX1482SRXK","Aug 12 2014","16:00:40",2,"Short","This","Zero",4,"Chrome",0,"Same","flower",0,"",0,1203,"straightaheadlonger",-1,1,0,0,(Aug 12 2014 16:00:40),0,TRUE,FALSE,4,FALSE
"A179OX1482SRXK","Aug 12 2014","16:00:40",3,"Short","This","Zero",4,"Chrome",0,"Same","truck",1,"",0,655,"straightaheadlonger",-1,1,0,0,(Aug 12 2014 16:00:40),0,TRUE,FALSE,4,FALSE
"A179OX1482SRXK","Aug 12 2014","16:00:40",4,"Short","This","Zero",4,"Chrome",0,"Same","truck",2,"",0,489,"straightaheadlonger",-1,1,0,0,(Aug 12 2014 16:00:40),0,TRUE,FALSE,4,FALSE
"A179OX1482SRXK","Aug 12 2014","16:00:40",5,"Short","This","Zero",4,"Chrome",0,"Same","Novel122",3,"Novel122",3,1129,"RDkidslonger",2,0,1,0,(Aug 12 2014 16:00:40),0,TRUE,FALSE,4,TRUE
"A179OX1482SRXK","Aug 12 2014","16:00:40",6,"Short","This","Zero",4,"Chrome",0,"Same","Novel122",0,"Novel122",3,831,"straightaheadlonger",-1,0,0,1,(Aug 12 2014 16:00:40),0,TRUE,TRUE,4,TRUE
"A179OX1482SRXK","Aug 12 2014","16:00:40",7,"Short","This","Zero",4,"Chrome",1,"Switch","Novel127",2,"Novel81",3,1118,"LDkidslonger",0,0,1,0,(Aug 12 2014 16:00:40),0,TRUE,FALSE,4,FALSE
"A179OX1482SRXK","Aug 12 2014","16:00:40",8,"Short","This","Zero",4,"Chrome",1,"Switch","Novel124",3,"Novel81",3,4039,"straightaheadlonger",-1,0,0,1,(Aug 12 2014 16:00:40),0,TRUE,FALSE,4,FALSE
"A179OX1482SRXK","Aug 12 2014","16:00:40",9,"Short","This","Zero",4,"Chrome",2,"Same","Novel117",3,"Novel117",3,5261,"RDkidslonger",2,0,1,0,(Aug 12 2014 16:00:40),0,TRUE,FALSE,4,TRUE
"A179OX1482SRXK","Aug 12 2014","16:00:40",10,"Short","This","Zero",4,"Chrome",2,"Same","Novel117",3,"Novel117",3,1102,"straightaheadlonger",-1,0,0,1,(Aug 12 2014 16:00:40),0,TRUE,FALSE,4,TRUE
"A179OX1482SRXK","Aug 12 2014","16:00:40",11,"Short","This","Zero",4,"Chrome",3,"Switch","Novel102",3,"Novel103",1,472,"RDkidslonger",2,0,1,0,(Aug 12 2014 16:00:40),0,TRUE,FALSE,4,FALSE
"A179OX1482SRXK","Aug 12 2014","16:00:40",12,"Short","This","Zero",4,"Chrome",3,"Switch","Novel103",1,"Novel103",1,663,"straightaheadlonger",-1,0,0,1,(Aug 12 2014 16:00:40),0,TRUE,FALSE,4,TRUE
"A179OX1482SRXK","Aug 12 2014","16:00:40",13,"Short","This","Zero",4,"Chrome",4,"Same","Novel38",3,"Novel38",3,1294,"RDkidslonger",2,0,1,0,(Aug 12 2014 16:00:40),0,TRUE,FALSE,4,TRUE
"A179OX1482SRXK","Aug 12 2014","16:00:40",14,"Short","This","Zero",4,"Chrome",4,"Same","Novel38",3,"Novel38",3,505,"straightaheadlonger",-1,0,0,1,(Aug 12 2014 16:00:40),0,TRUE,FALSE,4,TRUE
"A179OX1482SRXK","Aug 12 2014","16:00:40",15,"Short","This","Zero",4,"Chrome",5,"Switch","Novel100",3,"Novel104",0,791,"RDkidslonger",2,0,1,0,(Aug 12 2014 16:00:40),0,TRUE,FALSE,4,FALSE
"A179OX1482SRXK","Aug 12 2014","16:00:40",16,"Short","This","Zero",4,"Chrome",5,"Switch","Novel104",0,"Novel104",0,1008,"straightaheadlonger",-1,0,0,1,(Aug 12 2014 16:00:40),0,TRUE,FALSE,4,TRUE
"A17VC7YB71IG0A","Aug 12 2014","16:00:43",1,"Short","One","Zero",4,"Safari",0,"Same","flower",0,"",0,7033,"straightaheadlonger",-1,1,0,0,(Aug 12 2014 16:00:43),0,TRUE,FALSE,4,FALSE
"A17VC7YB71IG0A","Aug 12 2014","16:00:43",2,"Short","One","Zero",4,"Safari",0,"Same","flower",0,"",0,5382,"straightaheadlonger",-1,1,0,0,(Aug 12 2014 16:00:43),0,TRUE,FALSE,4,FALSE
"A17VC7YB71IG0A","Aug 12 2014","16:00:43",3,"Short","One","Zero",4,"Safari",0,"Same","truck",1,"",0,2314,"straightaheadlonger",-1,1,0,0,(Aug 12 2014 16:00:43),0,TRUE,FALSE,4,FALSE
"A17VC7YB71IG0A","Aug 12 2014","16:00:43",4,"Short","One","Zero",4,"Safari",0,"Same","truck",2,"",0,2416,"straightaheadlonger",-1,1,0,0,(Aug 12 2014 16:00:43),0,TRUE,FALSE,4,FALSE
"A17VC7YB71IG0A","Aug 12 2014","16:00:43",5,"Short","One","Zero",4,"Safari",0,"Same","Novel45",3,"Novel45",3,7835,"RDkidslonger",2,0,1,0,(Aug 12 2014 16:00:43),0,TRUE,FALSE,4,TRUE
"A17VC7YB71IG0A","Aug 12 2014","16:00:43",6,"Short","One","Zero",4,"Safari",0,"Same","Novel45",1,"Novel45",3,2781,"straightaheadlonger",-1,0,0,1,(Aug 12 2014 16:00:43),0,TRUE,TRUE,4,TRUE
"A17VC7YB71IG0A","Aug 12 2014","16:00:43",7,"Short","One","Zero",4,"Safari",1,"Switch","Novel74",1,"Novel39",0,2574,"RUkidslonger",3,0,1,0,(Aug 12 2014 16:00:43),0,TRUE,FALSE,4,FALSE
"A17VC7YB71IG0A","Aug 12 2014","16:00:43",8,"Short","One","Zero",4,"Safari",1,"Switch","Novel114",2,"Novel39",0,8381,"straightaheadlonger",-1,0,0,1,(Aug 12 2014 16:00:43),0,TRUE,FALSE,4,FALSE
"A17VC7YB71IG0A","Aug 12 2014","16:00:43",9,"Short","One","Zero",4,"Safari",2,"Same","Novel49",1,"Novel49",1,9422,"LUkidslonger",1,0,1,0,(Aug 12 2014 16:00:43),0,TRUE,FALSE,4,TRUE
"A17VC7YB71IG0A","Aug 12 2014","16:00:43",10,"Short","One","Zero",4,"Safari",2,"Same","Novel49",1,"Novel49",1,1360,"straightaheadlonger",-1,0,0,1,(Aug 12 2014 16:00:43),0,TRUE,FALSE,4,TRUE
"A17VC7YB71IG0A","Aug 12 2014","16:00:43",11,"Short","One","Zero",4,"Safari",3,"Switch","Novel30",0,"Novel16",3,9459,"RUkidslonger",3,0,1,0,(Aug 12 2014 16:00:43),0,TRUE,FALSE,4,FALSE
"A17VC7YB71IG0A","Aug 12 2014","16:00:43",12,"Short","One","Zero",4,"Safari",3,"Switch","Novel16",3,"Novel16",3,1322,"straightaheadlonger",-1,0,0,1,(Aug 12 2014 16:00:43),0,TRUE,FALSE,4,TRUE
"A17VC7YB71IG0A","Aug 12 2014","16:00:43",13,"Short","One","Zero",4,"Safari",4,"Same","Novel95",2,"Novel95",2,13711,"LUkidslonger",1,0,1,0,(Aug 12 2014 16:00:43),0,TRUE,FALSE,4,TRUE
"A17VC7YB71IG0A","Aug 12 2014","16:00:43",14,"Short","One","Zero",4,"Safari",4,"Same","Novel95",2,"Novel95",2,895,"straightaheadlonger",-1,0,0,1,(Aug 12 2014 16:00:43),0,TRUE,FALSE,4,TRUE
"A17VC7YB71IG0A","Aug 12 2014","16:00:43",15,"Short","One","Zero",4,"Safari",5,"Switch","Novel77",3,"Novel99",2,14156,"RUkidslonger",3,0,1,0,(Aug 12 2014 16:00:43),0,TRUE,FALSE,4,FALSE
"A17VC7YB71IG0A","Aug 12 2014","16:00:43",16,"Short","One","Zero",4,"Safari",5,"Switch","Novel99",2,"Novel99",2,777,"straightaheadlonger",-1,0,0,1,(Aug 12 2014 16:00:43),0,TRUE,FALSE,4,TRUE
"A19DY2RQN6EJAC","Aug 12 2014","16:26:50",1,"Short","One","Zero",4,"Chrome",0,"Switch","flower",0,"",0,8608,"straightaheadlonger",-1,1,0,0,(Aug 12 2014 16:26:50),0,TRUE,FALSE,4,FALSE
"A19DY2RQN6EJAC","Aug 12 2014","16:26:50",2,"Short","One","Zero",4,"Chrome",0,"Switch","flower",0,"",0,5357,"straightaheadlonger",-1,1,0,0,(Aug 12 2014 16:26:50),0,TRUE,FALSE,4,FALSE
"A19DY2RQN6EJAC","Aug 12 2014","16:26:50",3,"Short","One","Zero",4,"Chrome",0,"Switch","truck",1,"",0,1112,"straightaheadlonger",-1,1,0,0,(Aug 12 2014 16:26:50),0,TRUE,FALSE,4,FALSE
"A19DY2RQN6EJAC","Aug 12 2014","16:26:50",4,"Short","One","Zero",4,"Chrome",0,"Switch","truck",2,"",0,497,"straightaheadlonger",-1,1,0,0,(Aug 12 2014 16:26:50),0,TRUE,FALSE,4,FALSE
"A19DY2RQN6EJAC","Aug 12 2014","16:26:50",5,"Short","One","Zero",4,"Chrome",0,"Switch","Novel98",3,"Novel93",1,2938,"RDkidslonger",2,0,1,0,(Aug 12 2014 16:26:50),0,TRUE,FALSE,4,FALSE
"A19DY2RQN6EJAC","Aug 12 2014","16:26:50",6,"Short","One","Zero",4,"Chrome",0,"Switch","Novel60",1,"Novel93",1,7379,"straightaheadlonger",-1,0,0,1,(Aug 12 2014 16:26:50),0,TRUE,TRUE,4,FALSE
"A19DY2RQN6EJAC","Aug 12 2014","16:26:50",7,"Short","One","Zero",4,"Chrome",1,"Same","Novel96",1,"Novel96",1,2189,"RUkidslonger",3,0,1,0,(Aug 12 2014 16:26:50),0,TRUE,FALSE,4,TRUE
"A19DY2RQN6EJAC","Aug 12 2014","16:26:50",8,"Short","One","Zero",4,"Chrome",1,"Same","Novel96",1,"Novel96",1,776,"straightaheadlonger",-1,0,0,1,(Aug 12 2014 16:26:50),0,TRUE,FALSE,4,TRUE
"A19DY2RQN6EJAC","Aug 12 2014","16:26:50",9,"Short","One","Zero",4,"Chrome",2,"Switch","Novel27",0,"Novel16",1,2981,"LUkidslonger",1,0,1,0,(Aug 12 2014 16:26:50),0,TRUE,FALSE,4,FALSE
"A19DY2RQN6EJAC","Aug 12 2014","16:26:50",10,"Short","One","Zero",4,"Chrome",2,"Switch","Novel34",3,"Novel16",1,1063,"straightaheadlonger",-1,0,0,1,(Aug 12 2014 16:26:50),0,TRUE,FALSE,4,FALSE
"A19DY2RQN6EJAC","Aug 12 2014","16:26:50",11,"Short","One","Zero",4,"Chrome",3,"Same","Novel104",0,"Novel104",0,2408,"LUkidslonger",1,0,1,0,(Aug 12 2014 16:26:50),0,TRUE,FALSE,4,TRUE
"A19DY2RQN6EJAC","Aug 12 2014","16:26:50",12,"Short","One","Zero",4,"Chrome",3,"Same","Novel104",2,"Novel104",0,869,"straightaheadlonger",-1,0,0,1,(Aug 12 2014 16:26:50),0,TRUE,FALSE,4,TRUE
"A19DY2RQN6EJAC","Aug 12 2014","16:26:50",13,"Short","One","Zero",4,"Chrome",4,"Switch","Novel1",0,"Novel41",3,2210,"LUkidslonger",1,0,1,0,(Aug 12 2014 16:26:50),0,TRUE,FALSE,4,FALSE
"A19DY2RQN6EJAC","Aug 12 2014","16:26:50",14,"Short","One","Zero",4,"Chrome",4,"Switch","Novel41",3,"Novel41",3,1026,"straightaheadlonger",-1,0,0,1,(Aug 12 2014 16:26:50),0,TRUE,FALSE,4,TRUE
"A19DY2RQN6EJAC","Aug 12 2014","16:26:50",15,"Short","One","Zero",4,"Chrome",5,"Same","Novel50",0,"Novel50",0,1208,"LUkidslonger",1,0,1,0,(Aug 12 2014 16:26:50),0,TRUE,FALSE,4,TRUE
"A19DY2RQN6EJAC","Aug 12 2014","16:26:50",16,"Short","One","Zero",4,"Chrome",5,"Same","Novel50",0,"Novel50",0,878,"straightaheadlonger",-1,0,0,1,(Aug 12 2014 16:26:50),0,TRUE,FALSE,4,TRUE
"A1A1PSTVSSJKXV","Aug 12 2014","15:41:05",1,"Short","This","Zero",4,"Chrome",0,"Same","flower",0,"",0,25814,"straightaheadlonger",-1,1,0,0,(Aug 12 2014 15:41:05),0,TRUE,FALSE,4,FALSE
"A1A1PSTVSSJKXV","Aug 12 2014","15:41:05",2,"Short","This","Zero",4,"Chrome",0,"Same","flower",0,"",0,4793,"straightaheadlonger",-1,1,0,0,(Aug 12 2014 15:41:05),0,TRUE,FALSE,4,FALSE
"A1A1PSTVSSJKXV","Aug 12 2014","15:41:05",3,"Short","This","Zero",4,"Chrome",0,"Same","truck",1,"",0,1391,"straightaheadlonger",-1,1,0,0,(Aug 12 2014 15:41:05),0,TRUE,FALSE,4,FALSE
"A1A1PSTVSSJKXV","Aug 12 2014","15:41:05",4,"Short","This","Zero",4,"Chrome",0,"Same","truck",2,"",0,1547,"straightaheadlonger",-1,1,0,0,(Aug 12 2014 15:41:05),0,TRUE,FALSE,4,FALSE
"A1A1PSTVSSJKXV","Aug 12 2014","15:41:05",5,"Short","This","Zero",4,"Chrome",0,"Same","Novel34",1,"Novel34",1,7862,"RUkidslonger",3,0,1,0,(Aug 12 2014 15:41:05),0,TRUE,FALSE,4,TRUE
"A1A1PSTVSSJKXV","Aug 12 2014","15:41:05",6,"Short","This","Zero",4,"Chrome",0,"Same","Novel34",0,"Novel34",1,8319,"straightaheadlonger",-1,0,0,1,(Aug 12 2014 15:41:05),0,TRUE,TRUE,4,TRUE
"A1A1PSTVSSJKXV","Aug 12 2014","15:41:05",7,"Short","This","Zero",4,"Chrome",1,"Switch","Novel61",1,"Novel31",0,4397,"RUkidslonger",3,0,1,0,(Aug 12 2014 15:41:05),0,TRUE,FALSE,4,FALSE
"A1A1PSTVSSJKXV","Aug 12 2014","15:41:05",8,"Short","This","Zero",4,"Chrome",1,"Switch","Novel2",3,"Novel31",0,7306,"straightaheadlonger",-1,0,0,1,(Aug 12 2014 15:41:05),0,TRUE,FALSE,4,FALSE
"A1A1PSTVSSJKXV","Aug 12 2014","15:41:05",9,"Short","This","Zero",4,"Chrome",2,"Same","Novel40",3,"Novel40",3,6461,"RDkidslonger",2,0,1,0,(Aug 12 2014 15:41:05),0,TRUE,FALSE,4,TRUE
"A1A1PSTVSSJKXV","Aug 12 2014","15:41:05",10,"Short","This","Zero",4,"Chrome",2,"Same","Novel40",0,"Novel40",3,2348,"straightaheadlonger",-1,0,0,1,(Aug 12 2014 15:41:05),0,TRUE,FALSE,4,TRUE
"A1A1PSTVSSJKXV","Aug 12 2014","15:41:05",11,"Short","This","Zero",4,"Chrome",3,"Switch","Novel16",0,"Novel70",1,4045,"LUkidslonger",1,0,1,0,(Aug 12 2014 15:41:05),0,TRUE,FALSE,4,FALSE
"A1A1PSTVSSJKXV","Aug 12 2014","15:41:05",12,"Short","This","Zero",4,"Chrome",3,"Switch","Novel50",1,"Novel70",1,7484,"straightaheadlonger",-1,0,0,1,(Aug 12 2014 15:41:05),0,TRUE,FALSE,4,FALSE
"A1A1PSTVSSJKXV","Aug 12 2014","15:41:05",13,"Short","This","Zero",4,"Chrome",4,"Same","Novel64",0,"Novel64",0,5730,"LUkidslonger",1,0,1,0,(Aug 12 2014 15:41:05),0,TRUE,FALSE,4,TRUE
"A1A1PSTVSSJKXV","Aug 12 2014","15:41:05",14,"Short","This","Zero",4,"Chrome",4,"Same","Novel64",0,"Novel64",0,2743,"straightaheadlonger",-1,0,0,1,(Aug 12 2014 15:41:05),0,TRUE,FALSE,4,TRUE
"A1A1PSTVSSJKXV","Aug 12 2014","15:41:05",15,"Short","This","Zero",4,"Chrome",5,"Switch","Novel30",1,"Novel62",0,2497,"RUkidslonger",3,0,1,0,(Aug 12 2014 15:41:05),0,TRUE,FALSE,4,FALSE
"A1A1PSTVSSJKXV","Aug 12 2014","15:41:05",16,"Short","This","Zero",4,"Chrome",5,"Switch","Novel58",3,"Novel62",0,4841,"straightaheadlonger",-1,0,0,1,(Aug 12 2014 15:41:05),0,TRUE,FALSE,4,FALSE
"A1BQI9JKLVCIL0","Aug 12 2014","16:56:20",1,"Short","This","Zero",4,"Chrome",0,"Switch","flower",0,"",0,4647,"straightaheadlonger",-1,1,0,0,(Aug 12 2014 16:56:20),0,TRUE,FALSE,4,FALSE
"A1BQI9JKLVCIL0","Aug 12 2014","16:56:20",2,"Short","This","Zero",4,"Chrome",0,"Switch","flower",0,"",0,548,"straightaheadlonger",-1,1,0,0,(Aug 12 2014 16:56:20),0,TRUE,FALSE,4,FALSE
"A1BQI9JKLVCIL0","Aug 12 2014","16:56:20",3,"Short","This","Zero",4,"Chrome",0,"Switch","truck",1,"",0,255,"straightaheadlonger",-1,1,0,0,(Aug 12 2014 16:56:20),0,TRUE,FALSE,4,FALSE
"A1BQI9JKLVCIL0","Aug 12 2014","16:56:20",4,"Short","This","Zero",4,"Chrome",0,"Switch","truck",2,"",0,192,"straightaheadlonger",-1,1,0,0,(Aug 12 2014 16:56:20),0,TRUE,FALSE,4,FALSE
"A1BQI9JKLVCIL0","Aug 12 2014","16:56:20",5,"Short","This","Zero",4,"Chrome",0,"Switch","Novel117",0,"Novel78",2,639,"LUkidslonger",1,0,1,0,(Aug 12 2014 16:56:20),0,TRUE,FALSE,4,FALSE
"A1BQI9JKLVCIL0","Aug 12 2014","16:56:20",6,"Short","This","Zero",4,"Chrome",0,"Switch","Novel45",3,"Novel78",2,3709,"straightaheadlonger",-1,0,0,1,(Aug 12 2014 16:56:20),0,TRUE,TRUE,4,FALSE
"A1BQI9JKLVCIL0","Aug 12 2014","16:56:20",7,"Short","This","Zero",4,"Chrome",1,"Same","Novel97",0,"Novel97",0,447,"LUkidslonger",1,0,1,0,(Aug 12 2014 16:56:20),0,TRUE,FALSE,4,TRUE
"A1BQI9JKLVCIL0","Aug 12 2014","16:56:20",8,"Short","This","Zero",4,"Chrome",1,"Same","Novel97",1,"Novel97",0,521,"straightaheadlonger",-1,0,0,1,(Aug 12 2014 16:56:20),0,TRUE,FALSE,4,TRUE
"A1BQI9JKLVCIL0","Aug 12 2014","16:56:20",9,"Short","This","Zero",4,"Chrome",2,"Switch","Novel36",0,"Novel14",2,810,"LUkidslonger",1,0,1,0,(Aug 12 2014 16:56:20),0,TRUE,FALSE,4,FALSE
"A1BQI9JKLVCIL0","Aug 12 2014","16:56:20",10,"Short","This","Zero",4,"Chrome",2,"Switch","Novel101",1,"Novel14",2,9906,"straightaheadlonger",-1,0,0,1,(Aug 12 2014 16:56:20),0,TRUE,FALSE,4,FALSE
"A1BQI9JKLVCIL0","Aug 12 2014","16:56:20",11,"Short","This","Zero",4,"Chrome",3,"Same","Novel54",1,"Novel54",1,712,"RUkidslonger",3,0,1,0,(Aug 12 2014 16:56:20),0,TRUE,FALSE,4,TRUE
"A1BQI9JKLVCIL0","Aug 12 2014","16:56:20",12,"Short","This","Zero",4,"Chrome",3,"Same","Novel54",2,"Novel54",1,543,"straightaheadlonger",-1,0,0,1,(Aug 12 2014 16:56:20),0,TRUE,FALSE,4,TRUE
"A1BQI9JKLVCIL0","Aug 12 2014","16:56:20",13,"Short","This","Zero",4,"Chrome",4,"Switch","Novel1",0,"Novel90",1,490,"LUkidslonger",1,0,1,0,(Aug 12 2014 16:56:20),0,TRUE,FALSE,4,FALSE
"A1BQI9JKLVCIL0","Aug 12 2014","16:56:20",14,"Short","This","Zero",4,"Chrome",4,"Switch","Novel59",0,"Novel90",1,2286,"straightaheadlonger",-1,0,0,1,(Aug 12 2014 16:56:20),0,TRUE,FALSE,4,FALSE
"A1BQI9JKLVCIL0","Aug 12 2014","16:56:20",15,"Short","This","Zero",4,"Chrome",5,"Same","Novel93",1,"Novel93",1,232,"RUkidslonger",3,0,1,0,(Aug 12 2014 16:56:20),0,TRUE,FALSE,4,TRUE
"A1BQI9JKLVCIL0","Aug 12 2014","16:56:20",16,"Short","This","Zero",4,"Chrome",5,"Same","Novel93",1,"Novel93",1,429,"straightaheadlonger",-1,0,0,1,(Aug 12 2014 16:56:20),0,TRUE,FALSE,4,TRUE
"A1DC8M1858BRWU","Aug 12 2014","16:10:48",1,"Short","One","Zero",4,"Chrome",0,"Switch","flower",0,"",0,8942,"straightaheadlonger",-1,1,0,0,(Aug 12 2014 16:10:48),0,TRUE,FALSE,4,FALSE
"A1DC8M1858BRWU","Aug 12 2014","16:10:48",2,"Short","One","Zero",4,"Chrome",0,"Switch","flower",0,"",0,2719,"straightaheadlonger",-1,1,0,0,(Aug 12 2014 16:10:48),0,TRUE,FALSE,4,FALSE
"A1DC8M1858BRWU","Aug 12 2014","16:10:48",3,"Short","One","Zero",4,"Chrome",0,"Switch","truck",1,"",0,1320,"straightaheadlonger",-1,1,0,0,(Aug 12 2014 16:10:48),0,TRUE,FALSE,4,FALSE
"A1DC8M1858BRWU","Aug 12 2014","16:10:48",4,"Short","One","Zero",4,"Chrome",0,"Switch","truck",2,"",0,1816,"straightaheadlonger",-1,1,0,0,(Aug 12 2014 16:10:48),0,TRUE,FALSE,4,FALSE
"A1DC8M1858BRWU","Aug 12 2014","16:10:48",5,"Short","One","Zero",4,"Chrome",0,"Switch","Novel101",1,"Novel54",2,5874,"LUkidslonger",1,0,1,0,(Aug 12 2014 16:10:48),0,TRUE,FALSE,4,FALSE
"A1DC8M1858BRWU","Aug 12 2014","16:10:48",6,"Short","One","Zero",4,"Chrome",0,"Switch","Novel92",0,"Novel54",2,3908,"straightaheadlonger",-1,0,0,1,(Aug 12 2014 16:10:48),0,TRUE,TRUE,4,FALSE
"A1DC8M1858BRWU","Aug 12 2014","16:10:48",7,"Short","One","Zero",4,"Chrome",1,"Same","Novel108",2,"Novel108",2,2630,"RDkidslonger",2,0,1,0,(Aug 12 2014 16:10:48),0,TRUE,FALSE,4,TRUE
"A1DC8M1858BRWU","Aug 12 2014","16:10:48",8,"Short","One","Zero",4,"Chrome",1,"Same","Novel108",1,"Novel108",2,3334,"straightaheadlonger",-1,0,0,1,(Aug 12 2014 16:10:48),0,TRUE,FALSE,4,TRUE
"A1DC8M1858BRWU","Aug 12 2014","16:10:48",9,"Short","One","Zero",4,"Chrome",2,"Switch","Novel23",2,"Novel27",3,5088,"RUkidslonger",3,0,1,0,(Aug 12 2014 16:10:48),0,TRUE,FALSE,4,FALSE
"A1DC8M1858BRWU","Aug 12 2014","16:10:48",10,"Short","One","Zero",4,"Chrome",2,"Switch","Novel27",3,"Novel27",3,3083,"straightaheadlonger",-1,0,0,1,(Aug 12 2014 16:10:48),0,TRUE,FALSE,4,TRUE
"A1DC8M1858BRWU","Aug 12 2014","16:10:48",11,"Short","One","Zero",4,"Chrome",3,"Same","Novel136",2,"Novel136",2,3974,"RDkidslonger",2,0,1,0,(Aug 12 2014 16:10:48),0,TRUE,FALSE,4,TRUE
"A1DC8M1858BRWU","Aug 12 2014","16:10:48",12,"Short","One","Zero",4,"Chrome",3,"Same","Novel136",2,"Novel136",2,1811,"straightaheadlonger",-1,0,0,1,(Aug 12 2014 16:10:48),0,TRUE,FALSE,4,TRUE
"A1DC8M1858BRWU","Aug 12 2014","16:10:48",13,"Short","One","Zero",4,"Chrome",4,"Switch","Novel47",2,"Novel60",0,2415,"LUkidslonger",1,0,1,0,(Aug 12 2014 16:10:48),0,TRUE,FALSE,4,FALSE
"A1DC8M1858BRWU","Aug 12 2014","16:10:48",14,"Short","One","Zero",4,"Chrome",4,"Switch","Novel132",1,"Novel60",0,7745,"straightaheadlonger",-1,0,0,1,(Aug 12 2014 16:10:48),0,TRUE,FALSE,4,FALSE
"A1DC8M1858BRWU","Aug 12 2014","16:10:48",15,"Short","One","Zero",4,"Chrome",5,"Same","Novel4",1,"Novel4",1,2967,"LDkidslonger",0,0,1,0,(Aug 12 2014 16:10:48),0,TRUE,FALSE,4,TRUE
"A1DC8M1858BRWU","Aug 12 2014","16:10:48",16,"Short","One","Zero",4,"Chrome",5,"Same","Novel4",1,"Novel4",1,1588,"straightaheadlonger",-1,0,0,1,(Aug 12 2014 16:10:48),0,TRUE,FALSE,4,TRUE
"A1E5GKT1DK7QZ","Aug 12 2014","15:56:14",1,"Short","One","Zero",4,"Chrome",0,"Switch","flower",0,"",0,5798,"straightaheadlonger",-1,1,0,0,(Aug 12 2014 15:56:14),0,TRUE,FALSE,4,FALSE
"A1E5GKT1DK7QZ","Aug 12 2014","15:56:14",2,"Short","One","Zero",4,"Chrome",0,"Switch","flower",0,"",0,1544,"straightaheadlonger",-1,1,0,0,(Aug 12 2014 15:56:14),0,TRUE,FALSE,4,FALSE
"A1E5GKT1DK7QZ","Aug 12 2014","15:56:14",3,"Short","One","Zero",4,"Chrome",0,"Switch","truck",1,"",0,2159,"straightaheadlonger",-1,1,0,0,(Aug 12 2014 15:56:14),0,TRUE,FALSE,4,FALSE
"A1E5GKT1DK7QZ","Aug 12 2014","15:56:14",4,"Short","One","Zero",4,"Chrome",0,"Switch","truck",2,"",0,933,"straightaheadlonger",-1,1,0,0,(Aug 12 2014 15:56:14),0,TRUE,FALSE,4,FALSE
"A1E5GKT1DK7QZ","Aug 12 2014","15:56:14",5,"Short","One","Zero",4,"Chrome",0,"Switch","Novel21",3,"Novel44",0,3072,"RDkidslonger",2,0,1,0,(Aug 12 2014 15:56:14),0,TRUE,FALSE,4,FALSE
"A1E5GKT1DK7QZ","Aug 12 2014","15:56:14",6,"Short","One","Zero",4,"Chrome",0,"Switch","Novel44",0,"Novel44",0,5287,"straightaheadlonger",-1,0,0,1,(Aug 12 2014 15:56:14),0,TRUE,TRUE,4,TRUE
"A1E5GKT1DK7QZ","Aug 12 2014","15:56:14",7,"Short","One","Zero",4,"Chrome",1,"Same","Novel14",2,"Novel14",2,3045,"LDkidslonger",0,0,1,0,(Aug 12 2014 15:56:14),0,TRUE,FALSE,4,TRUE
"A1E5GKT1DK7QZ","Aug 12 2014","15:56:14",8,"Short","One","Zero",4,"Chrome",1,"Same","Novel14",2,"Novel14",2,652,"straightaheadlonger",-1,0,0,1,(Aug 12 2014 15:56:14),0,TRUE,FALSE,4,TRUE
"A1E5GKT1DK7QZ","Aug 12 2014","15:56:14",9,"Short","One","Zero",4,"Chrome",2,"Switch","Novel92",0,"Novel71",2,1284,"LUkidslonger",1,0,1,0,(Aug 12 2014 15:56:14),0,TRUE,FALSE,4,FALSE
"A1E5GKT1DK7QZ","Aug 12 2014","15:56:14",10,"Short","One","Zero",4,"Chrome",2,"Switch","Novel16",1,"Novel71",2,3894,"straightaheadlonger",-1,0,0,1,(Aug 12 2014 15:56:14),0,TRUE,FALSE,4,FALSE
"A1E5GKT1DK7QZ","Aug 12 2014","15:56:14",11,"Short","One","Zero",4,"Chrome",3,"Same","Novel63",0,"Novel63",0,1646,"LUkidslonger",1,0,1,0,(Aug 12 2014 15:56:14),0,TRUE,FALSE,4,TRUE
"A1E5GKT1DK7QZ","Aug 12 2014","15:56:14",12,"Short","One","Zero",4,"Chrome",3,"Same","Novel63",1,"Novel63",0,764,"straightaheadlonger",-1,0,0,1,(Aug 12 2014 15:56:14),0,TRUE,FALSE,4,TRUE
"A1E5GKT1DK7QZ","Aug 12 2014","15:56:14",13,"Short","One","Zero",4,"Chrome",4,"Switch","Novel132",3,"Novel127",2,1395,"RDkidslonger",2,0,1,0,(Aug 12 2014 15:56:14),0,TRUE,FALSE,4,FALSE
"A1E5GKT1DK7QZ","Aug 12 2014","15:56:14",14,"Short","One","Zero",4,"Chrome",4,"Switch","Novel127",2,"Novel127",2,2047,"straightaheadlonger",-1,0,0,1,(Aug 12 2014 15:56:14),0,TRUE,FALSE,4,TRUE
"A1E5GKT1DK7QZ","Aug 12 2014","15:56:14",15,"Short","One","Zero",4,"Chrome",5,"Same","Novel47",3,"Novel47",3,789,"RDkidslonger",2,0,1,0,(Aug 12 2014 15:56:14),0,TRUE,FALSE,4,TRUE
"A1E5GKT1DK7QZ","Aug 12 2014","15:56:14",16,"Short","One","Zero",4,"Chrome",5,"Same","Novel47",3,"Novel47",3,503,"straightaheadlonger",-1,0,0,1,(Aug 12 2014 15:56:14),0,TRUE,FALSE,4,TRUE
"A1GOJEDZM2CQTN","Aug 12 2014","15:43:03",1,"Short","One","Zero",4,"Chrome",0,"Same","flower",0,"",0,590,"straightaheadlonger",-1,1,0,0,(Aug 12 2014 15:43:03),0,TRUE,FALSE,4,FALSE
"A1GOJEDZM2CQTN","Aug 12 2014","15:43:03",2,"Short","One","Zero",4,"Chrome",0,"Same","flower",0,"",0,277,"straightaheadlonger",-1,1,0,0,(Aug 12 2014 15:43:03),0,TRUE,FALSE,4,FALSE
"A1GOJEDZM2CQTN","Aug 12 2014","15:43:03",3,"Short","One","Zero",4,"Chrome",0,"Same","truck",1,"",0,16,"straightaheadlonger",-1,1,0,0,(Aug 12 2014 15:43:03),0,TRUE,FALSE,4,FALSE
"A1GOJEDZM2CQTN","Aug 12 2014","15:43:03",4,"Short","One","Zero",4,"Chrome",0,"Same","truck",2,"",0,542,"straightaheadlonger",-1,1,0,0,(Aug 12 2014 15:43:03),0,TRUE,FALSE,4,FALSE
"A1GOJEDZM2CQTN","Aug 12 2014","15:43:03",5,"Short","One","Zero",4,"Chrome",0,"Same","Novel75",1,"Novel75",1,996,"LUkidslonger",1,0,1,0,(Aug 12 2014 15:43:03),0,TRUE,FALSE,4,TRUE
"A1GOJEDZM2CQTN","Aug 12 2014","15:43:03",6,"Short","One","Zero",4,"Chrome",0,"Same","Novel75",1,"Novel75",1,264,"straightaheadlonger",-1,0,0,1,(Aug 12 2014 15:43:03),0,TRUE,TRUE,4,TRUE
"A1GOJEDZM2CQTN","Aug 12 2014","15:43:03",7,"Short","One","Zero",4,"Chrome",1,"Switch","Novel135",0,"Novel41",2,1274,"LUkidslonger",1,0,1,0,(Aug 12 2014 15:43:03),0,TRUE,FALSE,4,FALSE
"A1GOJEDZM2CQTN","Aug 12 2014","15:43:03",8,"Short","One","Zero",4,"Chrome",1,"Switch","Novel41",0,"Novel41",2,1211,"straightaheadlonger",-1,0,0,1,(Aug 12 2014 15:43:03),0,TRUE,FALSE,4,TRUE
"A1GOJEDZM2CQTN","Aug 12 2014","15:43:03",9,"Short","One","Zero",4,"Chrome",2,"Same","Novel120",3,"Novel120",3,1334,"LUkidslonger",1,0,1,0,(Aug 12 2014 15:43:03),0,TRUE,FALSE,4,TRUE
"A1GOJEDZM2CQTN","Aug 12 2014","15:43:03",10,"Short","One","Zero",4,"Chrome",2,"Same","Novel120",2,"Novel120",3,197,"straightaheadlonger",-1,0,0,1,(Aug 12 2014 15:43:03),0,TRUE,FALSE,4,TRUE
"A1GOJEDZM2CQTN","Aug 12 2014","15:43:03",11,"Short","One","Zero",4,"Chrome",3,"Switch","Novel37",0,"Novel27",2,1254,"LUkidslonger",1,0,1,0,(Aug 12 2014 15:43:03),0,TRUE,FALSE,4,FALSE
"A1GOJEDZM2CQTN","Aug 12 2014","15:43:03",12,"Short","One","Zero",4,"Chrome",3,"Switch","Novel95",0,"Novel27",2,502,"straightaheadlonger",-1,0,0,1,(Aug 12 2014 15:43:03),0,TRUE,FALSE,4,FALSE
"A1GOJEDZM2CQTN","Aug 12 2014","15:43:03",13,"Short","One","Zero",4,"Chrome",4,"Same","Novel2",2,"Novel2",2,805,"LUkidslonger",1,0,1,0,(Aug 12 2014 15:43:03),0,TRUE,FALSE,4,TRUE
"A1GOJEDZM2CQTN","Aug 12 2014","15:43:03",14,"Short","One","Zero",4,"Chrome",4,"Same","Novel2",2,"Novel2",2,186,"straightaheadlonger",-1,0,0,1,(Aug 12 2014 15:43:03),0,TRUE,FALSE,4,TRUE
"A1GOJEDZM2CQTN","Aug 12 2014","15:43:03",15,"Short","One","Zero",4,"Chrome",5,"Switch","Novel25",3,"Novel126",0,1033,"RUkidslonger",3,0,1,0,(Aug 12 2014 15:43:03),0,TRUE,FALSE,4,FALSE
"A1GOJEDZM2CQTN","Aug 12 2014","15:43:03",16,"Short","One","Zero",4,"Chrome",5,"Switch","Novel28",2,"Novel126",0,461,"straightaheadlonger",-1,0,0,1,(Aug 12 2014 15:43:03),0,TRUE,FALSE,4,FALSE
"A1H6AZSS5DQ0KD","Aug 12 2014","15:44:58",1,"Short","This","Zero",4,"Firefox",0,"Switch","flower",0,"",0,1619,"straightaheadlonger",-1,1,0,0,(Aug 12 2014 15:44:58),0,TRUE,FALSE,4,FALSE
"A1H6AZSS5DQ0KD","Aug 12 2014","15:44:58",2,"Short","This","Zero",4,"Firefox",0,"Switch","flower",0,"",0,380,"straightaheadlonger",-1,1,0,0,(Aug 12 2014 15:44:58),0,TRUE,FALSE,4,FALSE
"A1H6AZSS5DQ0KD","Aug 12 2014","15:44:58",3,"Short","This","Zero",4,"Firefox",0,"Switch","truck",1,"",0,222,"straightaheadlonger",-1,1,0,0,(Aug 12 2014 15:44:58),0,TRUE,FALSE,4,FALSE
"A1H6AZSS5DQ0KD","Aug 12 2014","15:44:58",4,"Short","This","Zero",4,"Firefox",0,"Switch","truck",2,"",0,244,"straightaheadlonger",-1,1,0,0,(Aug 12 2014 15:44:58),0,TRUE,FALSE,4,FALSE
"A1H6AZSS5DQ0KD","Aug 12 2014","15:44:58",5,"Short","This","Zero",4,"Firefox",0,"Switch","Novel49",2,"Novel86",1,2895,"RUkidslonger",3,0,1,0,(Aug 12 2014 15:44:58),0,TRUE,FALSE,4,FALSE
"A1H6AZSS5DQ0KD","Aug 12 2014","15:44:58",6,"Short","This","Zero",4,"Firefox",0,"Switch","Novel127",0,"Novel86",1,1592,"straightaheadlonger",-1,0,0,1,(Aug 12 2014 15:44:58),0,TRUE,TRUE,4,FALSE
"A1H6AZSS5DQ0KD","Aug 12 2014","15:44:58",7,"Short","This","Zero",4,"Firefox",1,"Same","Novel76",1,"Novel76",1,4996,"LUkidslonger",1,0,1,0,(Aug 12 2014 15:44:58),0,TRUE,FALSE,4,TRUE
"A1H6AZSS5DQ0KD","Aug 12 2014","15:44:58",8,"Short","This","Zero",4,"Firefox",1,"Same","Novel21",0,"Novel76",1,2271,"straightaheadlonger",-1,0,0,1,(Aug 12 2014 15:44:58),0,TRUE,FALSE,4,FALSE
"A1H6AZSS5DQ0KD","Aug 12 2014","15:44:58",9,"Short","This","Zero",4,"Firefox",2,"Switch","Novel135",2,"Novel41",0,1680,"RDkidslonger",2,0,1,0,(Aug 12 2014 15:44:58),0,TRUE,FALSE,4,FALSE
"A1H6AZSS5DQ0KD","Aug 12 2014","15:44:58",10,"Short","This","Zero",4,"Firefox",2,"Switch","Novel104",0,"Novel41",0,598,"straightaheadlonger",-1,0,0,1,(Aug 12 2014 15:44:58),0,TRUE,FALSE,4,FALSE
"A1H6AZSS5DQ0KD","Aug 12 2014","15:44:58",11,"Short","This","Zero",4,"Firefox",3,"Same","Novel78",3,"Novel78",3,9680,"RDkidslonger",2,0,1,0,(Aug 12 2014 15:44:58),0,TRUE,FALSE,4,TRUE
"A1H6AZSS5DQ0KD","Aug 12 2014","15:44:58",12,"Short","This","Zero",4,"Firefox",3,"Same","Novel78",1,"Novel78",3,1575,"straightaheadlonger",-1,0,0,1,(Aug 12 2014 15:44:58),0,TRUE,FALSE,4,TRUE
"A1H6AZSS5DQ0KD","Aug 12 2014","15:44:58",13,"Short","This","Zero",4,"Firefox",4,"Switch","Novel11",2,"Novel56",0,6953,"RUkidslonger",3,0,1,0,(Aug 12 2014 15:44:58),0,TRUE,FALSE,4,FALSE
"A1H6AZSS5DQ0KD","Aug 12 2014","15:44:58",14,"Short","This","Zero",4,"Firefox",4,"Switch","Novel56",2,"Novel56",0,952,"straightaheadlonger",-1,0,0,1,(Aug 12 2014 15:44:58),0,TRUE,FALSE,4,TRUE
"A1H6AZSS5DQ0KD","Aug 12 2014","15:44:58",15,"Short","This","Zero",4,"Firefox",5,"Same","Novel27",0,"Novel27",0,10585,"LDkidslonger",0,0,1,0,(Aug 12 2014 15:44:58),0,TRUE,FALSE,4,TRUE
"A1H6AZSS5DQ0KD","Aug 12 2014","15:44:58",16,"Short","This","Zero",4,"Firefox",5,"Same","Novel27",0,"Novel27",0,622,"straightaheadlonger",-1,0,0,1,(Aug 12 2014 15:44:58),0,TRUE,FALSE,4,TRUE
"A1HVDXRUW9J0KZ","Aug 12 2014","16:26:05",1,"Short","One","Zero",4,"Chrome",0,"Switch","flower",0,"",0,7557,"straightaheadlonger",-1,1,0,0,(Aug 12 2014 16:26:05),0,TRUE,FALSE,4,FALSE
"A1HVDXRUW9J0KZ","Aug 12 2014","16:26:05",2,"Short","One","Zero",4,"Chrome",0,"Switch","flower",0,"",0,2585,"straightaheadlonger",-1,1,0,0,(Aug 12 2014 16:26:05),0,TRUE,FALSE,4,FALSE
"A1HVDXRUW9J0KZ","Aug 12 2014","16:26:05",3,"Short","One","Zero",4,"Chrome",0,"Switch","truck",1,"",0,3718,"straightaheadlonger",-1,1,0,0,(Aug 12 2014 16:26:05),0,TRUE,FALSE,4,FALSE
"A1HVDXRUW9J0KZ","Aug 12 2014","16:26:05",4,"Short","One","Zero",4,"Chrome",0,"Switch","truck",2,"",0,1272,"straightaheadlonger",-1,1,0,0,(Aug 12 2014 16:26:05),0,TRUE,FALSE,4,FALSE
"A1HVDXRUW9J0KZ","Aug 12 2014","16:26:05",5,"Short","One","Zero",4,"Chrome",0,"Switch","Novel15",1,"Novel108",2,2607,"RUkidslonger",3,0,1,0,(Aug 12 2014 16:26:05),0,TRUE,FALSE,4,FALSE
"A1HVDXRUW9J0KZ","Aug 12 2014","16:26:05",6,"Short","One","Zero",4,"Chrome",0,"Switch","Novel108",0,"Novel108",2,22972,"straightaheadlonger",-1,0,0,1,(Aug 12 2014 16:26:05),0,TRUE,TRUE,4,TRUE
"A1HVDXRUW9J0KZ","Aug 12 2014","16:26:05",7,"Short","One","Zero",4,"Chrome",1,"Same","Novel94",1,"Novel94",1,5270,"RUkidslonger",3,0,1,0,(Aug 12 2014 16:26:05),0,TRUE,FALSE,4,TRUE
"A1HVDXRUW9J0KZ","Aug 12 2014","16:26:05",8,"Short","One","Zero",4,"Chrome",1,"Same","Novel94",0,"Novel94",1,3915,"straightaheadlonger",-1,0,0,1,(Aug 12 2014 16:26:05),0,TRUE,FALSE,4,TRUE
"A1HVDXRUW9J0KZ","Aug 12 2014","16:26:05",9,"Short","One","Zero",4,"Chrome",2,"Switch","Novel87",2,"Novel45",3,2250,"LDkidslonger",0,0,1,0,(Aug 12 2014 16:26:05),0,TRUE,FALSE,4,FALSE
"A1HVDXRUW9J0KZ","Aug 12 2014","16:26:05",10,"Short","One","Zero",4,"Chrome",2,"Switch","Novel115",1,"Novel45",3,9606,"straightaheadlonger",-1,0,0,1,(Aug 12 2014 16:26:05),0,TRUE,FALSE,4,FALSE
"A1HVDXRUW9J0KZ","Aug 12 2014","16:26:05",11,"Short","One","Zero",4,"Chrome",3,"Same","Novel62",3,"Novel62",3,3577,"RDkidslonger",2,0,1,0,(Aug 12 2014 16:26:05),0,TRUE,FALSE,4,TRUE
"A1HVDXRUW9J0KZ","Aug 12 2014","16:26:05",12,"Short","One","Zero",4,"Chrome",3,"Same","Novel62",0,"Novel62",3,3090,"straightaheadlonger",-1,0,0,1,(Aug 12 2014 16:26:05),0,TRUE,FALSE,4,TRUE
"A1HVDXRUW9J0KZ","Aug 12 2014","16:26:05",13,"Short","One","Zero",4,"Chrome",4,"Switch","Novel138",2,"Novel47",3,3368,"LDkidslonger",0,0,1,0,(Aug 12 2014 16:26:05),0,TRUE,FALSE,4,FALSE
"A1HVDXRUW9J0KZ","Aug 12 2014","16:26:05",14,"Short","One","Zero",4,"Chrome",4,"Switch","Novel32",3,"Novel47",3,7902,"straightaheadlonger",-1,0,0,1,(Aug 12 2014 16:26:05),0,TRUE,FALSE,4,FALSE
"A1HVDXRUW9J0KZ","Aug 12 2014","16:26:05",15,"Short","One","Zero",4,"Chrome",5,"Same","Novel4",1,"Novel4",1,2801,"RUkidslonger",3,0,1,0,(Aug 12 2014 16:26:05),0,TRUE,FALSE,4,TRUE
"A1HVDXRUW9J0KZ","Aug 12 2014","16:26:05",16,"Short","One","Zero",4,"Chrome",5,"Same","Novel4",1,"Novel4",1,2940,"straightaheadlonger",-1,0,0,1,(Aug 12 2014 16:26:05),0,TRUE,FALSE,4,TRUE
"A1KFK92GEFQ9F5","Aug 12 2014","16:02:27",1,"Short","This","Zero",4,"Firefox",0,"Switch","flower",0,"",0,2881,"straightaheadlonger",-1,1,0,0,(Aug 12 2014 16:02:27),0,TRUE,FALSE,4,FALSE
"A1KFK92GEFQ9F5","Aug 12 2014","16:02:27",2,"Short","This","Zero",4,"Firefox",0,"Switch","flower",0,"",0,2271,"straightaheadlonger",-1,1,0,0,(Aug 12 2014 16:02:27),0,TRUE,FALSE,4,FALSE
"A1KFK92GEFQ9F5","Aug 12 2014","16:02:27",3,"Short","This","Zero",4,"Firefox",0,"Switch","truck",1,"",0,3697,"straightaheadlonger",-1,1,0,0,(Aug 12 2014 16:02:27),0,TRUE,FALSE,4,FALSE
"A1KFK92GEFQ9F5","Aug 12 2014","16:02:27",4,"Short","This","Zero",4,"Firefox",0,"Switch","truck",2,"",0,1609,"straightaheadlonger",-1,1,0,0,(Aug 12 2014 16:02:27),0,TRUE,FALSE,4,FALSE
"A1KFK92GEFQ9F5","Aug 12 2014","16:02:27",5,"Short","This","Zero",4,"Firefox",0,"Switch","Novel10",2,"Novel40",1,3454,"RDkidslonger",2,0,1,0,(Aug 12 2014 16:02:27),0,TRUE,FALSE,4,FALSE
"A1KFK92GEFQ9F5","Aug 12 2014","16:02:27",6,"Short","This","Zero",4,"Firefox",0,"Switch","Novel40",1,"Novel40",1,3495,"straightaheadlonger",-1,0,0,1,(Aug 12 2014 16:02:27),0,TRUE,TRUE,4,TRUE
"A1KFK92GEFQ9F5","Aug 12 2014","16:02:27",7,"Short","This","Zero",4,"Firefox",1,"Same","Novel97",3,"Novel97",3,3002,"RDkidslonger",2,0,1,0,(Aug 12 2014 16:02:27),0,TRUE,FALSE,4,TRUE
"A1KFK92GEFQ9F5","Aug 12 2014","16:02:27",8,"Short","This","Zero",4,"Firefox",1,"Same","Novel97",0,"Novel97",3,1260,"straightaheadlonger",-1,0,0,1,(Aug 12 2014 16:02:27),0,TRUE,FALSE,4,TRUE
"A1KFK92GEFQ9F5","Aug 12 2014","16:02:27",9,"Short","This","Zero",4,"Firefox",2,"Switch","Novel90",2,"Novel26",3,2776,"RDkidslonger",2,0,1,0,(Aug 12 2014 16:02:27),0,TRUE,FALSE,4,FALSE
"A1KFK92GEFQ9F5","Aug 12 2014","16:02:27",10,"Short","This","Zero",4,"Firefox",2,"Switch","Novel26",0,"Novel26",3,2959,"straightaheadlonger",-1,0,0,1,(Aug 12 2014 16:02:27),0,TRUE,FALSE,4,TRUE
"A1KFK92GEFQ9F5","Aug 12 2014","16:02:27",11,"Short","This","Zero",4,"Firefox",3,"Same","Novel30",1,"Novel30",1,4551,"RDkidslonger",2,0,1,0,(Aug 12 2014 16:02:27),0,TRUE,FALSE,4,TRUE
"A1KFK92GEFQ9F5","Aug 12 2014","16:02:27",12,"Short","This","Zero",4,"Firefox",3,"Same","Novel30",1,"Novel30",1,5178,"straightaheadlonger",-1,0,0,1,(Aug 12 2014 16:02:27),0,TRUE,FALSE,4,TRUE
"A1KFK92GEFQ9F5","Aug 12 2014","16:02:27",13,"Short","This","Zero",4,"Firefox",4,"Switch","Novel41",0,"Novel36",2,3037,"RDkidslonger",2,0,1,0,(Aug 12 2014 16:02:27),0,TRUE,FALSE,4,FALSE
"A1KFK92GEFQ9F5","Aug 12 2014","16:02:27",14,"Short","This","Zero",4,"Firefox",4,"Switch","Novel104",2,"Novel36",2,2130,"straightaheadlonger",-1,0,0,1,(Aug 12 2014 16:02:27),0,TRUE,FALSE,4,FALSE
"A1KFK92GEFQ9F5","Aug 12 2014","16:02:27",15,"Short","This","Zero",4,"Firefox",5,"Same","Novel33",3,"Novel33",3,1344,"LDkidslonger",0,0,1,0,(Aug 12 2014 16:02:27),0,TRUE,FALSE,4,TRUE
"A1KFK92GEFQ9F5","Aug 12 2014","16:02:27",16,"Short","This","Zero",4,"Firefox",5,"Same","Novel33",3,"Novel33",3,743,"straightaheadlonger",-1,0,0,1,(Aug 12 2014 16:02:27),0,TRUE,FALSE,4,TRUE
"A1LRJ2MQD4AMES","Aug 12 2014","15:39:00",1,"Short","This","Zero",4,"Firefox",0,"Switch","flower",0,"",0,978,"straightaheadlonger",-1,1,0,0,(Aug 12 2014 15:39:00),0,TRUE,FALSE,4,FALSE
"A1LRJ2MQD4AMES","Aug 12 2014","15:39:00",2,"Short","This","Zero",4,"Firefox",0,"Switch","flower",0,"",0,185,"straightaheadlonger",-1,1,0,0,(Aug 12 2014 15:39:00),0,TRUE,FALSE,4,FALSE
"A1LRJ2MQD4AMES","Aug 12 2014","15:39:00",3,"Short","This","Zero",4,"Firefox",0,"Switch","truck",1,"",0,225,"straightaheadlonger",-1,1,0,0,(Aug 12 2014 15:39:00),0,TRUE,FALSE,4,FALSE
"A1LRJ2MQD4AMES","Aug 12 2014","15:39:00",4,"Short","This","Zero",4,"Firefox",0,"Switch","truck",2,"",0,478,"straightaheadlonger",-1,1,0,0,(Aug 12 2014 15:39:00),0,TRUE,FALSE,4,FALSE
"A1LRJ2MQD4AMES","Aug 12 2014","15:39:00",5,"Short","This","Zero",4,"Firefox",0,"Switch","Novel90",1,"Novel82",0,1566,"LUkidslonger",1,0,1,0,(Aug 12 2014 15:39:00),0,TRUE,FALSE,4,FALSE
"A1LRJ2MQD4AMES","Aug 12 2014","15:39:00",6,"Short","This","Zero",4,"Firefox",0,"Switch","Novel121",2,"Novel82",0,2648,"straightaheadlonger",-1,0,0,1,(Aug 12 2014 15:39:00),0,TRUE,TRUE,4,FALSE
"A1LRJ2MQD4AMES","Aug 12 2014","15:39:00",7,"Short","This","Zero",4,"Firefox",1,"Same","Novel71",2,"Novel71",2,1526,"LDkidslonger",0,0,1,0,(Aug 12 2014 15:39:00),0,TRUE,FALSE,4,TRUE
"A1LRJ2MQD4AMES","Aug 12 2014","15:39:00",8,"Short","This","Zero",4,"Firefox",1,"Same","Novel71",2,"Novel71",2,667,"straightaheadlonger",-1,0,0,1,(Aug 12 2014 15:39:00),0,TRUE,FALSE,4,TRUE
"A1LRJ2MQD4AMES","Aug 12 2014","15:39:00",9,"Short","This","Zero",4,"Firefox",2,"Switch","Novel69",1,"Novel102",0,667,"LDkidslonger",0,0,1,0,(Aug 12 2014 15:39:00),0,TRUE,FALSE,4,FALSE
"A1LRJ2MQD4AMES","Aug 12 2014","15:39:00",10,"Short","This","Zero",4,"Firefox",2,"Switch","Novel102",2,"Novel102",0,766,"straightaheadlonger",-1,0,0,1,(Aug 12 2014 15:39:00),0,TRUE,FALSE,4,TRUE
"A1LRJ2MQD4AMES","Aug 12 2014","15:39:00",11,"Short","This","Zero",4,"Firefox",3,"Same","Novel130",3,"Novel130",3,369,"RUkidslonger",3,0,1,0,(Aug 12 2014 15:39:00),0,TRUE,FALSE,4,TRUE
"A1LRJ2MQD4AMES","Aug 12 2014","15:39:00",12,"Short","This","Zero",4,"Firefox",3,"Same","Novel130",2,"Novel130",3,659,"straightaheadlonger",-1,0,0,1,(Aug 12 2014 15:39:00),0,TRUE,FALSE,4,TRUE
"A1LRJ2MQD4AMES","Aug 12 2014","15:39:00",13,"Short","This","Zero",4,"Firefox",4,"Switch","Novel15",1,"Novel38",3,316,"RDkidslonger",2,0,1,0,(Aug 12 2014 15:39:00),0,TRUE,FALSE,4,FALSE
"A1LRJ2MQD4AMES","Aug 12 2014","15:39:00",14,"Short","This","Zero",4,"Firefox",4,"Switch","Novel38",0,"Novel38",3,1517,"straightaheadlonger",-1,0,0,1,(Aug 12 2014 15:39:00),0,TRUE,FALSE,4,TRUE
"A1LRJ2MQD4AMES","Aug 12 2014","15:39:00",15,"Short","This","Zero",4,"Firefox",5,"Same","Novel97",1,"Novel97",1,836,"LDkidslonger",0,0,1,0,(Aug 12 2014 15:39:00),0,TRUE,FALSE,4,TRUE
"A1LRJ2MQD4AMES","Aug 12 2014","15:39:00",16,"Short","This","Zero",4,"Firefox",5,"Same","Novel97",0,"Novel97",1,609,"straightaheadlonger",-1,0,0,1,(Aug 12 2014 15:39:00),0,TRUE,FALSE,4,TRUE
"A1M0D7YLLFO2CE","Aug 12 2014","15:38:24",1,"Short","This","Zero",4,"Chrome",0,"Switch","flower",0,"",0,1177,"straightaheadlonger",-1,1,0,0,(Aug 12 2014 15:38:24),0,TRUE,FALSE,4,FALSE
"A1M0D7YLLFO2CE","Aug 12 2014","15:38:24",2,"Short","This","Zero",4,"Chrome",0,"Switch","flower",0,"",0,146,"straightaheadlonger",-1,1,0,0,(Aug 12 2014 15:38:24),0,TRUE,FALSE,4,FALSE
"A1M0D7YLLFO2CE","Aug 12 2014","15:38:24",3,"Short","This","Zero",4,"Chrome",0,"Switch","truck",1,"",0,600,"straightaheadlonger",-1,1,0,0,(Aug 12 2014 15:38:24),0,TRUE,FALSE,4,FALSE
"A1M0D7YLLFO2CE","Aug 12 2014","15:38:24",4,"Short","This","Zero",4,"Chrome",0,"Switch","truck",2,"",0,296,"straightaheadlonger",-1,1,0,0,(Aug 12 2014 15:38:24),0,TRUE,FALSE,4,FALSE
"A1M0D7YLLFO2CE","Aug 12 2014","15:38:24",5,"Short","This","Zero",4,"Chrome",0,"Switch","Novel67",3,"Novel23",0,6170,"LDkidslonger",0,0,1,0,(Aug 12 2014 15:38:24),0,TRUE,FALSE,4,FALSE
"A1M0D7YLLFO2CE","Aug 12 2014","15:38:24",6,"Short","This","Zero",4,"Chrome",0,"Switch","Novel23",0,"Novel23",0,4624,"straightaheadlonger",-1,0,0,1,(Aug 12 2014 15:38:24),0,TRUE,TRUE,4,TRUE
"A1M0D7YLLFO2CE","Aug 12 2014","15:38:24",7,"Short","This","Zero",4,"Chrome",1,"Same","Novel8",1,"Novel8",1,5458,"LUkidslonger",1,0,1,0,(Aug 12 2014 15:38:24),0,TRUE,FALSE,4,TRUE
"A1M0D7YLLFO2CE","Aug 12 2014","15:38:24",8,"Short","This","Zero",4,"Chrome",1,"Same","Novel8",0,"Novel8",1,707,"straightaheadlonger",-1,0,0,1,(Aug 12 2014 15:38:24),0,TRUE,FALSE,4,TRUE
"A1M0D7YLLFO2CE","Aug 12 2014","15:38:24",9,"Short","This","Zero",4,"Chrome",2,"Switch","Novel79",1,"Novel60",2,15470,"LDkidslonger",0,0,1,0,(Aug 12 2014 15:38:24),0,TRUE,FALSE,4,FALSE
"A1M0D7YLLFO2CE","Aug 12 2014","15:38:24",10,"Short","This","Zero",4,"Chrome",2,"Switch","Novel60",1,"Novel60",2,785,"straightaheadlonger",-1,0,0,1,(Aug 12 2014 15:38:24),0,TRUE,FALSE,4,TRUE
"A1M0D7YLLFO2CE","Aug 12 2014","15:38:24",11,"Short","This","Zero",4,"Chrome",3,"Same","Novel136",3,"Novel136",3,5217,"RDkidslonger",2,0,1,0,(Aug 12 2014 15:38:24),0,TRUE,FALSE,4,TRUE
"A1M0D7YLLFO2CE","Aug 12 2014","15:38:24",12,"Short","This","Zero",4,"Chrome",3,"Same","Novel136",3,"Novel136",3,951,"straightaheadlonger",-1,0,0,1,(Aug 12 2014 15:38:24),0,TRUE,FALSE,4,TRUE
"A1M0D7YLLFO2CE","Aug 12 2014","15:38:24",13,"Short","This","Zero",4,"Chrome",4,"Switch","Novel69",2,"Novel74",0,9696,"RDkidslonger",2,0,1,0,(Aug 12 2014 15:38:24),0,TRUE,FALSE,4,FALSE
"A1M0D7YLLFO2CE","Aug 12 2014","15:38:24",14,"Short","This","Zero",4,"Chrome",4,"Switch","Novel74",2,"Novel74",0,387,"straightaheadlonger",-1,0,0,1,(Aug 12 2014 15:38:24),0,TRUE,FALSE,4,TRUE
"A1M0D7YLLFO2CE","Aug 12 2014","15:38:24",15,"Short","This","Zero",4,"Chrome",5,"Same","Novel25",0,"Novel25",0,4797,"LDkidslonger",0,0,1,0,(Aug 12 2014 15:38:24),0,TRUE,FALSE,4,TRUE
"A1M0D7YLLFO2CE","Aug 12 2014","15:38:24",16,"Short","This","Zero",4,"Chrome",5,"Same","Novel25",3,"Novel25",0,390,"straightaheadlonger",-1,0,0,1,(Aug 12 2014 15:38:24),0,TRUE,FALSE,4,TRUE
"A1MGP6RT6R6HS7","Aug 12 2014","16:24:16",1,"Short","One","Zero",4,"Chrome",0,"Same","flower",0,"",0,6036,"straightaheadlonger",-1,1,0,0,(Aug 12 2014 16:24:16),0,TRUE,FALSE,4,FALSE
"A1MGP6RT6R6HS7","Aug 12 2014","16:24:16",2,"Short","One","Zero",4,"Chrome",0,"Same","flower",0,"",0,2402,"straightaheadlonger",-1,1,0,0,(Aug 12 2014 16:24:16),0,TRUE,FALSE,4,FALSE
"A1MGP6RT6R6HS7","Aug 12 2014","16:24:16",3,"Short","One","Zero",4,"Chrome",0,"Same","truck",1,"",0,1016,"straightaheadlonger",-1,1,0,0,(Aug 12 2014 16:24:16),0,TRUE,FALSE,4,FALSE
"A1MGP6RT6R6HS7","Aug 12 2014","16:24:16",4,"Short","One","Zero",4,"Chrome",0,"Same","truck",2,"",0,1078,"straightaheadlonger",-1,1,0,0,(Aug 12 2014 16:24:16),0,TRUE,FALSE,4,FALSE
"A1MGP6RT6R6HS7","Aug 12 2014","16:24:16",5,"Short","One","Zero",4,"Chrome",0,"Same","Novel107",0,"Novel107",0,2283,"LUkidslonger",1,0,1,0,(Aug 12 2014 16:24:16),0,TRUE,FALSE,4,TRUE
"A1MGP6RT6R6HS7","Aug 12 2014","16:24:16",6,"Short","One","Zero",4,"Chrome",0,"Same","Novel107",0,"Novel107",0,3132,"straightaheadlonger",-1,0,0,1,(Aug 12 2014 16:24:16),0,TRUE,TRUE,4,TRUE
"A1MGP6RT6R6HS7","Aug 12 2014","16:24:16",7,"Short","One","Zero",4,"Chrome",1,"Switch","Novel53",1,"Novel98",3,2119,"RUkidslonger",3,0,1,0,(Aug 12 2014 16:24:16),0,TRUE,FALSE,4,FALSE
"A1MGP6RT6R6HS7","Aug 12 2014","16:24:16",8,"Short","One","Zero",4,"Chrome",1,"Switch","Novel98",3,"Novel98",3,1885,"straightaheadlonger",-1,0,0,1,(Aug 12 2014 16:24:16),0,TRUE,FALSE,4,TRUE
"A1MGP6RT6R6HS7","Aug 12 2014","16:24:16",9,"Short","One","Zero",4,"Chrome",2,"Same","Novel32",1,"Novel32",1,2839,"RUkidslonger",3,0,1,0,(Aug 12 2014 16:24:16),0,TRUE,FALSE,4,TRUE
"A1MGP6RT6R6HS7","Aug 12 2014","16:24:16",10,"Short","One","Zero",4,"Chrome",2,"Same","Novel32",2,"Novel32",1,918,"straightaheadlonger",-1,0,0,1,(Aug 12 2014 16:24:16),0,TRUE,FALSE,4,TRUE
"A1MGP6RT6R6HS7","Aug 12 2014","16:24:16",11,"Short","One","Zero",4,"Chrome",3,"Switch","Novel137",0,"Novel54",3,4297,"LUkidslonger",1,0,1,0,(Aug 12 2014 16:24:16),0,TRUE,FALSE,4,FALSE
"A1MGP6RT6R6HS7","Aug 12 2014","16:24:16",12,"Short","One","Zero",4,"Chrome",3,"Switch","Novel54",3,"Novel54",3,1033,"straightaheadlonger",-1,0,0,1,(Aug 12 2014 16:24:16),0,TRUE,FALSE,4,TRUE
"A1MGP6RT6R6HS7","Aug 12 2014","16:24:16",13,"Short","One","Zero",4,"Chrome",4,"Same","Novel125",0,"Novel125",0,1651,"LUkidslonger",1,0,1,0,(Aug 12 2014 16:24:16),0,TRUE,FALSE,4,TRUE
"A1MGP6RT6R6HS7","Aug 12 2014","16:24:16",14,"Short","One","Zero",4,"Chrome",4,"Same","Novel125",1,"Novel125",0,1038,"straightaheadlonger",-1,0,0,1,(Aug 12 2014 16:24:16),0,TRUE,FALSE,4,TRUE
"A1MGP6RT6R6HS7","Aug 12 2014","16:24:16",15,"Short","One","Zero",4,"Chrome",5,"Switch","Novel95",3,"Novel101",2,1982,"RDkidslonger",2,0,1,0,(Aug 12 2014 16:24:16),0,TRUE,FALSE,4,FALSE
"A1MGP6RT6R6HS7","Aug 12 2014","16:24:16",16,"Short","One","Zero",4,"Chrome",5,"Switch","Novel101",0,"Novel101",2,1067,"straightaheadlonger",-1,0,0,1,(Aug 12 2014 16:24:16),0,TRUE,FALSE,4,TRUE
"A1MT0NW38SFE9Q","Aug 12 2014","16:08:59",1,"Short","This","Zero",4,"Firefox",0,"Same","flower",0,"",0,5778,"straightaheadlonger",-1,1,0,0,(Aug 12 2014 16:08:59),0,TRUE,FALSE,4,FALSE
"A1MT0NW38SFE9Q","Aug 12 2014","16:08:59",2,"Short","This","Zero",4,"Firefox",0,"Same","flower",0,"",0,2328,"straightaheadlonger",-1,1,0,0,(Aug 12 2014 16:08:59),0,TRUE,FALSE,4,FALSE
"A1MT0NW38SFE9Q","Aug 12 2014","16:08:59",3,"Short","This","Zero",4,"Firefox",0,"Same","truck",1,"",0,935,"straightaheadlonger",-1,1,0,0,(Aug 12 2014 16:08:59),0,TRUE,FALSE,4,FALSE
"A1MT0NW38SFE9Q","Aug 12 2014","16:08:59",4,"Short","This","Zero",4,"Firefox",0,"Same","truck",2,"",0,897,"straightaheadlonger",-1,1,0,0,(Aug 12 2014 16:08:59),0,TRUE,FALSE,4,FALSE
"A1MT0NW38SFE9Q","Aug 12 2014","16:08:59",5,"Short","This","Zero",4,"Firefox",0,"Same","Novel62",0,"Novel62",0,3517,"RUkidslonger",3,0,1,0,(Aug 12 2014 16:08:59),0,TRUE,FALSE,4,TRUE
"A1MT0NW38SFE9Q","Aug 12 2014","16:08:59",6,"Short","This","Zero",4,"Firefox",0,"Same","Novel62",3,"Novel62",0,2826,"straightaheadlonger",-1,0,0,1,(Aug 12 2014 16:08:59),0,TRUE,TRUE,4,TRUE
"A1MT0NW38SFE9Q","Aug 12 2014","16:08:59",7,"Short","This","Zero",4,"Firefox",1,"Switch","Novel88",2,"Novel59",3,5300,"LUkidslonger",1,0,1,0,(Aug 12 2014 16:08:59),0,TRUE,FALSE,4,FALSE
"A1MT0NW38SFE9Q","Aug 12 2014","16:08:59",8,"Short","This","Zero",4,"Firefox",1,"Switch","Novel59",3,"Novel59",3,7582,"straightaheadlonger",-1,0,0,1,(Aug 12 2014 16:08:59),0,TRUE,FALSE,4,TRUE
"A1MT0NW38SFE9Q","Aug 12 2014","16:08:59",9,"Short","This","Zero",4,"Firefox",2,"Same","Novel19",1,"Novel19",1,2872,"RUkidslonger",3,0,1,0,(Aug 12 2014 16:08:59),0,TRUE,FALSE,4,TRUE
"A1MT0NW38SFE9Q","Aug 12 2014","16:08:59",10,"Short","This","Zero",4,"Firefox",2,"Same","Novel19",0,"Novel19",1,3074,"straightaheadlonger",-1,0,0,1,(Aug 12 2014 16:08:59),0,TRUE,FALSE,4,TRUE
"A1MT0NW38SFE9Q","Aug 12 2014","16:08:59",11,"Short","This","Zero",4,"Firefox",3,"Switch","Novel20",3,"Novel89",2,5342,"LDkidslonger",0,0,1,0,(Aug 12 2014 16:08:59),0,TRUE,FALSE,4,FALSE
"A1MT0NW38SFE9Q","Aug 12 2014","16:08:59",12,"Short","This","Zero",4,"Firefox",3,"Switch","Novel27",1,"Novel89",2,2227,"straightaheadlonger",-1,0,0,1,(Aug 12 2014 16:08:59),0,TRUE,FALSE,4,FALSE
"A1MT0NW38SFE9Q","Aug 12 2014","16:08:59",13,"Short","This","Zero",4,"Firefox",4,"Same","Novel136",1,"Novel136",1,5557,"RUkidslonger",3,0,1,0,(Aug 12 2014 16:08:59),0,TRUE,FALSE,4,TRUE
"A1MT0NW38SFE9Q","Aug 12 2014","16:08:59",14,"Short","This","Zero",4,"Firefox",4,"Same","Novel136",1,"Novel136",1,1437,"straightaheadlonger",-1,0,0,1,(Aug 12 2014 16:08:59),0,TRUE,FALSE,4,TRUE
"A1MT0NW38SFE9Q","Aug 12 2014","16:08:59",15,"Short","This","Zero",4,"Firefox",5,"Switch","Novel125",1,"Novel2",3,4847,"RDkidslonger",2,0,1,0,(Aug 12 2014 16:08:59),0,TRUE,FALSE,4,FALSE
"A1MT0NW38SFE9Q","Aug 12 2014","16:08:59",16,"Short","This","Zero",4,"Firefox",5,"Switch","Novel2",1,"Novel2",3,4022,"straightaheadlonger",-1,0,0,1,(Aug 12 2014 16:08:59),0,TRUE,FALSE,4,TRUE
"A1OP4BATW0TUUG","Aug 12 2014","15:53:11",1,"Short","This","Zero",4,"Firefox",0,"Same","flower",0,"",0,3390,"straightaheadlonger",-1,1,0,0,(Aug 12 2014 15:53:11),0,TRUE,FALSE,4,FALSE
"A1OP4BATW0TUUG","Aug 12 2014","15:53:11",2,"Short","This","Zero",4,"Firefox",0,"Same","flower",0,"",0,2756,"straightaheadlonger",-1,1,0,0,(Aug 12 2014 15:53:11),0,TRUE,FALSE,4,FALSE
"A1OP4BATW0TUUG","Aug 12 2014","15:53:11",3,"Short","This","Zero",4,"Firefox",0,"Same","truck",1,"",0,908,"straightaheadlonger",-1,1,0,0,(Aug 12 2014 15:53:11),0,TRUE,FALSE,4,FALSE
"A1OP4BATW0TUUG","Aug 12 2014","15:53:11",4,"Short","This","Zero",4,"Firefox",0,"Same","truck",2,"",0,804,"straightaheadlonger",-1,1,0,0,(Aug 12 2014 15:53:11),0,TRUE,FALSE,4,FALSE
"A1OP4BATW0TUUG","Aug 12 2014","15:53:11",5,"Short","This","Zero",4,"Firefox",0,"Same","Novel13",2,"Novel13",2,13007,"LUkidslonger",1,0,1,0,(Aug 12 2014 15:53:11),0,TRUE,FALSE,4,TRUE
"A1OP4BATW0TUUG","Aug 12 2014","15:53:11",6,"Short","This","Zero",4,"Firefox",0,"Same","Novel13",2,"Novel13",2,9507,"straightaheadlonger",-1,0,0,1,(Aug 12 2014 15:53:11),0,TRUE,TRUE,4,TRUE
"A1OP4BATW0TUUG","Aug 12 2014","15:53:11",7,"Short","This","Zero",4,"Firefox",1,"Switch","Novel8",2,"Novel18",0,7923,"RUkidslonger",3,0,1,0,(Aug 12 2014 15:53:11),0,TRUE,FALSE,4,FALSE
"A1OP4BATW0TUUG","Aug 12 2014","15:53:11",8,"Short","This","Zero",4,"Firefox",1,"Switch","Novel18",2,"Novel18",0,5001,"straightaheadlonger",-1,0,0,1,(Aug 12 2014 15:53:11),0,TRUE,FALSE,4,TRUE
"A1OP4BATW0TUUG","Aug 12 2014","15:53:11",9,"Short","This","Zero",4,"Firefox",2,"Same","Novel4",1,"Novel4",1,4459,"RDkidslonger",2,0,1,0,(Aug 12 2014 15:53:11),0,TRUE,FALSE,4,TRUE
"A1OP4BATW0TUUG","Aug 12 2014","15:53:11",10,"Short","This","Zero",4,"Firefox",2,"Same","Novel4",2,"Novel4",1,1485,"straightaheadlonger",-1,0,0,1,(Aug 12 2014 15:53:11),0,TRUE,FALSE,4,TRUE
"A1OP4BATW0TUUG","Aug 12 2014","15:53:11",11,"Short","This","Zero",4,"Firefox",3,"Switch","Novel3",2,"Novel25",1,5714,"LUkidslonger",1,0,1,0,(Aug 12 2014 15:53:11),0,TRUE,FALSE,4,FALSE
"A1OP4BATW0TUUG","Aug 12 2014","15:53:11",12,"Short","This","Zero",4,"Firefox",3,"Switch","Novel25",1,"Novel25",1,1038,"straightaheadlonger",-1,0,0,1,(Aug 12 2014 15:53:11),0,TRUE,FALSE,4,TRUE
"A1OP4BATW0TUUG","Aug 12 2014","15:53:11",13,"Short","This","Zero",4,"Firefox",4,"Same","Novel80",1,"Novel80",1,2543,"LUkidslonger",1,0,1,0,(Aug 12 2014 15:53:11),0,TRUE,FALSE,4,TRUE
"A1OP4BATW0TUUG","Aug 12 2014","15:53:11",14,"Short","This","Zero",4,"Firefox",4,"Same","Novel80",0,"Novel80",1,2034,"straightaheadlonger",-1,0,0,1,(Aug 12 2014 15:53:11),0,TRUE,FALSE,4,TRUE
"A1OP4BATW0TUUG","Aug 12 2014","15:53:11",15,"Short","This","Zero",4,"Firefox",5,"Switch","Novel95",1,"Novel104",3,5785,"LDkidslonger",0,0,1,0,(Aug 12 2014 15:53:11),0,TRUE,FALSE,4,FALSE
"A1OP4BATW0TUUG","Aug 12 2014","15:53:11",16,"Short","This","Zero",4,"Firefox",5,"Switch","Novel104",2,"Novel104",3,2130,"straightaheadlonger",-1,0,0,1,(Aug 12 2014 15:53:11),0,TRUE,FALSE,4,TRUE
"A1R2IDERM4ZS0Y","Aug 12 2014","16:01:58",1,"Short","This","Zero",4,"Mozilla",0,"Same","flower",0,"",0,1323,"straightaheadlonger",-1,1,0,0,(Aug 12 2014 16:01:58),0,TRUE,FALSE,4,FALSE
"A1R2IDERM4ZS0Y","Aug 12 2014","16:01:58",2,"Short","This","Zero",4,"Mozilla",0,"Same","flower",0,"",0,552,"straightaheadlonger",-1,1,0,0,(Aug 12 2014 16:01:58),0,TRUE,FALSE,4,FALSE
"A1R2IDERM4ZS0Y","Aug 12 2014","16:01:58",3,"Short","This","Zero",4,"Mozilla",0,"Same","truck",1,"",0,616,"straightaheadlonger",-1,1,0,0,(Aug 12 2014 16:01:58),0,TRUE,FALSE,4,FALSE
"A1R2IDERM4ZS0Y","Aug 12 2014","16:01:58",4,"Short","This","Zero",4,"Mozilla",0,"Same","truck",2,"",0,306,"straightaheadlonger",-1,1,0,0,(Aug 12 2014 16:01:58),0,TRUE,FALSE,4,FALSE
"A1R2IDERM4ZS0Y","Aug 12 2014","16:01:58",5,"Short","This","Zero",4,"Mozilla",0,"Same","Novel4",2,"Novel4",2,4810,"RUkidslonger",3,0,1,0,(Aug 12 2014 16:01:58),0,TRUE,FALSE,4,TRUE
"A1R2IDERM4ZS0Y","Aug 12 2014","16:01:58",6,"Short","This","Zero",4,"Mozilla",0,"Same","Novel4",3,"Novel4",2,3004,"straightaheadlonger",-1,0,0,1,(Aug 12 2014 16:01:58),0,TRUE,TRUE,4,TRUE
"A1R2IDERM4ZS0Y","Aug 12 2014","16:01:58",7,"Short","This","Zero",4,"Mozilla",1,"Switch","Novel3",3,"Novel135",0,9114,"RDkidslonger",2,0,1,0,(Aug 12 2014 16:01:58),0,TRUE,FALSE,4,FALSE
"A1R2IDERM4ZS0Y","Aug 12 2014","16:01:58",8,"Short","This","Zero",4,"Mozilla",1,"Switch","Novel82",3,"Novel135",0,4073,"straightaheadlonger",-1,0,0,1,(Aug 12 2014 16:01:58),0,TRUE,FALSE,4,FALSE
"A1R2IDERM4ZS0Y","Aug 12 2014","16:01:58",9,"Short","This","Zero",4,"Mozilla",2,"Same","Novel115",2,"Novel115",2,4853,"LUkidslonger",1,0,1,0,(Aug 12 2014 16:01:58),0,TRUE,FALSE,4,TRUE
"A1R2IDERM4ZS0Y","Aug 12 2014","16:01:58",10,"Short","This","Zero",4,"Mozilla",2,"Same","Novel115",2,"Novel115",2,483,"straightaheadlonger",-1,0,0,1,(Aug 12 2014 16:01:58),0,TRUE,FALSE,4,TRUE
"A1R2IDERM4ZS0Y","Aug 12 2014","16:01:58",11,"Short","This","Zero",4,"Mozilla",3,"Switch","Novel40",2,"Novel124",3,11691,"LUkidslonger",1,0,1,0,(Aug 12 2014 16:01:58),0,TRUE,FALSE,4,FALSE
"A1R2IDERM4ZS0Y","Aug 12 2014","16:01:58",12,"Short","This","Zero",4,"Mozilla",3,"Switch","Novel124",0,"Novel124",3,5599,"straightaheadlonger",-1,0,0,1,(Aug 12 2014 16:01:58),0,TRUE,FALSE,4,TRUE
"A1R2IDERM4ZS0Y","Aug 12 2014","16:01:58",13,"Short","This","Zero",4,"Mozilla",4,"Same","Novel75",3,"Novel75",3,3851,"LUkidslonger",1,0,1,0,(Aug 12 2014 16:01:58),0,TRUE,FALSE,4,TRUE
"A1R2IDERM4ZS0Y","Aug 12 2014","16:01:58",14,"Short","This","Zero",4,"Mozilla",4,"Same","Novel75",3,"Novel75",3,512,"straightaheadlonger",-1,0,0,1,(Aug 12 2014 16:01:58),0,TRUE,FALSE,4,TRUE
"A1R2IDERM4ZS0Y","Aug 12 2014","16:01:58",15,"Short","This","Zero",4,"Mozilla",5,"Switch","Novel123",3,"Novel69",0,6538,"LUkidslonger",1,0,1,0,(Aug 12 2014 16:01:58),0,TRUE,FALSE,4,FALSE
"A1R2IDERM4ZS0Y","Aug 12 2014","16:01:58",16,"Short","This","Zero",4,"Mozilla",5,"Switch","Novel131",1,"Novel69",0,4773,"straightaheadlonger",-1,0,0,1,(Aug 12 2014 16:01:58),0,TRUE,FALSE,4,FALSE
"A1R2W9OYQQRZTS","Aug 12 2014","15:58:00",1,"Short","One","Zero",4,"Chrome",0,"Switch","flower",0,"",0,1883,"straightaheadlonger",-1,1,0,0,(Aug 12 2014 15:58:00),0,TRUE,FALSE,4,FALSE
"A1R2W9OYQQRZTS","Aug 12 2014","15:58:00",2,"Short","One","Zero",4,"Chrome",0,"Switch","flower",0,"",0,272,"straightaheadlonger",-1,1,0,0,(Aug 12 2014 15:58:00),0,TRUE,FALSE,4,FALSE
"A1R2W9OYQQRZTS","Aug 12 2014","15:58:00",3,"Short","One","Zero",4,"Chrome",0,"Switch","truck",1,"",0,261,"straightaheadlonger",-1,1,0,0,(Aug 12 2014 15:58:00),0,TRUE,FALSE,4,FALSE
"A1R2W9OYQQRZTS","Aug 12 2014","15:58:00",4,"Short","One","Zero",4,"Chrome",0,"Switch","truck",2,"",0,1083,"straightaheadlonger",-1,1,0,0,(Aug 12 2014 15:58:00),0,TRUE,FALSE,4,FALSE
"A1R2W9OYQQRZTS","Aug 12 2014","15:58:00",5,"Short","One","Zero",4,"Chrome",0,"Switch","Novel20",3,"Novel128",1,6645,"RDkidslonger",2,0,1,0,(Aug 12 2014 15:58:00),0,TRUE,FALSE,4,FALSE
"A1R2W9OYQQRZTS","Aug 12 2014","15:58:00",6,"Short","One","Zero",4,"Chrome",0,"Switch","Novel128",1,"Novel128",1,2062,"straightaheadlonger",-1,0,0,1,(Aug 12 2014 15:58:00),0,TRUE,TRUE,4,TRUE
"A1R2W9OYQQRZTS","Aug 12 2014","15:58:00",7,"Short","One","Zero",4,"Chrome",1,"Same","Novel32",2,"Novel32",2,1278,"RDkidslonger",2,0,1,0,(Aug 12 2014 15:58:00),0,TRUE,FALSE,4,TRUE
"A1R2W9OYQQRZTS","Aug 12 2014","15:58:00",8,"Short","One","Zero",4,"Chrome",1,"Same","Novel32",1,"Novel32",2,391,"straightaheadlonger",-1,0,0,1,(Aug 12 2014 15:58:00),0,TRUE,FALSE,4,TRUE
"A1R2W9OYQQRZTS","Aug 12 2014","15:58:00",9,"Short","One","Zero",4,"Chrome",2,"Switch","Novel114",2,"Novel120",3,1107,"LUkidslonger",1,0,1,0,(Aug 12 2014 15:58:00),0,TRUE,FALSE,4,FALSE
"A1R2W9OYQQRZTS","Aug 12 2014","15:58:00",10,"Short","One","Zero",4,"Chrome",2,"Switch","Novel120",2,"Novel120",3,695,"straightaheadlonger",-1,0,0,1,(Aug 12 2014 15:58:00),0,TRUE,FALSE,4,TRUE
"A1R2W9OYQQRZTS","Aug 12 2014","15:58:00",11,"Short","One","Zero",4,"Chrome",3,"Same","Novel23",0,"Novel23",0,2188,"RUkidslonger",3,0,1,0,(Aug 12 2014 15:58:00),0,TRUE,FALSE,4,TRUE
"A1R2W9OYQQRZTS","Aug 12 2014","15:58:00",12,"Short","One","Zero",4,"Chrome",3,"Same","Novel23",1,"Novel23",0,729,"straightaheadlonger",-1,0,0,1,(Aug 12 2014 15:58:00),0,TRUE,FALSE,4,TRUE
"A1R2W9OYQQRZTS","Aug 12 2014","15:58:00",13,"Short","One","Zero",4,"Chrome",4,"Switch","Novel130",1,"Novel102",0,1668,"RUkidslonger",3,0,1,0,(Aug 12 2014 15:58:00),0,TRUE,FALSE,4,FALSE
"A1R2W9OYQQRZTS","Aug 12 2014","15:58:00",14,"Short","One","Zero",4,"Chrome",4,"Switch","Novel102",0,"Novel102",0,473,"straightaheadlonger",-1,0,0,1,(Aug 12 2014 15:58:00),0,TRUE,FALSE,4,TRUE
"A1R2W9OYQQRZTS","Aug 12 2014","15:58:00",15,"Short","One","Zero",4,"Chrome",5,"Same","Novel115",3,"Novel115",3,1852,"LDkidslonger",0,0,1,0,(Aug 12 2014 15:58:00),0,TRUE,FALSE,4,TRUE
"A1R2W9OYQQRZTS","Aug 12 2014","15:58:00",16,"Short","One","Zero",4,"Chrome",5,"Same","Novel115",3,"Novel115",3,744,"straightaheadlonger",-1,0,0,1,(Aug 12 2014 15:58:00),0,TRUE,FALSE,4,TRUE
"A1UUNYHX3M8O3O","Aug 12 2014","16:01:04",1,"Short","This","Zero",4,"Firefox",0,"Switch","flower",0,"",0,1165,"straightaheadlonger",-1,1,0,0,(Aug 12 2014 16:01:04),0,TRUE,FALSE,4,FALSE
"A1UUNYHX3M8O3O","Aug 12 2014","16:01:04",2,"Short","This","Zero",4,"Firefox",0,"Switch","flower",0,"",0,541,"straightaheadlonger",-1,1,0,0,(Aug 12 2014 16:01:04),0,TRUE,FALSE,4,FALSE
"A1UUNYHX3M8O3O","Aug 12 2014","16:01:04",3,"Short","This","Zero",4,"Firefox",0,"Switch","truck",1,"",0,832,"straightaheadlonger",-1,1,0,0,(Aug 12 2014 16:01:04),0,TRUE,FALSE,4,FALSE
"A1UUNYHX3M8O3O","Aug 12 2014","16:01:04",4,"Short","This","Zero",4,"Firefox",0,"Switch","truck",2,"",0,615,"straightaheadlonger",-1,1,0,0,(Aug 12 2014 16:01:04),0,TRUE,FALSE,4,FALSE
"A1UUNYHX3M8O3O","Aug 12 2014","16:01:04",5,"Short","This","Zero",4,"Firefox",0,"Switch","Novel58",2,"Novel92",1,2394,"RDkidslonger",2,0,1,0,(Aug 12 2014 16:01:04),0,TRUE,FALSE,4,FALSE
"A1UUNYHX3M8O3O","Aug 12 2014","16:01:04",6,"Short","This","Zero",4,"Firefox",0,"Switch","Novel92",1,"Novel92",1,3449,"straightaheadlonger",-1,0,0,1,(Aug 12 2014 16:01:04),0,TRUE,TRUE,4,TRUE
"A1UUNYHX3M8O3O","Aug 12 2014","16:01:04",7,"Short","This","Zero",4,"Firefox",1,"Same","Novel126",2,"Novel126",2,2288,"LUkidslonger",1,0,1,0,(Aug 12 2014 16:01:04),0,TRUE,FALSE,4,TRUE
"A1UUNYHX3M8O3O","Aug 12 2014","16:01:04",8,"Short","This","Zero",4,"Firefox",1,"Same","Novel126",2,"Novel126",2,634,"straightaheadlonger",-1,0,0,1,(Aug 12 2014 16:01:04),0,TRUE,FALSE,4,TRUE
"A1UUNYHX3M8O3O","Aug 12 2014","16:01:04",9,"Short","This","Zero",4,"Firefox",2,"Switch","Novel125",0,"Novel109",1,1762,"RUkidslonger",3,0,1,0,(Aug 12 2014 16:01:04),0,TRUE,FALSE,4,FALSE
"A1UUNYHX3M8O3O","Aug 12 2014","16:01:04",10,"Short","This","Zero",4,"Firefox",2,"Switch","Novel131",0,"Novel109",1,542,"straightaheadlonger",-1,0,0,1,(Aug 12 2014 16:01:04),0,TRUE,FALSE,4,FALSE
"A1UUNYHX3M8O3O","Aug 12 2014","16:01:04",11,"Short","This","Zero",4,"Firefox",3,"Same","Novel104",3,"Novel104",3,904,"LDkidslonger",0,0,1,0,(Aug 12 2014 16:01:04),0,TRUE,FALSE,4,TRUE
"A1UUNYHX3M8O3O","Aug 12 2014","16:01:04",12,"Short","This","Zero",4,"Firefox",3,"Same","Novel104",1,"Novel104",3,1302,"straightaheadlonger",-1,0,0,1,(Aug 12 2014 16:01:04),0,TRUE,FALSE,4,TRUE
"A1UUNYHX3M8O3O","Aug 12 2014","16:01:04",13,"Short","This","Zero",4,"Firefox",4,"Switch","Novel77",2,"Novel101",3,1320,"LUkidslonger",1,0,1,0,(Aug 12 2014 16:01:04),0,TRUE,FALSE,4,FALSE
"A1UUNYHX3M8O3O","Aug 12 2014","16:01:04",14,"Short","This","Zero",4,"Firefox",4,"Switch","Novel36",3,"Novel101",3,538,"straightaheadlonger",-1,0,0,1,(Aug 12 2014 16:01:04),0,TRUE,FALSE,4,FALSE
"A1UUNYHX3M8O3O","Aug 12 2014","16:01:04",15,"Short","This","Zero",4,"Firefox",5,"Same","Novel102",1,"Novel102",1,578,"LDkidslonger",0,0,1,0,(Aug 12 2014 16:01:04),0,TRUE,FALSE,4,TRUE
"A1UUNYHX3M8O3O","Aug 12 2014","16:01:04",16,"Short","This","Zero",4,"Firefox",5,"Same","Novel102",1,"Novel102",1,449,"straightaheadlonger",-1,0,0,1,(Aug 12 2014 16:01:04),0,TRUE,FALSE,4,TRUE
"A1V5DPNTC9JZZ0","Aug 12 2014","16:00:29",1,"Short","This","Zero",4,"Chrome",0,"Same","flower",0,"",0,4637,"straightaheadlonger",-1,1,0,0,(Aug 12 2014 16:00:29),0,TRUE,FALSE,4,FALSE
"A1V5DPNTC9JZZ0","Aug 12 2014","16:00:29",2,"Short","This","Zero",4,"Chrome",0,"Same","flower",0,"",0,1352,"straightaheadlonger",-1,1,0,0,(Aug 12 2014 16:00:29),0,TRUE,FALSE,4,FALSE
"A1V5DPNTC9JZZ0","Aug 12 2014","16:00:29",3,"Short","This","Zero",4,"Chrome",0,"Same","truck",1,"",0,673,"straightaheadlonger",-1,1,0,0,(Aug 12 2014 16:00:29),0,TRUE,FALSE,4,FALSE
"A1V5DPNTC9JZZ0","Aug 12 2014","16:00:29",4,"Short","This","Zero",4,"Chrome",0,"Same","truck",2,"",0,455,"straightaheadlonger",-1,1,0,0,(Aug 12 2014 16:00:29),0,TRUE,FALSE,4,FALSE
"A1V5DPNTC9JZZ0","Aug 12 2014","16:00:29",5,"Short","This","Zero",4,"Chrome",0,"Same","Novel89",0,"Novel89",0,2436,"RDkidslonger",2,0,1,0,(Aug 12 2014 16:00:29),0,TRUE,FALSE,4,TRUE
"A1V5DPNTC9JZZ0","Aug 12 2014","16:00:29",6,"Short","This","Zero",4,"Chrome",0,"Same","Novel89",3,"Novel89",0,1174,"straightaheadlonger",-1,0,0,1,(Aug 12 2014 16:00:29),0,TRUE,TRUE,4,TRUE
"A1V5DPNTC9JZZ0","Aug 12 2014","16:00:29",7,"Short","This","Zero",4,"Chrome",1,"Switch","Novel115",1,"Novel109",2,3246,"RUkidslonger",3,0,1,0,(Aug 12 2014 16:00:29),0,TRUE,FALSE,4,FALSE
"A1V5DPNTC9JZZ0","Aug 12 2014","16:00:29",8,"Short","This","Zero",4,"Chrome",1,"Switch","Novel17",0,"Novel109",2,3308,"straightaheadlonger",-1,0,0,1,(Aug 12 2014 16:00:29),0,TRUE,FALSE,4,FALSE
"A1V5DPNTC9JZZ0","Aug 12 2014","16:00:29",9,"Short","This","Zero",4,"Chrome",2,"Same","Novel126",3,"Novel126",3,4202,"RUkidslonger",3,0,1,0,(Aug 12 2014 16:00:29),0,TRUE,FALSE,4,TRUE
"A1V5DPNTC9JZZ0","Aug 12 2014","16:00:29",10,"Short","This","Zero",4,"Chrome",2,"Same","Novel126",0,"Novel126",3,724,"straightaheadlonger",-1,0,0,1,(Aug 12 2014 16:00:29),0,TRUE,FALSE,4,TRUE
"A1V5DPNTC9JZZ0","Aug 12 2014","16:00:29",11,"Short","This","Zero",4,"Chrome",3,"Switch","Novel97",2,"Novel125",3,20448,"RDkidslonger",2,0,1,0,(Aug 12 2014 16:00:29),0,TRUE,FALSE,4,FALSE
"A1V5DPNTC9JZZ0","Aug 12 2014","16:00:29",12,"Short","This","Zero",4,"Chrome",3,"Switch","Novel38",1,"Novel125",3,4950,"straightaheadlonger",-1,0,0,1,(Aug 12 2014 16:00:29),0,TRUE,FALSE,4,FALSE
"A1V5DPNTC9JZZ0","Aug 12 2014","16:00:29",13,"Short","This","Zero",4,"Chrome",4,"Same","Novel133",2,"Novel133",2,3479,"RDkidslonger",2,0,1,0,(Aug 12 2014 16:00:29),0,TRUE,FALSE,4,TRUE
"A1V5DPNTC9JZZ0","Aug 12 2014","16:00:29",14,"Short","This","Zero",4,"Chrome",4,"Same","Novel133",2,"Novel133",2,571,"straightaheadlonger",-1,0,0,1,(Aug 12 2014 16:00:29),0,TRUE,FALSE,4,TRUE
"A1V5DPNTC9JZZ0","Aug 12 2014","16:00:29",15,"Short","This","Zero",4,"Chrome",5,"Switch","Novel20",1,"Novel51",0,2553,"LUkidslonger",1,0,1,0,(Aug 12 2014 16:00:29),0,TRUE,FALSE,4,FALSE
"A1V5DPNTC9JZZ0","Aug 12 2014","16:00:29",16,"Short","This","Zero",4,"Chrome",5,"Switch","Novel100",1,"Novel51",0,5883,"straightaheadlonger",-1,0,0,1,(Aug 12 2014 16:00:29),0,TRUE,FALSE,4,FALSE
"A1YH2I4Y2SYAXJ","Aug 12 2014","16:09:54",1,"Short","One","Zero",4,"Chrome",0,"Switch","flower",0,"",0,1599,"straightaheadlonger",-1,1,0,0,(Aug 12 2014 16:09:54),0,TRUE,FALSE,4,FALSE
"A1YH2I4Y2SYAXJ","Aug 12 2014","16:09:54",2,"Short","One","Zero",4,"Chrome",0,"Switch","flower",0,"",0,845,"straightaheadlonger",-1,1,0,0,(Aug 12 2014 16:09:54),0,TRUE,FALSE,4,FALSE
"A1YH2I4Y2SYAXJ","Aug 12 2014","16:09:54",3,"Short","One","Zero",4,"Chrome",0,"Switch","truck",1,"",0,521,"straightaheadlonger",-1,1,0,0,(Aug 12 2014 16:09:54),0,TRUE,FALSE,4,FALSE
"A1YH2I4Y2SYAXJ","Aug 12 2014","16:09:54",4,"Short","One","Zero",4,"Chrome",0,"Switch","truck",2,"",0,656,"straightaheadlonger",-1,1,0,0,(Aug 12 2014 16:09:54),0,TRUE,FALSE,4,FALSE
"A1YH2I4Y2SYAXJ","Aug 12 2014","16:09:54",5,"Short","One","Zero",4,"Chrome",0,"Switch","Novel20",0,"Novel66",3,3806,"LUkidslonger",1,0,1,0,(Aug 12 2014 16:09:54),0,TRUE,FALSE,4,FALSE
"A1YH2I4Y2SYAXJ","Aug 12 2014","16:09:54",6,"Short","One","Zero",4,"Chrome",0,"Switch","Novel66",3,"Novel66",3,5866,"straightaheadlonger",-1,0,0,1,(Aug 12 2014 16:09:54),0,TRUE,TRUE,4,TRUE
"A1YH2I4Y2SYAXJ","Aug 12 2014","16:09:54",7,"Short","One","Zero",4,"Chrome",1,"Same","Novel46",1,"Novel46",1,4161,"LDkidslonger",0,0,1,0,(Aug 12 2014 16:09:54),0,TRUE,FALSE,4,TRUE
"A1YH2I4Y2SYAXJ","Aug 12 2014","16:09:54",8,"Short","One","Zero",4,"Chrome",1,"Same","Novel46",3,"Novel46",1,1153,"straightaheadlonger",-1,0,0,1,(Aug 12 2014 16:09:54),0,TRUE,FALSE,4,TRUE
"A1YH2I4Y2SYAXJ","Aug 12 2014","16:09:54",9,"Short","One","Zero",4,"Chrome",2,"Switch","Novel110",1,"Novel82",2,7599,"RDkidslonger",2,0,1,0,(Aug 12 2014 16:09:54),0,TRUE,FALSE,4,FALSE
"A1YH2I4Y2SYAXJ","Aug 12 2014","16:09:54",10,"Short","One","Zero",4,"Chrome",2,"Switch","Novel82",2,"Novel82",2,556,"straightaheadlonger",-1,0,0,1,(Aug 12 2014 16:09:54),0,TRUE,FALSE,4,TRUE
"A1YH2I4Y2SYAXJ","Aug 12 2014","16:09:54",11,"Short","One","Zero",4,"Chrome",3,"Same","Novel9",3,"Novel9",3,3219,"RUkidslonger",3,0,1,0,(Aug 12 2014 16:09:54),0,TRUE,FALSE,4,TRUE
"A1YH2I4Y2SYAXJ","Aug 12 2014","16:09:54",12,"Short","One","Zero",4,"Chrome",3,"Same","Novel9",1,"Novel9",3,418,"straightaheadlonger",-1,0,0,1,(Aug 12 2014 16:09:54),0,TRUE,FALSE,4,TRUE
"A1YH2I4Y2SYAXJ","Aug 12 2014","16:09:54",13,"Short","One","Zero",4,"Chrome",4,"Switch","Novel94",0,"Novel35",3,9435,"RUkidslonger",3,0,1,0,(Aug 12 2014 16:09:54),0,TRUE,FALSE,4,FALSE
"A1YH2I4Y2SYAXJ","Aug 12 2014","16:09:54",14,"Short","One","Zero",4,"Chrome",4,"Switch","Novel35",1,"Novel35",3,2445,"straightaheadlonger",-1,0,0,1,(Aug 12 2014 16:09:54),0,TRUE,FALSE,4,TRUE
"A1YH2I4Y2SYAXJ","Aug 12 2014","16:09:54",15,"Short","One","Zero",4,"Chrome",5,"Same","Novel48",0,"Novel48",0,3953,"RDkidslonger",2,0,1,0,(Aug 12 2014 16:09:54),0,TRUE,FALSE,4,TRUE
"A1YH2I4Y2SYAXJ","Aug 12 2014","16:09:54",16,"Short","One","Zero",4,"Chrome",5,"Same","Novel48",0,"Novel48",0,529,"straightaheadlonger",-1,0,0,1,(Aug 12 2014 16:09:54),0,TRUE,FALSE,4,TRUE
"A1ZN5STZXRDUH3","Aug 12 2014","16:00:07",1,"Short","This","Zero",4,"Chrome",0,"Same","flower",0,"",0,1348,"straightaheadlonger",-1,1,0,0,(Aug 12 2014 16:00:07),0,TRUE,FALSE,4,FALSE
"A1ZN5STZXRDUH3","Aug 12 2014","16:00:07",2,"Short","This","Zero",4,"Chrome",0,"Same","flower",0,"",0,1552,"straightaheadlonger",-1,1,0,0,(Aug 12 2014 16:00:07),0,TRUE,FALSE,4,FALSE
"A1ZN5STZXRDUH3","Aug 12 2014","16:00:07",3,"Short","This","Zero",4,"Chrome",0,"Same","truck",1,"",0,2156,"straightaheadlonger",-1,1,0,0,(Aug 12 2014 16:00:07),0,TRUE,FALSE,4,FALSE
"A1ZN5STZXRDUH3","Aug 12 2014","16:00:07",4,"Short","This","Zero",4,"Chrome",0,"Same","truck",2,"",0,2038,"straightaheadlonger",-1,1,0,0,(Aug 12 2014 16:00:07),0,TRUE,FALSE,4,FALSE
"A1ZN5STZXRDUH3","Aug 12 2014","16:00:07",5,"Short","This","Zero",4,"Chrome",0,"Same","Novel114",0,"Novel114",0,1948,"LDkidslonger",0,0,1,0,(Aug 12 2014 16:00:07),0,TRUE,FALSE,4,TRUE
"A1ZN5STZXRDUH3","Aug 12 2014","16:00:07",6,"Short","This","Zero",4,"Chrome",0,"Same","Novel114",3,"Novel114",0,2697,"straightaheadlonger",-1,0,0,1,(Aug 12 2014 16:00:07),0,TRUE,TRUE,4,TRUE
"A1ZN5STZXRDUH3","Aug 12 2014","16:00:07",7,"Short","This","Zero",4,"Chrome",1,"Switch","Novel100",2,"Novel9",1,3823,"LDkidslonger",0,0,1,0,(Aug 12 2014 16:00:07),0,TRUE,FALSE,4,FALSE
"A1ZN5STZXRDUH3","Aug 12 2014","16:00:07",8,"Short","This","Zero",4,"Chrome",1,"Switch","Novel122",0,"Novel9",1,6091,"straightaheadlonger",-1,0,0,1,(Aug 12 2014 16:00:07),0,TRUE,FALSE,4,FALSE
"A1ZN5STZXRDUH3","Aug 12 2014","16:00:07",9,"Short","This","Zero",4,"Chrome",2,"Same","Novel21",2,"Novel21",2,3875,"LUkidslonger",1,0,1,0,(Aug 12 2014 16:00:07),0,TRUE,FALSE,4,TRUE
"A1ZN5STZXRDUH3","Aug 12 2014","16:00:07",10,"Short","This","Zero",4,"Chrome",2,"Same","Novel21",0,"Novel21",2,1874,"straightaheadlonger",-1,0,0,1,(Aug 12 2014 16:00:07),0,TRUE,FALSE,4,TRUE
"A1ZN5STZXRDUH3","Aug 12 2014","16:00:07",11,"Short","This","Zero",4,"Chrome",3,"Switch","Novel62",1,"Novel98",0,4831,"LUkidslonger",1,0,1,0,(Aug 12 2014 16:00:07),0,TRUE,FALSE,4,FALSE
"A1ZN5STZXRDUH3","Aug 12 2014","16:00:07",12,"Short","This","Zero",4,"Chrome",3,"Switch","Novel98",3,"Novel98",0,2473,"straightaheadlonger",-1,0,0,1,(Aug 12 2014 16:00:07),0,TRUE,FALSE,4,TRUE
"A1ZN5STZXRDUH3","Aug 12 2014","16:00:07",13,"Short","This","Zero",4,"Chrome",4,"Same","Novel125",3,"Novel125",3,3127,"LUkidslonger",1,0,1,0,(Aug 12 2014 16:00:07),0,TRUE,FALSE,4,TRUE
"A1ZN5STZXRDUH3","Aug 12 2014","16:00:07",14,"Short","This","Zero",4,"Chrome",4,"Same","Novel125",3,"Novel125",3,1897,"straightaheadlonger",-1,0,0,1,(Aug 12 2014 16:00:07),0,TRUE,FALSE,4,TRUE
"A1ZN5STZXRDUH3","Aug 12 2014","16:00:07",15,"Short","This","Zero",4,"Chrome",5,"Switch","Novel139",1,"Novel48",0,2974,"LDkidslonger",0,0,1,0,(Aug 12 2014 16:00:07),0,TRUE,FALSE,4,FALSE
"A1ZN5STZXRDUH3","Aug 12 2014","16:00:07",16,"Short","This","Zero",4,"Chrome",5,"Switch","Novel48",0,"Novel48",0,2138,"straightaheadlonger",-1,0,0,1,(Aug 12 2014 16:00:07),0,TRUE,FALSE,4,TRUE
"A2359YG3YH3M31","Aug 12 2014","15:57:25",1,"Short","One","Zero",4,"Chrome",0,"Switch","flower",0,"",0,1716,"straightaheadlonger",-1,1,0,0,(Aug 12 2014 15:57:25),0,TRUE,FALSE,4,FALSE
"A2359YG3YH3M31","Aug 12 2014","15:57:25",2,"Short","One","Zero",4,"Chrome",0,"Switch","flower",0,"",0,69,"straightaheadlonger",-1,1,0,0,(Aug 12 2014 15:57:25),0,TRUE,FALSE,4,FALSE
"A2359YG3YH3M31","Aug 12 2014","15:57:25",3,"Short","One","Zero",4,"Chrome",0,"Switch","truck",1,"",0,2399,"straightaheadlonger",-1,1,0,0,(Aug 12 2014 15:57:25),0,TRUE,FALSE,4,FALSE
"A2359YG3YH3M31","Aug 12 2014","15:57:25",4,"Short","One","Zero",4,"Chrome",0,"Switch","truck",2,"",0,118,"straightaheadlonger",-1,1,0,0,(Aug 12 2014 15:57:25),0,TRUE,FALSE,4,FALSE
"A2359YG3YH3M31","Aug 12 2014","15:57:25",5,"Short","One","Zero",4,"Chrome",0,"Switch","Novel20",1,"Novel71",2,1217,"RUkidslonger",3,0,1,0,(Aug 12 2014 15:57:25),0,TRUE,FALSE,4,FALSE
"A2359YG3YH3M31","Aug 12 2014","15:57:25",6,"Short","One","Zero",4,"Chrome",0,"Switch","Novel86",3,"Novel71",2,915,"straightaheadlonger",-1,0,0,1,(Aug 12 2014 15:57:25),0,TRUE,TRUE,4,FALSE
"A2359YG3YH3M31","Aug 12 2014","15:57:25",7,"Short","One","Zero",4,"Chrome",1,"Same","Novel23",2,"Novel23",2,937,"LDkidslonger",0,0,1,0,(Aug 12 2014 15:57:25),0,TRUE,FALSE,4,TRUE
"A2359YG3YH3M31","Aug 12 2014","15:57:25",8,"Short","One","Zero",4,"Chrome",1,"Same","Novel23",2,"Novel23",2,481,"straightaheadlonger",-1,0,0,1,(Aug 12 2014 15:57:25),0,TRUE,FALSE,4,TRUE
"A2359YG3YH3M31","Aug 12 2014","15:57:25",9,"Short","One","Zero",4,"Chrome",2,"Switch","Novel79",1,"Novel134",2,499,"RUkidslonger",3,0,1,0,(Aug 12 2014 15:57:25),0,TRUE,FALSE,4,FALSE
"A2359YG3YH3M31","Aug 12 2014","15:57:25",10,"Short","One","Zero",4,"Chrome",2,"Switch","Novel47",0,"Novel134",2,497,"straightaheadlonger",-1,0,0,1,(Aug 12 2014 15:57:25),0,TRUE,FALSE,4,FALSE
"A2359YG3YH3M31","Aug 12 2014","15:57:25",11,"Short","One","Zero",4,"Chrome",3,"Same","Novel27",3,"Novel27",3,927,"RDkidslonger",2,0,1,0,(Aug 12 2014 15:57:25),0,TRUE,FALSE,4,TRUE
"A2359YG3YH3M31","Aug 12 2014","15:57:25",12,"Short","One","Zero",4,"Chrome",3,"Same","Novel27",3,"Novel27",3,658,"straightaheadlonger",-1,0,0,1,(Aug 12 2014 15:57:25),0,TRUE,FALSE,4,TRUE
"A2359YG3YH3M31","Aug 12 2014","15:57:25",13,"Short","One","Zero",4,"Chrome",4,"Switch","Novel90",3,"Novel49",2,654,"RDkidslonger",2,0,1,0,(Aug 12 2014 15:57:25),0,TRUE,FALSE,4,FALSE
"A2359YG3YH3M31","Aug 12 2014","15:57:25",14,"Short","One","Zero",4,"Chrome",4,"Switch","Novel122",0,"Novel49",2,347,"straightaheadlonger",-1,0,0,1,(Aug 12 2014 15:57:25),0,TRUE,FALSE,4,FALSE
"A2359YG3YH3M31","Aug 12 2014","15:57:25",15,"Short","One","Zero",4,"Chrome",5,"Same","Novel77",2,"Novel77",2,813,"LDkidslonger",0,0,1,0,(Aug 12 2014 15:57:25),0,TRUE,FALSE,4,TRUE
"A2359YG3YH3M31","Aug 12 2014","15:57:25",16,"Short","One","Zero",4,"Chrome",5,"Same","Novel77",1,"Novel77",2,563,"straightaheadlonger",-1,0,0,1,(Aug 12 2014 15:57:25),0,TRUE,FALSE,4,TRUE
"A257UIPAZR9NTN","Aug 12 2014","15:57:26",1,"Short","One","Zero",4,"Chrome",0,"Same","flower",0,"",0,4722,"straightaheadlonger",-1,1,0,0,(Aug 12 2014 15:57:26),0,TRUE,FALSE,4,FALSE
"A257UIPAZR9NTN","Aug 12 2014","15:57:26",2,"Short","One","Zero",4,"Chrome",0,"Same","flower",0,"",0,6,"straightaheadlonger",-1,1,0,0,(Aug 12 2014 15:57:26),0,TRUE,FALSE,4,FALSE
"A257UIPAZR9NTN","Aug 12 2014","15:57:26",3,"Short","One","Zero",4,"Chrome",0,"Same","truck",1,"",0,763,"straightaheadlonger",-1,1,0,0,(Aug 12 2014 15:57:26),0,TRUE,FALSE,4,FALSE
"A257UIPAZR9NTN","Aug 12 2014","15:57:26",4,"Short","One","Zero",4,"Chrome",0,"Same","truck",2,"",0,333,"straightaheadlonger",-1,1,0,0,(Aug 12 2014 15:57:26),0,TRUE,FALSE,4,FALSE
"A257UIPAZR9NTN","Aug 12 2014","15:57:26",5,"Short","One","Zero",4,"Chrome",0,"Same","Novel11",3,"Novel11",3,1092,"RDkidslonger",2,0,1,0,(Aug 12 2014 15:57:26),0,TRUE,FALSE,4,TRUE
"A257UIPAZR9NTN","Aug 12 2014","15:57:26",6,"Short","One","Zero",4,"Chrome",0,"Same","Novel11",0,"Novel11",3,878,"straightaheadlonger",-1,0,0,1,(Aug 12 2014 15:57:26),0,TRUE,TRUE,4,TRUE
"A257UIPAZR9NTN","Aug 12 2014","15:57:26",7,"Short","One","Zero",4,"Chrome",1,"Switch","Novel56",2,"Novel73",1,631,"LDkidslonger",0,0,1,0,(Aug 12 2014 15:57:26),0,TRUE,FALSE,4,FALSE
"A257UIPAZR9NTN","Aug 12 2014","15:57:26",8,"Short","One","Zero",4,"Chrome",1,"Switch","Novel47",3,"Novel73",1,364,"straightaheadlonger",-1,0,0,1,(Aug 12 2014 15:57:26),0,TRUE,FALSE,4,FALSE
"A257UIPAZR9NTN","Aug 12 2014","15:57:26",9,"Short","One","Zero",4,"Chrome",2,"Same","Novel26",1,"Novel26",1,619,"RUkidslonger",3,0,1,0,(Aug 12 2014 15:57:26),0,TRUE,FALSE,4,TRUE
"A257UIPAZR9NTN","Aug 12 2014","15:57:26",10,"Short","One","Zero",4,"Chrome",2,"Same","Novel26",1,"Novel26",1,243,"straightaheadlonger",-1,0,0,1,(Aug 12 2014 15:57:26),0,TRUE,FALSE,4,TRUE
"A257UIPAZR9NTN","Aug 12 2014","15:57:26",11,"Short","One","Zero",4,"Chrome",3,"Switch","Novel12",3,"Novel102",2,195,"RDkidslonger",2,0,1,0,(Aug 12 2014 15:57:26),0,TRUE,FALSE,4,FALSE
"A257UIPAZR9NTN","Aug 12 2014","15:57:26",12,"Short","One","Zero",4,"Chrome",3,"Switch","Novel9",0,"Novel102",2,250,"straightaheadlonger",-1,0,0,1,(Aug 12 2014 15:57:26),0,TRUE,FALSE,4,FALSE
"A257UIPAZR9NTN","Aug 12 2014","15:57:26",13,"Short","One","Zero",4,"Chrome",4,"Same","Novel134",1,"Novel134",1,109,"RUkidslonger",3,0,1,0,(Aug 12 2014 15:57:26),0,TRUE,FALSE,4,TRUE
"A257UIPAZR9NTN","Aug 12 2014","15:57:26",14,"Short","One","Zero",4,"Chrome",4,"Same","Novel134",1,"Novel134",1,80,"straightaheadlonger",-1,0,0,1,(Aug 12 2014 15:57:26),0,TRUE,FALSE,4,TRUE
"A257UIPAZR9NTN","Aug 12 2014","15:57:26",15,"Short","One","Zero",4,"Chrome",5,"Switch","Novel131",1,"Novel48",3,236,"RUkidslonger",3,0,1,0,(Aug 12 2014 15:57:26),0,TRUE,FALSE,4,FALSE
"A257UIPAZR9NTN","Aug 12 2014","15:57:26",16,"Short","One","Zero",4,"Chrome",5,"Switch","Novel94",0,"Novel48",3,123,"straightaheadlonger",-1,0,0,1,(Aug 12 2014 15:57:26),0,TRUE,FALSE,4,FALSE
"A268SWOS479FCX","Aug 12 2014","15:53:57",1,"Short","This","Zero",4,"Chrome",0,"Same","flower",0,"",0,4028,"straightaheadlonger",-1,1,0,0,(Aug 12 2014 15:53:57),0,TRUE,FALSE,4,FALSE
"A268SWOS479FCX","Aug 12 2014","15:53:57",2,"Short","This","Zero",4,"Chrome",0,"Same","flower",0,"",0,2326,"straightaheadlonger",-1,1,0,0,(Aug 12 2014 15:53:57),0,TRUE,FALSE,4,FALSE
"A268SWOS479FCX","Aug 12 2014","15:53:57",3,"Short","This","Zero",4,"Chrome",0,"Same","truck",1,"",0,2056,"straightaheadlonger",-1,1,0,0,(Aug 12 2014 15:53:57),0,TRUE,FALSE,4,FALSE
"A268SWOS479FCX","Aug 12 2014","15:53:57",4,"Short","This","Zero",4,"Chrome",0,"Same","truck",2,"",0,1855,"straightaheadlonger",-1,1,0,0,(Aug 12 2014 15:53:57),0,TRUE,FALSE,4,FALSE
"A268SWOS479FCX","Aug 12 2014","15:53:57",5,"Short","This","Zero",4,"Chrome",0,"Same","Novel97",3,"Novel97",3,2026,"RDkidslonger",2,0,1,0,(Aug 12 2014 15:53:57),0,TRUE,FALSE,4,TRUE
"A268SWOS479FCX","Aug 12 2014","15:53:57",6,"Short","This","Zero",4,"Chrome",0,"Same","Novel97",2,"Novel97",3,1470,"straightaheadlonger",-1,0,0,1,(Aug 12 2014 15:53:57),0,TRUE,TRUE,4,TRUE
"A268SWOS479FCX","Aug 12 2014","15:53:57",7,"Short","This","Zero",4,"Chrome",1,"Switch","Novel9",0,"Novel38",1,2230,"LUkidslonger",1,0,1,0,(Aug 12 2014 15:53:57),0,TRUE,FALSE,4,FALSE
"A268SWOS479FCX","Aug 12 2014","15:53:57",8,"Short","This","Zero",4,"Chrome",1,"Switch","Novel32",1,"Novel38",1,4455,"straightaheadlonger",-1,0,0,1,(Aug 12 2014 15:53:57),0,TRUE,FALSE,4,FALSE
"A268SWOS479FCX","Aug 12 2014","15:53:57",9,"Short","This","Zero",4,"Chrome",2,"Same","Novel4",3,"Novel4",3,1098,"RDkidslonger",2,0,1,0,(Aug 12 2014 15:53:57),0,TRUE,FALSE,4,TRUE
"A268SWOS479FCX","Aug 12 2014","15:53:57",10,"Short","This","Zero",4,"Chrome",2,"Same","Novel4",1,"Novel4",3,557,"straightaheadlonger",-1,0,0,1,(Aug 12 2014 15:53:57),0,TRUE,FALSE,4,TRUE
"A268SWOS479FCX","Aug 12 2014","15:53:57",11,"Short","This","Zero",4,"Chrome",3,"Switch","Novel91",2,"Novel10",3,1330,"LDkidslonger",0,0,1,0,(Aug 12 2014 15:53:57),0,TRUE,FALSE,4,FALSE
"A268SWOS479FCX","Aug 12 2014","15:53:57",12,"Short","This","Zero",4,"Chrome",3,"Switch","Novel103",2,"Novel10",3,663,"straightaheadlonger",-1,0,0,1,(Aug 12 2014 15:53:57),0,TRUE,FALSE,4,FALSE
"A268SWOS479FCX","Aug 12 2014","15:53:57",13,"Short","This","Zero",4,"Chrome",4,"Same","Novel74",1,"Novel74",1,642,"RUkidslonger",3,0,1,0,(Aug 12 2014 15:53:57),0,TRUE,FALSE,4,TRUE
"A268SWOS479FCX","Aug 12 2014","15:53:57",14,"Short","This","Zero",4,"Chrome",4,"Same","Novel74",1,"Novel74",1,267,"straightaheadlonger",-1,0,0,1,(Aug 12 2014 15:53:57),0,TRUE,FALSE,4,TRUE
"A268SWOS479FCX","Aug 12 2014","15:53:57",15,"Short","This","Zero",4,"Chrome",5,"Switch","Novel126",0,"Novel15",2,312,"LUkidslonger",1,0,1,0,(Aug 12 2014 15:53:57),0,TRUE,FALSE,4,FALSE
"A268SWOS479FCX","Aug 12 2014","15:53:57",16,"Short","This","Zero",4,"Chrome",5,"Switch","Novel55",2,"Novel15",2,257,"straightaheadlonger",-1,0,0,1,(Aug 12 2014 15:53:57),0,TRUE,FALSE,4,FALSE
"A276JM9Q4946HH","Aug 12 2014","16:33:11",1,"Short","This","Zero",4,"Chrome",0,"Switch","flower",0,"",0,5162,"straightaheadlonger",-1,1,0,0,(Aug 12 2014 16:33:11),0,TRUE,FALSE,4,FALSE
"A276JM9Q4946HH","Aug 12 2014","16:33:11",2,"Short","This","Zero",4,"Chrome",0,"Switch","flower",0,"",0,672,"straightaheadlonger",-1,1,0,0,(Aug 12 2014 16:33:11),0,TRUE,FALSE,4,FALSE
"A276JM9Q4946HH","Aug 12 2014","16:33:11",3,"Short","This","Zero",4,"Chrome",0,"Switch","truck",1,"",0,531,"straightaheadlonger",-1,1,0,0,(Aug 12 2014 16:33:11),0,TRUE,FALSE,4,FALSE
"A276JM9Q4946HH","Aug 12 2014","16:33:11",4,"Short","This","Zero",4,"Chrome",0,"Switch","truck",2,"",0,1210,"straightaheadlonger",-1,1,0,0,(Aug 12 2014 16:33:11),0,TRUE,FALSE,4,FALSE
"A276JM9Q4946HH","Aug 12 2014","16:33:11",5,"Short","This","Zero",4,"Chrome",0,"Switch","Novel69",1,"Novel26",0,2719,"LDkidslonger",0,0,1,0,(Aug 12 2014 16:33:11),0,TRUE,FALSE,4,FALSE
"A276JM9Q4946HH","Aug 12 2014","16:33:11",6,"Short","This","Zero",4,"Chrome",0,"Switch","Novel101",2,"Novel26",0,6117,"straightaheadlonger",-1,0,0,1,(Aug 12 2014 16:33:11),0,TRUE,TRUE,4,FALSE
"A276JM9Q4946HH","Aug 12 2014","16:33:11",7,"Short","This","Zero",4,"Chrome",1,"Same","Novel47",0,"Novel47",0,2446,"LUkidslonger",1,0,1,0,(Aug 12 2014 16:33:11),0,TRUE,FALSE,4,TRUE
"A276JM9Q4946HH","Aug 12 2014","16:33:11",8,"Short","This","Zero",4,"Chrome",1,"Same","Novel47",3,"Novel47",0,1127,"straightaheadlonger",-1,0,0,1,(Aug 12 2014 16:33:11),0,TRUE,FALSE,4,TRUE
"A276JM9Q4946HH","Aug 12 2014","16:33:11",9,"Short","This","Zero",4,"Chrome",2,"Switch","Novel68",1,"Novel18",0,3718,"RUkidslonger",3,0,1,0,(Aug 12 2014 16:33:11),0,TRUE,FALSE,4,FALSE
"A276JM9Q4946HH","Aug 12 2014","16:33:11",10,"Short","This","Zero",4,"Chrome",2,"Switch","Novel76",2,"Novel18",0,529,"straightaheadlonger",-1,0,0,1,(Aug 12 2014 16:33:11),0,TRUE,FALSE,4,FALSE
"A276JM9Q4946HH","Aug 12 2014","16:33:11",11,"Short","This","Zero",4,"Chrome",3,"Same","Novel2",1,"Novel2",1,2710,"RUkidslonger",3,0,1,0,(Aug 12 2014 16:33:11),0,TRUE,FALSE,4,TRUE
"A276JM9Q4946HH","Aug 12 2014","16:33:11",12,"Short","This","Zero",4,"Chrome",3,"Same","Novel2",1,"Novel2",1,663,"straightaheadlonger",-1,0,0,1,(Aug 12 2014 16:33:11),0,TRUE,FALSE,4,TRUE
"A276JM9Q4946HH","Aug 12 2014","16:33:11",13,"Short","This","Zero",4,"Chrome",4,"Switch","Novel85",3,"Novel134",0,3214,"RUkidslonger",3,0,1,0,(Aug 12 2014 16:33:11),0,TRUE,FALSE,4,FALSE
"A276JM9Q4946HH","Aug 12 2014","16:33:11",14,"Short","This","Zero",4,"Chrome",4,"Switch","Novel127",1,"Novel134",0,581,"straightaheadlonger",-1,0,0,1,(Aug 12 2014 16:33:11),0,TRUE,FALSE,4,FALSE
"A276JM9Q4946HH","Aug 12 2014","16:33:11",15,"Short","This","Zero",4,"Chrome",5,"Same","Novel115",2,"Novel115",2,1070,"LUkidslonger",1,0,1,0,(Aug 12 2014 16:33:11),0,TRUE,FALSE,4,TRUE
"A276JM9Q4946HH","Aug 12 2014","16:33:11",16,"Short","This","Zero",4,"Chrome",5,"Same","Novel115",2,"Novel115",2,590,"straightaheadlonger",-1,0,0,1,(Aug 12 2014 16:33:11),0,TRUE,FALSE,4,TRUE
"A2A8887VMIM9DJ","Aug 12 2014","16:09:49",1,"Short","One","Zero",4,"Chrome",0,"Switch","flower",0,"",0,4651,"straightaheadlonger",-1,1,0,0,(Aug 12 2014 16:09:49),0,TRUE,FALSE,4,FALSE
"A2A8887VMIM9DJ","Aug 12 2014","16:09:49",2,"Short","One","Zero",4,"Chrome",0,"Switch","flower",0,"",0,607,"straightaheadlonger",-1,1,0,0,(Aug 12 2014 16:09:49),0,TRUE,FALSE,4,FALSE
"A2A8887VMIM9DJ","Aug 12 2014","16:09:49",3,"Short","One","Zero",4,"Chrome",0,"Switch","truck",1,"",0,574,"straightaheadlonger",-1,1,0,0,(Aug 12 2014 16:09:49),0,TRUE,FALSE,4,FALSE
"A2A8887VMIM9DJ","Aug 12 2014","16:09:49",4,"Short","One","Zero",4,"Chrome",0,"Switch","truck",2,"",0,1086,"straightaheadlonger",-1,1,0,0,(Aug 12 2014 16:09:49),0,TRUE,FALSE,4,FALSE
"A2A8887VMIM9DJ","Aug 12 2014","16:09:49",5,"Short","One","Zero",4,"Chrome",0,"Switch","Novel48",3,"Novel13",1,3030,"RUkidslonger",3,0,1,0,(Aug 12 2014 16:09:49),0,TRUE,FALSE,4,FALSE
"A2A8887VMIM9DJ","Aug 12 2014","16:09:49",6,"Short","One","Zero",4,"Chrome",0,"Switch","Novel107",1,"Novel13",1,4911,"straightaheadlonger",-1,0,0,1,(Aug 12 2014 16:09:49),0,TRUE,TRUE,4,FALSE
"A2A8887VMIM9DJ","Aug 12 2014","16:09:49",7,"Short","One","Zero",4,"Chrome",1,"Same","Novel121",2,"Novel121",2,2436,"LUkidslonger",1,0,1,0,(Aug 12 2014 16:09:49),0,TRUE,FALSE,4,TRUE
"A2A8887VMIM9DJ","Aug 12 2014","16:09:49",8,"Short","One","Zero",4,"Chrome",1,"Same","Novel121",1,"Novel121",2,614,"straightaheadlonger",-1,0,0,1,(Aug 12 2014 16:09:49),0,TRUE,FALSE,4,TRUE
"A2A8887VMIM9DJ","Aug 12 2014","16:09:49",9,"Short","One","Zero",4,"Chrome",2,"Switch","Novel81",2,"Novel37",3,1947,"LUkidslonger",1,0,1,0,(Aug 12 2014 16:09:49),0,TRUE,FALSE,4,FALSE
"A2A8887VMIM9DJ","Aug 12 2014","16:09:49",10,"Short","One","Zero",4,"Chrome",2,"Switch","Novel44",3,"Novel37",3,4801,"straightaheadlonger",-1,0,0,1,(Aug 12 2014 16:09:49),0,TRUE,FALSE,4,FALSE
"A2A8887VMIM9DJ","Aug 12 2014","16:09:49",11,"Short","One","Zero",4,"Chrome",3,"Same","Novel58",0,"Novel58",0,1505,"RUkidslonger",3,0,1,0,(Aug 12 2014 16:09:49),0,TRUE,FALSE,4,TRUE
"A2A8887VMIM9DJ","Aug 12 2014","16:09:49",12,"Short","One","Zero",4,"Chrome",3,"Same","Novel58",0,"Novel58",0,867,"straightaheadlonger",-1,0,0,1,(Aug 12 2014 16:09:49),0,TRUE,FALSE,4,TRUE
"A2A8887VMIM9DJ","Aug 12 2014","16:09:49",13,"Short","One","Zero",4,"Chrome",4,"Switch","Novel82",1,"Novel3",2,2346,"LUkidslonger",1,0,1,0,(Aug 12 2014 16:09:49),0,TRUE,FALSE,4,FALSE
"A2A8887VMIM9DJ","Aug 12 2014","16:09:49",14,"Short","One","Zero",4,"Chrome",4,"Switch","Novel83",3,"Novel3",2,558,"straightaheadlonger",-1,0,0,1,(Aug 12 2014 16:09:49),0,TRUE,FALSE,4,FALSE
"A2A8887VMIM9DJ","Aug 12 2014","16:09:49",15,"Short","One","Zero",4,"Chrome",5,"Same","Novel117",1,"Novel117",1,2742,"LDkidslonger",0,0,1,0,(Aug 12 2014 16:09:49),0,TRUE,FALSE,4,TRUE
"A2A8887VMIM9DJ","Aug 12 2014","16:09:49",16,"Short","One","Zero",4,"Chrome",5,"Same","Novel117",1,"Novel117",1,1066,"straightaheadlonger",-1,0,0,1,(Aug 12 2014 16:09:49),0,TRUE,FALSE,4,TRUE
"A2ALU15XOKD045","Aug 12 2014","15:56:29",1,"Short","One","Zero",4,"Chrome",0,"Switch","flower",0,"",0,734,"straightaheadlonger",-1,1,0,0,(Aug 12 2014 15:56:29),0,TRUE,FALSE,4,FALSE
"A2ALU15XOKD045","Aug 12 2014","15:56:29",2,"Short","One","Zero",4,"Chrome",0,"Switch","flower",0,"",0,428,"straightaheadlonger",-1,1,0,0,(Aug 12 2014 15:56:29),0,TRUE,FALSE,4,FALSE
"A2ALU15XOKD045","Aug 12 2014","15:56:29",3,"Short","One","Zero",4,"Chrome",0,"Switch","truck",1,"",0,517,"straightaheadlonger",-1,1,0,0,(Aug 12 2014 15:56:29),0,TRUE,FALSE,4,FALSE
"A2ALU15XOKD045","Aug 12 2014","15:56:29",4,"Short","One","Zero",4,"Chrome",0,"Switch","truck",2,"",0,487,"straightaheadlonger",-1,1,0,0,(Aug 12 2014 15:56:29),0,TRUE,FALSE,4,FALSE
"A2ALU15XOKD045","Aug 12 2014","15:56:29",5,"Short","One","Zero",4,"Chrome",0,"Switch","Novel90",1,"Novel78",3,5798,"LUkidslonger",1,0,1,0,(Aug 12 2014 15:56:29),0,TRUE,FALSE,4,FALSE
"A2ALU15XOKD045","Aug 12 2014","15:56:29",6,"Short","One","Zero",4,"Chrome",0,"Switch","Novel78",2,"Novel78",3,2659,"straightaheadlonger",-1,0,0,1,(Aug 12 2014 15:56:29),0,TRUE,TRUE,4,TRUE
"A2ALU15XOKD045","Aug 12 2014","15:56:29",7,"Short","One","Zero",4,"Chrome",1,"Same","Novel36",3,"Novel36",3,1260,"RUkidslonger",3,0,1,0,(Aug 12 2014 15:56:29),0,TRUE,FALSE,4,TRUE
"A2ALU15XOKD045","Aug 12 2014","15:56:29",8,"Short","One","Zero",4,"Chrome",1,"Same","Novel52",0,"Novel36",3,1021,"straightaheadlonger",-1,0,0,1,(Aug 12 2014 15:56:29),0,TRUE,FALSE,4,FALSE
"A2ALU15XOKD045","Aug 12 2014","15:56:29",9,"Short","One","Zero",4,"Chrome",2,"Switch","Novel84",1,"Novel11",0,1607,"RDkidslonger",2,0,1,0,(Aug 12 2014 15:56:29),0,TRUE,FALSE,4,FALSE
"A2ALU15XOKD045","Aug 12 2014","15:56:29",10,"Short","One","Zero",4,"Chrome",2,"Switch","Novel11",1,"Novel11",0,528,"straightaheadlonger",-1,0,0,1,(Aug 12 2014 15:56:29),0,TRUE,FALSE,4,TRUE
"A2ALU15XOKD045","Aug 12 2014","15:56:29",11,"Short","One","Zero",4,"Chrome",3,"Same","Novel64",0,"Novel64",0,1623,"RDkidslonger",2,0,1,0,(Aug 12 2014 15:56:29),0,TRUE,FALSE,4,TRUE
"A2ALU15XOKD045","Aug 12 2014","15:56:29",12,"Short","One","Zero",4,"Chrome",3,"Same","Novel77",1,"Novel64",0,678,"straightaheadlonger",-1,0,0,1,(Aug 12 2014 15:56:29),0,TRUE,FALSE,4,FALSE
"A2ALU15XOKD045","Aug 12 2014","15:56:29",13,"Short","One","Zero",4,"Chrome",4,"Switch","Novel56",2,"Novel128",0,932,"RUkidslonger",3,0,1,0,(Aug 12 2014 15:56:29),0,TRUE,FALSE,4,FALSE
"A2ALU15XOKD045","Aug 12 2014","15:56:29",14,"Short","One","Zero",4,"Chrome",4,"Switch","Novel129",3,"Novel128",0,1013,"straightaheadlonger",-1,0,0,1,(Aug 12 2014 15:56:29),0,TRUE,FALSE,4,FALSE
"A2ALU15XOKD045","Aug 12 2014","15:56:29",15,"Short","One","Zero",4,"Chrome",5,"Same","Novel30",3,"Novel30",3,1709,"LDkidslonger",0,0,1,0,(Aug 12 2014 15:56:29),0,TRUE,FALSE,4,TRUE
"A2ALU15XOKD045","Aug 12 2014","15:56:29",16,"Short","One","Zero",4,"Chrome",5,"Same","Novel30",2,"Novel30",3,1122,"straightaheadlonger",-1,0,0,1,(Aug 12 2014 15:56:29),0,TRUE,FALSE,4,TRUE
"A2ALWT2BUSXD83","Aug 12 2014","15:57:16",1,"Short","One","Zero",4,"Firefox",0,"Switch","flower",0,"",0,1648,"straightaheadlonger",-1,1,0,0,(Aug 12 2014 15:57:16),0,TRUE,FALSE,4,FALSE
"A2ALWT2BUSXD83","Aug 12 2014","15:57:16",2,"Short","One","Zero",4,"Firefox",0,"Switch","flower",0,"",0,3001,"straightaheadlonger",-1,1,0,0,(Aug 12 2014 15:57:16),0,TRUE,FALSE,4,FALSE
"A2ALWT2BUSXD83","Aug 12 2014","15:57:16",3,"Short","One","Zero",4,"Firefox",0,"Switch","truck",1,"",0,358,"straightaheadlonger",-1,1,0,0,(Aug 12 2014 15:57:16),0,TRUE,FALSE,4,FALSE
"A2ALWT2BUSXD83","Aug 12 2014","15:57:16",4,"Short","One","Zero",4,"Firefox",0,"Switch","truck",2,"",0,7052,"straightaheadlonger",-1,1,0,0,(Aug 12 2014 15:57:16),0,TRUE,FALSE,4,FALSE
"A2ALWT2BUSXD83","Aug 12 2014","15:57:16",5,"Short","One","Zero",4,"Firefox",0,"Switch","Novel109",2,"Novel100",0,3613,"RDkidslonger",2,0,1,0,(Aug 12 2014 15:57:16),0,TRUE,FALSE,4,FALSE
"A2ALWT2BUSXD83","Aug 12 2014","15:57:16",6,"Short","One","Zero",4,"Firefox",0,"Switch","Novel100",0,"Novel100",0,2972,"straightaheadlonger",-1,0,0,1,(Aug 12 2014 15:57:16),0,TRUE,TRUE,4,TRUE
"A2ALWT2BUSXD83","Aug 12 2014","15:57:16",7,"Short","One","Zero",4,"Firefox",1,"Same","Novel107",0,"Novel107",0,3934,"LDkidslonger",0,0,1,0,(Aug 12 2014 15:57:16),0,TRUE,FALSE,4,TRUE
"A2ALWT2BUSXD83","Aug 12 2014","15:57:16",8,"Short","One","Zero",4,"Firefox",1,"Same","Novel107",0,"Novel107",0,774,"straightaheadlonger",-1,0,0,1,(Aug 12 2014 15:57:16),0,TRUE,FALSE,4,TRUE
"A2ALWT2BUSXD83","Aug 12 2014","15:57:16",9,"Short","One","Zero",4,"Firefox",2,"Switch","Novel32",1,"Novel61",0,2013,"RUkidslonger",3,0,1,0,(Aug 12 2014 15:57:16),0,TRUE,FALSE,4,FALSE
"A2ALWT2BUSXD83","Aug 12 2014","15:57:16",10,"Short","One","Zero",4,"Firefox",2,"Switch","Novel61",3,"Novel61",0,892,"straightaheadlonger",-1,0,0,1,(Aug 12 2014 15:57:16),0,TRUE,FALSE,4,TRUE
"A2ALWT2BUSXD83","Aug 12 2014","15:57:16",11,"Short","One","Zero",4,"Firefox",3,"Same","Novel15",2,"Novel15",2,2708,"LDkidslonger",0,0,1,0,(Aug 12 2014 15:57:16),0,TRUE,FALSE,4,TRUE
"A2ALWT2BUSXD83","Aug 12 2014","15:57:16",12,"Short","One","Zero",4,"Firefox",3,"Same","Novel15",2,"Novel15",2,746,"straightaheadlonger",-1,0,0,1,(Aug 12 2014 15:57:16),0,TRUE,FALSE,4,TRUE
"A2ALWT2BUSXD83","Aug 12 2014","15:57:16",13,"Short","One","Zero",4,"Firefox",4,"Switch","Novel48",3,"Novel31",2,1972,"LUkidslonger",1,0,1,0,(Aug 12 2014 15:57:16),0,TRUE,FALSE,4,FALSE
"A2ALWT2BUSXD83","Aug 12 2014","15:57:16",14,"Short","One","Zero",4,"Firefox",4,"Switch","Novel64",2,"Novel31",2,4542,"straightaheadlonger",-1,0,0,1,(Aug 12 2014 15:57:16),0,TRUE,FALSE,4,FALSE
"A2ALWT2BUSXD83","Aug 12 2014","15:57:16",15,"Short","One","Zero",4,"Firefox",5,"Same","Novel37",3,"Novel37",3,4399,"RUkidslonger",3,0,1,0,(Aug 12 2014 15:57:16),0,TRUE,FALSE,4,TRUE
"A2ALWT2BUSXD83","Aug 12 2014","15:57:16",16,"Short","One","Zero",4,"Firefox",5,"Same","Novel37",2,"Novel37",3,612,"straightaheadlonger",-1,0,0,1,(Aug 12 2014 15:57:16),0,TRUE,FALSE,4,TRUE
"A2BPBFN87X32NO","Aug 12 2014","15:59:48",1,"Short","This","Zero",4,"Chrome",0,"Same","flower",0,"",0,2932,"straightaheadlonger",-1,1,0,0,(Aug 12 2014 15:59:48),0,TRUE,FALSE,4,FALSE
"A2BPBFN87X32NO","Aug 12 2014","15:59:48",2,"Short","This","Zero",4,"Chrome",0,"Same","flower",0,"",0,1355,"straightaheadlonger",-1,1,0,0,(Aug 12 2014 15:59:48),0,TRUE,FALSE,4,FALSE
"A2BPBFN87X32NO","Aug 12 2014","15:59:48",3,"Short","This","Zero",4,"Chrome",0,"Same","truck",1,"",0,1114,"straightaheadlonger",-1,1,0,0,(Aug 12 2014 15:59:48),0,TRUE,FALSE,4,FALSE
"A2BPBFN87X32NO","Aug 12 2014","15:59:48",4,"Short","This","Zero",4,"Chrome",0,"Same","truck",2,"",0,771,"straightaheadlonger",-1,1,0,0,(Aug 12 2014 15:59:48),0,TRUE,FALSE,4,FALSE
"A2BPBFN87X32NO","Aug 12 2014","15:59:48",5,"Short","This","Zero",4,"Chrome",0,"Same","Novel3",0,"Novel3",0,731,"LUkidslonger",1,0,1,0,(Aug 12 2014 15:59:48),0,TRUE,FALSE,4,TRUE
"A2BPBFN87X32NO","Aug 12 2014","15:59:48",6,"Short","This","Zero",4,"Chrome",0,"Same","Novel3",1,"Novel3",0,1187,"straightaheadlonger",-1,0,0,1,(Aug 12 2014 15:59:48),0,TRUE,TRUE,4,TRUE
"A2BPBFN87X32NO","Aug 12 2014","15:59:48",7,"Short","This","Zero",4,"Chrome",1,"Switch","Novel22",3,"Novel127",1,905,"RDkidslonger",2,0,1,0,(Aug 12 2014 15:59:48),0,TRUE,FALSE,4,FALSE
"A2BPBFN87X32NO","Aug 12 2014","15:59:48",8,"Short","This","Zero",4,"Chrome",1,"Switch","Novel32",2,"Novel127",1,2986,"straightaheadlonger",-1,0,0,1,(Aug 12 2014 15:59:48),0,TRUE,FALSE,4,FALSE
"A2BPBFN87X32NO","Aug 12 2014","15:59:48",9,"Short","This","Zero",4,"Chrome",2,"Same","Novel59",3,"Novel59",3,645,"RDkidslonger",2,0,1,0,(Aug 12 2014 15:59:48),0,TRUE,FALSE,4,TRUE
"A2BPBFN87X32NO","Aug 12 2014","15:59:48",10,"Short","This","Zero",4,"Chrome",2,"Same","Novel59",1,"Novel59",3,690,"straightaheadlonger",-1,0,0,1,(Aug 12 2014 15:59:48),0,TRUE,FALSE,4,TRUE
"A2BPBFN87X32NO","Aug 12 2014","15:59:48",11,"Short","This","Zero",4,"Chrome",3,"Switch","Novel50",2,"Novel72",0,821,"LDkidslonger",0,0,1,0,(Aug 12 2014 15:59:48),0,TRUE,FALSE,4,FALSE
"A2BPBFN87X32NO","Aug 12 2014","15:59:48",12,"Short","This","Zero",4,"Chrome",3,"Switch","Novel111",3,"Novel72",0,689,"straightaheadlonger",-1,0,0,1,(Aug 12 2014 15:59:48),0,TRUE,FALSE,4,FALSE
"A2BPBFN87X32NO","Aug 12 2014","15:59:48",13,"Short","This","Zero",4,"Chrome",4,"Same","Novel128",1,"Novel128",1,572,"RUkidslonger",3,0,1,0,(Aug 12 2014 15:59:48),0,TRUE,FALSE,4,TRUE
"A2BPBFN87X32NO","Aug 12 2014","15:59:48",14,"Short","This","Zero",4,"Chrome",4,"Same","Novel128",1,"Novel128",1,509,"straightaheadlonger",-1,0,0,1,(Aug 12 2014 15:59:48),0,TRUE,FALSE,4,TRUE
"A2BPBFN87X32NO","Aug 12 2014","15:59:48",15,"Short","This","Zero",4,"Chrome",5,"Switch","Novel89",3,"Novel25",2,1127,"RDkidslonger",2,0,1,0,(Aug 12 2014 15:59:48),0,TRUE,FALSE,4,FALSE
"A2BPBFN87X32NO","Aug 12 2014","15:59:48",16,"Short","This","Zero",4,"Chrome",5,"Switch","Novel69",1,"Novel25",2,1855,"straightaheadlonger",-1,0,0,1,(Aug 12 2014 15:59:48),0,TRUE,FALSE,4,FALSE
"A2DBMTN294Y1A8","Aug 12 2014","15:57:50",1,"Short","One","Zero",4,"Chrome",0,"Same","flower",0,"",0,1789,"straightaheadlonger",-1,1,0,0,(Aug 12 2014 15:57:50),0,TRUE,FALSE,4,FALSE
"A2DBMTN294Y1A8","Aug 12 2014","15:57:50",2,"Short","One","Zero",4,"Chrome",0,"Same","flower",0,"",0,1369,"straightaheadlonger",-1,1,0,0,(Aug 12 2014 15:57:50),0,TRUE,FALSE,4,FALSE
"A2DBMTN294Y1A8","Aug 12 2014","15:57:50",3,"Short","One","Zero",4,"Chrome",0,"Same","truck",1,"",0,1032,"straightaheadlonger",-1,1,0,0,(Aug 12 2014 15:57:50),0,TRUE,FALSE,4,FALSE
"A2DBMTN294Y1A8","Aug 12 2014","15:57:50",4,"Short","One","Zero",4,"Chrome",0,"Same","truck",2,"",0,1742,"straightaheadlonger",-1,1,0,0,(Aug 12 2014 15:57:50),0,TRUE,FALSE,4,FALSE
"A2DBMTN294Y1A8","Aug 12 2014","15:57:50",5,"Short","One","Zero",4,"Chrome",0,"Same","Novel62",1,"Novel62",1,8422,"LUkidslonger",1,0,1,0,(Aug 12 2014 15:57:50),0,TRUE,FALSE,4,TRUE
"A2DBMTN294Y1A8","Aug 12 2014","15:57:50",6,"Short","One","Zero",4,"Chrome",0,"Same","Novel62",1,"Novel62",1,2879,"straightaheadlonger",-1,0,0,1,(Aug 12 2014 15:57:50),0,TRUE,TRUE,4,TRUE
"A2DBMTN294Y1A8","Aug 12 2014","15:57:50",7,"Short","One","Zero",4,"Chrome",1,"Switch","Novel84",0,"Novel85",3,3035,"LDkidslonger",0,0,1,0,(Aug 12 2014 15:57:50),0,TRUE,FALSE,4,FALSE
"A2DBMTN294Y1A8","Aug 12 2014","15:57:50",8,"Short","One","Zero",4,"Chrome",1,"Switch","Novel85",2,"Novel85",3,880,"straightaheadlonger",-1,0,0,1,(Aug 12 2014 15:57:50),0,TRUE,FALSE,4,TRUE
"A2DBMTN294Y1A8","Aug 12 2014","15:57:50",9,"Short","One","Zero",4,"Chrome",2,"Same","Novel34",2,"Novel34",2,2186,"LDkidslonger",0,0,1,0,(Aug 12 2014 15:57:50),0,TRUE,FALSE,4,TRUE
