"subids","numPic","mean_acc_exp","include_expo","itemNum","correct_exposure","submit.date","submit.time","trial.num","trialType","samePos","chosen","chosenIdx","kept","keptIdx","rt","interval","day.and.time","correct","include","first.trial","numPicN","intervalNum","condition","testTrial","dataset","face","faceIdx","exposureTrial","exampleTrial","faceIdx6","include_good_rt"
"14",4,1,1,0,TRUE,"Mar 29 2014","14:23:10",9,"Switch",0,"Novel65",1,"Novel65",0,2274,3,"(Mar 29 2014 14:23:10)",TRUE,TRUE,TRUE,4,3,"Social",1,"km","eyescenter",-1,0,0,"-1",1
"14",4,1,1,1,TRUE,"Mar 29 2014","14:23:10",10,"Same",0,"Novel20",0,"Novel20",2,1611,3,"(Mar 29 2014 14:23:10)",TRUE,TRUE,FALSE,4,3,"Social",1,"km","eyescenter",-1,0,0,"-1",1
"14",4,1,1,2,TRUE,"Mar 29 2014","14:23:10",11,"Switch",1,"Novel51",1,"Novel134",0,3571,3,"(Mar 29 2014 14:23:10)",FALSE,TRUE,FALSE,4,3,"Social",1,"km","eyescenter",-1,0,0,"-1",1
"14",4,1,1,3,TRUE,"Mar 29 2014","14:23:10",12,"Same",1,"Novel55",3,"Novel55",3,1563,3,"(Mar 29 2014 14:23:10)",TRUE,TRUE,FALSE,4,3,"Social",1,"km","eyescenter",-1,0,0,"-1",1
"14",4,1,1,4,TRUE,"Mar 29 2014","14:23:10",17,"Switch",0,"Novel1",2,"Novel76",0,3885,3,"(Mar 29 2014 14:23:10)",FALSE,TRUE,FALSE,4,3,"Social",1,"km","eyescenter",-1,0,0,"-1",1
"14",4,1,1,5,TRUE,"Mar 29 2014","14:23:10",18,"Same",1,"Novel9",3,"Novel9",3,2095,3,"(Mar 29 2014 14:23:10)",TRUE,TRUE,FALSE,4,3,"Social",1,"km","eyescenter",-1,0,0,"-1",1
"14",4,1,1,6,TRUE,"Mar 29 2014","14:23:10",19,"Switch",1,"Novel113",2,"Novel113",2,2427,3,"(Mar 29 2014 14:23:10)",TRUE,TRUE,FALSE,4,3,"Social",1,"km","eyescenter",-1,0,0,"-1",1
"14",4,1,1,7,TRUE,"Mar 29 2014","14:23:10",20,"Same",0,"Novel106",2,"Novel106",1,1249,3,"(Mar 29 2014 14:23:10)",TRUE,TRUE,FALSE,4,3,"Social",1,"km","eyescenter",-1,0,0,"-1",1
"15",6,0.875,1,0,FALSE,"Apr 10 2014","18:16:32",6,"Same",1,"Novel59",5,"Novel59",5,2064,4,"(Apr 10 2014 18:16:32)",TRUE,TRUE,TRUE,6,0,"Social",1,"km","eyescenter",-1,0,0,"-1",1
"15",6,0.875,1,1,TRUE,"Apr 10 2014","18:16:32",8,"Switch",1,"Novel95",2,"Novel95",2,6072,4,"(Apr 10 2014 18:16:32)",TRUE,TRUE,FALSE,6,0,"Social",1,"km","eyescenter",-1,0,0,"-1",1
"15",6,0.875,1,2,TRUE,"Apr 10 2014","18:16:32",10,"Same",0,"Novel111",0,"Novel111",4,1668,4,"(Apr 10 2014 18:16:32)",TRUE,TRUE,FALSE,6,0,"Social",1,"km","eyescenter",-1,0,0,"-1",1
"15",6,0.875,1,3,TRUE,"Apr 10 2014","18:16:32",12,"Switch",0,"Novel128",4,"Novel69",1,3647,4,"(Apr 10 2014 18:16:32)",FALSE,TRUE,FALSE,6,0,"Social",1,"km","eyescenter",-1,0,0,"-1",1
"15",6,0.875,1,4,TRUE,"Apr 10 2014","18:16:32",14,"Same",0,"Novel90",4,"Novel90",5,762,4,"(Apr 10 2014 18:16:32)",TRUE,TRUE,FALSE,6,0,"Social",1,"km","eyescenter",-1,0,0,"-1",1
"15",6,0.875,1,5,TRUE,"Apr 10 2014","18:16:32",16,"Switch",1,"Novel17",5,"Novel17",5,3881,4,"(Apr 10 2014 18:16:32)",TRUE,TRUE,FALSE,6,0,"Social",1,"km","eyescenter",-1,0,0,"-1",1
"15",6,0.875,1,6,TRUE,"Apr 10 2014","18:16:32",18,"Same",1,"Novel6",0,"Novel6",0,471,4,"(Apr 10 2014 18:16:32)",TRUE,TRUE,FALSE,6,0,"Social",1,"km","eyescenter",-1,0,0,"-1",0
"15",6,0.875,1,7,TRUE,"Apr 10 2014","18:16:32",20,"Switch",0,"Novel135",5,"Novel57",1,3599,4,"(Apr 10 2014 18:16:32)",FALSE,TRUE,FALSE,6,0,"Social",1,"km","eyescenter",-1,0,0,"-1",1
"222",4,1,1,0,TRUE,"Apr 22 2014","06:54:49",6,"Switch",1,"Novel120",0,"Novel84",1,3703,4,"(Apr 22 2014 06:54:49)",FALSE,TRUE,TRUE,4,0,"Social",1,"km","eyescenter",-1,0,0,"-1",1
"222",4,1,1,1,TRUE,"Apr 22 2014","06:54:49",8,"Same",1,"Novel24",1,"Novel24",1,1990,4,"(Apr 22 2014 06:54:49)",TRUE,TRUE,FALSE,4,0,"Social",1,"km","eyescenter",-1,0,0,"-1",1
"222",4,1,1,2,TRUE,"Apr 22 2014","06:54:49",10,"Switch",0,"Novel96",3,"Novel29",0,1941,4,"(Apr 22 2014 06:54:49)",FALSE,TRUE,FALSE,4,0,"Social",1,"km","eyescenter",-1,0,0,"-1",1
"222",4,1,1,3,TRUE,"Apr 22 2014","06:54:49",12,"Same",1,"Novel87",2,"Novel87",2,594,4,"(Apr 22 2014 06:54:49)",TRUE,TRUE,FALSE,4,0,"Social",1,"km","eyescenter",-1,0,0,"-1",1
"222",4,1,1,4,TRUE,"Apr 22 2014","06:54:49",14,"Switch",0,"Novel132",0,"Novel37",0,3391,4,"(Apr 22 2014 06:54:49)",FALSE,TRUE,FALSE,4,0,"Social",1,"km","eyescenter",-1,0,0,"-1",1
"222",4,1,1,5,TRUE,"Apr 22 2014","06:54:49",16,"Same",0,"Novel124",2,"Novel124",3,942,4,"(Apr 22 2014 06:54:49)",TRUE,TRUE,FALSE,4,0,"Social",1,"km","eyescenter",-1,0,0,"-1",1
"222",4,1,1,6,TRUE,"Apr 22 2014","06:54:49",18,"Switch",1,"Novel58",1,"Novel138",3,1269,4,"(Apr 22 2014 06:54:49)",FALSE,TRUE,FALSE,4,0,"Social",1,"km","eyescenter",-1,0,0,"-1",1
"222",4,1,1,7,TRUE,"Apr 22 2014","06:54:49",20,"Same",0,"Novel30",3,"Novel30",1,775,4,"(Apr 22 2014 06:54:49)",TRUE,TRUE,FALSE,4,0,"Social",1,"km","eyescenter",-1,0,0,"-1",1
"352",8,1,1,0,TRUE,"May 09 2014","22:20:48",9,"Switch",1,"Novel59",2,"Novel34",6,6904,3,"(May 09 2014 22:20:48)",FALSE,TRUE,TRUE,8,3,"Social",1,"km","eyes_center",-1,0,0,"eyes_center",1
"352",8,1,1,1,TRUE,"May 09 2014","22:20:48",10,"Same",1,"Novel122",0,"Novel122",0,1756,3,"(May 09 2014 22:20:48)",TRUE,TRUE,FALSE,8,3,"Social",1,"km","eyes_center",-1,0,0,"eyes_center",1
"352",8,1,1,2,TRUE,"May 09 2014","22:20:48",11,"Switch",1,"Novel56",5,"Novel131",3,6326,3,"(May 09 2014 22:20:48)",FALSE,TRUE,FALSE,8,3,"Social",1,"km","eyes_center",-1,0,0,"eyes_center",1
"352",8,1,1,3,TRUE,"May 09 2014","22:20:48",12,"Same",1,"Novel18",3,"Novel18",3,2446,3,"(May 09 2014 22:20:48)",TRUE,TRUE,FALSE,8,3,"Social",1,"km","eyes_center",-1,0,0,"eyes_center",1
"352",8,1,1,4,TRUE,"May 09 2014","22:20:48",17,"Switch",0,"Novel116",5,"Novel75",1,9323,3,"(May 09 2014 22:20:48)",FALSE,TRUE,FALSE,8,3,"Social",1,"km","eyes_center",-1,0,0,"eyes_center",1
"352",8,1,1,5,TRUE,"May 09 2014","22:20:48",18,"Same",0,"Novel129",3,"Novel129",6,3735,3,"(May 09 2014 22:20:48)",TRUE,TRUE,FALSE,8,3,"Social",1,"km","eyes_center",-1,0,0,"eyes_center",1
"352",8,1,1,6,TRUE,"May 09 2014","22:20:48",19,"Switch",0,"Novel133",7,"Novel1",4,5542,3,"(May 09 2014 22:20:48)",FALSE,TRUE,FALSE,8,3,"Social",1,"km","eyes_center",-1,0,0,"eyes_center",1
"352",8,1,1,7,TRUE,"May 09 2014","22:20:48",20,"Same",0,"Novel94",7,"Novel94",1,2637,3,"(May 09 2014 22:20:48)",TRUE,TRUE,FALSE,8,3,"Social",1,"km","eyes_center",-1,0,0,"eyes_center",1
"374",4,1,1,0,TRUE,"Apr 20 2014","21:31:06",13,"Same",1,"Novel86",3,"Novel86",3,4285,2,"(Apr 20 2014 21:31:06)",TRUE,TRUE,TRUE,4,7,"Social",1,"km","eyescenter",-1,0,0,"-1",1
"374",4,1,1,1,TRUE,"Apr 20 2014","21:31:06",14,"Switch",1,"Novel87",3,"Novel87",3,6220,2,"(Apr 20 2014 21:31:06)",TRUE,TRUE,FALSE,4,7,"Social",1,"km","eyescenter",-1,0,0,"-1",1
"374",4,1,1,2,TRUE,"Apr 20 2014","21:31:06",15,"Same",0,"Novel134",3,"Novel134",0,3780,2,"(Apr 20 2014 21:31:06)",TRUE,TRUE,FALSE,4,7,"Social",1,"km","eyescenter",-1,0,0,"-1",1
"374",4,1,1,3,TRUE,"Apr 20 2014","21:31:06",16,"Switch",0,"Novel59",2,"Novel59",1,5201,2,"(Apr 20 2014 21:31:06)",TRUE,TRUE,FALSE,4,7,"Social",1,"km","eyescenter",-1,0,0,"-1",1
"374",4,1,1,4,TRUE,"Apr 20 2014","21:31:06",17,"Same",0,"Novel103",2,"Novel103",3,1284,2,"(Apr 20 2014 21:31:06)",TRUE,TRUE,FALSE,4,7,"Social",1,"km","eyescenter",-1,0,0,"-1",1
"374",4,1,1,5,TRUE,"Apr 20 2014","21:31:06",18,"Switch",0,"Novel74",3,"Novel74",0,6061,2,"(Apr 20 2014 21:31:06)",TRUE,TRUE,FALSE,4,7,"Social",1,"km","eyescenter",-1,0,0,"-1",1
"374",4,1,1,6,TRUE,"Apr 20 2014","21:31:06",19,"Same",1,"Novel65",0,"Novel65",0,1284,2,"(Apr 20 2014 21:31:06)",TRUE,TRUE,FALSE,4,7,"Social",1,"km","eyescenter",-1,0,0,"-1",1
"374",4,1,1,7,TRUE,"Apr 20 2014","21:31:06",20,"Switch",1,"Novel50",0,"Novel89",3,3107,2,"(Apr 20 2014 21:31:06)",FALSE,TRUE,FALSE,4,7,"Social",1,"km","eyescenter",-1,0,0,"-1",1
"837",2,1,1,0,TRUE,"May 03 2014","06:33:10",13,"Same",1,"Novel35",1,"Novel35",1,1188,2,"(May 03 2014 06:33:10)",TRUE,TRUE,TRUE,2,7,"Social",1,"km","eyescenter",-1,0,0,"-1",1
"837",2,1,1,1,TRUE,"May 03 2014","06:33:10",14,"Switch",1,"Novel12",1,"Novel80",0,1925,2,"(May 03 2014 06:33:10)",FALSE,TRUE,FALSE,2,7,"Social",1,"km","eyescenter",-1,0,0,"-1",1
"837",2,1,1,2,TRUE,"May 03 2014","06:33:10",15,"Same",1,"Novel8",1,"Novel8",1,1612,2,"(May 03 2014 06:33:10)",TRUE,TRUE,FALSE,2,7,"Social",1,"km","eyescenter",-1,0,0,"-1",1
"837",2,1,1,3,TRUE,"May 03 2014","06:33:10",16,"Switch",1,"Novel79",0,"Novel79",0,1850,2,"(May 03 2014 06:33:10)",TRUE,TRUE,FALSE,2,7,"Social",1,"km","eyescenter",-1,0,0,"-1",1
"837",2,1,1,4,TRUE,"May 03 2014","06:33:10",17,"Same",0,"Novel100",0,"Novel95",0,1873,2,"(May 03 2014 06:33:10)",FALSE,TRUE,FALSE,2,7,"Social",1,"km","eyescenter",-1,0,0,"-1",1
"837",2,1,1,5,TRUE,"May 03 2014","06:33:10",18,"Switch",0,"Novel18",1,"Novel18",0,1558,2,"(May 03 2014 06:33:10)",TRUE,TRUE,FALSE,2,7,"Social",1,"km","eyescenter",-1,0,0,"-1",1
"837",2,1,1,6,TRUE,"May 03 2014","06:33:10",19,"Same",0,"Novel26",0,"Novel26",1,1326,2,"(May 03 2014 06:33:10)",TRUE,TRUE,FALSE,2,7,"Social",1,"km","eyescenter",-1,0,0,"-1",1
"837",2,1,1,7,TRUE,"May 03 2014","06:33:10",20,"Switch",0,"Novel40",1,"Novel40",0,1465,2,"(May 03 2014 06:33:10)",TRUE,TRUE,FALSE,2,7,"Social",1,"km","eyescenter",-1,0,0,"-1",1
"915",2,1,1,0,TRUE,"May 02 2014","13:04:11",6,"Switch",1,"Novel108",0,"Novel108",0,1935,4,"(May 02 2014 13:04:11)",TRUE,TRUE,TRUE,2,0,"Social",1,"km","eyescenter",-1,0,0,"-1",1
"915",2,1,1,1,TRUE,"May 02 2014","13:04:11",8,"Same",1,"Novel25",1,"Novel25",1,1265,4,"(May 02 2014 13:04:11)",TRUE,TRUE,FALSE,2,0,"Social",1,"km","eyescenter",-1,0,0,"-1",1
"915",2,1,1,2,TRUE,"May 02 2014","13:04:11",10,"Switch",1,"Novel131",0,"Novel131",0,502,4,"(May 02 2014 13:04:11)",TRUE,TRUE,FALSE,2,0,"Social",1,"km","eyescenter",-1,0,0,"-1",1
"915",2,1,1,3,TRUE,"May 02 2014","13:04:11",12,"Same",0,"Novel26",0,"Novel73",0,56043,4,"(May 02 2014 13:04:11)",FALSE,TRUE,FALSE,2,0,"Social",1,"km","eyescenter",-1,0,0,"-1",0
"915",2,1,1,4,TRUE,"May 02 2014","13:04:11",14,"Switch",0,"Novel136",1,"Novel96",1,517,4,"(May 02 2014 13:04:11)",FALSE,TRUE,FALSE,2,0,"Social",1,"km","eyescenter",-1,0,0,"-1",1
"915",2,1,1,5,TRUE,"May 02 2014","13:04:11",16,"Same",1,"Novel36",1,"Novel42",0,233,4,"(May 02 2014 13:04:11)",FALSE,TRUE,FALSE,2,0,"Social",1,"km","eyescenter",-1,0,0,"-1",0
"915",2,1,1,6,TRUE,"May 02 2014","13:04:11",18,"Switch",0,"Novel113",1,"Novel57",1,564,4,"(May 02 2014 13:04:11)",FALSE,TRUE,FALSE,2,0,"Social",1,"km","eyescenter",-1,0,0,"-1",1
"915",2,1,1,7,TRUE,"May 02 2014","13:04:11",20,"Same",0,"Novel123",1,"Novel123",0,418,4,"(May 02 2014 13:04:11)",TRUE,TRUE,FALSE,2,0,"Social",1,"km","eyescenter",-1,0,0,"-1",0
"917",2,1,1,0,TRUE,"May 02 2014","14:44:30",7,"Same",1,"Novel133",1,"Novel133",1,3049,1,"(May 02 2014 14:44:30)",TRUE,TRUE,TRUE,2,1,"Social",1,"km","eyescenter",-1,0,0,"-1",1
"917",2,1,1,1,TRUE,"May 02 2014","14:44:30",8,"Switch",1,"Novel34",1,"Novel34",1,7105,1,"(May 02 2014 14:44:30)",TRUE,TRUE,FALSE,2,1,"Social",1,"km","eyescenter",-1,0,0,"-1",1
"917",2,1,1,2,TRUE,"May 02 2014","14:44:30",11,"Same",0,"Novel140",1,"Novel140",0,946,1,"(May 02 2014 14:44:30)",TRUE,TRUE,FALSE,2,1,"Social",1,"km","eyescenter",-1,0,0,"-1",1
"917",2,1,1,3,TRUE,"May 02 2014","14:44:30",12,"Switch",0,"Novel19",1,"Novel104",1,1507,1,"(May 02 2014 14:44:30)",FALSE,TRUE,FALSE,2,1,"Social",1,"km","eyescenter",-1,0,0,"-1",1
"917",2,1,1,4,TRUE,"May 02 2014","14:44:30",15,"Same",1,"Novel44",0,"Novel44",0,779,1,"(May 02 2014 14:44:30)",TRUE,TRUE,FALSE,2,1,"Social",1,"km","eyescenter",-1,0,0,"-1",1
"917",2,1,1,5,TRUE,"May 02 2014","14:44:30",16,"Switch",1,"Novel138",1,"Novel29",0,1181,1,"(May 02 2014 14:44:30)",FALSE,TRUE,FALSE,2,1,"Social",1,"km","eyescenter",-1,0,0,"-1",1
"917",2,1,1,6,TRUE,"May 02 2014","14:44:30",19,"Same",0,"Novel53",0,"Novel53",1,972,1,"(May 02 2014 14:44:30)",TRUE,TRUE,FALSE,2,1,"Social",1,"km","eyescenter",-1,0,0,"-1",1
"917",2,1,1,7,TRUE,"May 02 2014","14:44:30",20,"Switch",0,"Novel13",0,"Novel94",0,644,1,"(May 02 2014 14:44:30)",FALSE,TRUE,FALSE,2,1,"Social",1,"km","eyescenter",-1,0,0,"-1",1
"922",2,0.5,0,0,TRUE,"May 03 2014","06:22:03",6,"Same",0,"Novel131",1,"Novel131",0,1673,4,"(May 03 2014 06:22:03)",TRUE,TRUE,TRUE,2,0,"Social",1,"km","eyescenter",-1,0,0,"-1",1
"922",2,0.5,0,1,FALSE,"May 03 2014","06:22:03",8,"Switch",0,"Novel68",1,"Novel68",0,3896,4,"(May 03 2014 06:22:03)",TRUE,TRUE,FALSE,2,0,"Social",1,"km","eyescenter",-1,0,0,"-1",1
"922",2,0.5,0,2,FALSE,"May 03 2014","06:22:03",10,"Same",0,"Novel42",0,"Novel42",1,1065,4,"(May 03 2014 06:22:03)",TRUE,TRUE,FALSE,2,0,"Social",1,"km","eyescenter",-1,0,0,"-1",1
"922",2,0.5,0,3,FALSE,"May 03 2014","06:22:03",12,"Switch",1,"Novel61",0,"Novel61",0,1564,4,"(May 03 2014 06:22:03)",TRUE,TRUE,FALSE,2,0,"Social",1,"km","eyescenter",-1,0,0,"-1",1
"922",2,0.5,0,4,FALSE,"May 03 2014","06:22:03",14,"Same",1,"Novel52",1,"Novel52",1,831,4,"(May 03 2014 06:22:03)",TRUE,TRUE,FALSE,2,0,"Social",1,"km","eyescenter",-1,0,0,"-1",1
"922",2,0.5,0,5,TRUE,"May 03 2014","06:22:03",16,"Switch",1,"Novel64",0,"Novel136",1,3502,4,"(May 03 2014 06:22:03)",FALSE,TRUE,FALSE,2,0,"Social",1,"km","eyescenter",-1,0,0,"-1",1
"922",2,0.5,0,6,TRUE,"May 03 2014","06:22:03",18,"Same",1,"Novel12",1,"Novel12",1,2177,4,"(May 03 2014 06:22:03)",TRUE,TRUE,FALSE,2,0,"Social",1,"km","eyescenter",-1,0,0,"-1",1
"922",2,0.5,0,7,TRUE,"May 03 2014","06:22:03",20,"Switch",0,"Novel138",1,"Novel138",0,1401,4,"(May 03 2014 06:22:03)",TRUE,TRUE,FALSE,2,0,"Social",1,"km","eyescenter",-1,0,0,"-1",1
"923",2,1,1,0,TRUE,"May 02 2014","16:04:40",13,"Same",1,"Novel69",0,"Novel69",0,3624,2,"(May 02 2014 16:04:40)",TRUE,TRUE,TRUE,2,7,"Social",1,"km","eyescenter",-1,0,0,"-1",1
"923",2,1,1,1,TRUE,"May 02 2014","16:04:40",14,"Switch",1,"Novel113",1,"Novel113",1,3137,2,"(May 02 2014 16:04:40)",TRUE,TRUE,FALSE,2,7,"Social",1,"km","eyescenter",-1,0,0,"-1",1
"923",2,1,1,2,TRUE,"May 02 2014","16:04:40",15,"Same",0,"Novel89",0,"Novel89",1,1890,2,"(May 02 2014 16:04:40)",TRUE,TRUE,FALSE,2,7,"Social",1,"km","eyescenter",-1,0,0,"-1",1
"923",2,1,1,3,TRUE,"May 02 2014","16:04:40",16,"Switch",1,"Novel34",0,"Novel34",0,9153,2,"(May 02 2014 16:04:40)",TRUE,TRUE,FALSE,2,7,"Social",1,"km","eyescenter",-1,0,0,"-1",1
"923",2,1,1,4,TRUE,"May 02 2014","16:04:40",17,"Same",1,"Novel8",1,"Novel8",1,4449,2,"(May 02 2014 16:04:40)",TRUE,TRUE,FALSE,2,7,"Social",1,"km","eyescenter",-1,0,0,"-1",1
"923",2,1,1,5,TRUE,"May 02 2014","16:04:40",18,"Switch",0,"Novel85",0,"Novel140",0,1697,2,"(May 02 2014 16:04:40)",FALSE,TRUE,FALSE,2,7,"Social",1,"km","eyescenter",-1,0,0,"-1",1
"923",2,1,1,6,TRUE,"May 02 2014","16:04:40",19,"Same",0,"Novel79",1,"Novel79",0,5171,2,"(May 02 2014 16:04:40)",TRUE,TRUE,FALSE,2,7,"Social",1,"km","eyescenter",-1,0,0,"-1",1
"923",2,1,1,7,TRUE,"May 02 2014","16:04:40",20,"Switch",0,"Novel81",0,"Novel119",0,3373,2,"(May 02 2014 16:04:40)",FALSE,TRUE,FALSE,2,7,"Social",1,"km","eyescenter",-1,0,0,"-1",1
"924",2,1,1,0,TRUE,"May 02 2014","12:15:02",13,"Same",0,"Novel70",1,"Novel129",1,2272,2,"(May 02 2014 12:15:02)",FALSE,TRUE,TRUE,2,7,"Social",1,"km","eyescenter",-1,0,0,"-1",1
"924",2,1,1,1,TRUE,"May 02 2014","12:15:02",14,"Switch",1,"Novel44",1,"Novel44",1,2072,2,"(May 02 2014 12:15:02)",TRUE,TRUE,FALSE,2,7,"Social",1,"km","eyescenter",-1,0,0,"-1",1
"924",2,1,1,2,TRUE,"May 02 2014","12:15:02",15,"Same",1,"Novel128",1,"Novel128",1,1121,2,"(May 02 2014 12:15:02)",TRUE,TRUE,FALSE,2,7,"Social",1,"km","eyescenter",-1,0,0,"-1",1
"924",2,1,1,3,TRUE,"May 02 2014","12:15:02",16,"Switch",0,"Novel133",1,"Novel133",0,1249,2,"(May 02 2014 12:15:02)",TRUE,TRUE,FALSE,2,7,"Social",1,"km","eyescenter",-1,0,0,"-1",1
"924",2,1,1,4,TRUE,"May 02 2014","12:15:02",17,"Same",1,"Novel74",1,"Novel74",1,1089,2,"(May 02 2014 12:15:02)",TRUE,TRUE,FALSE,2,7,"Social",1,"km","eyescenter",-1,0,0,"-1",1
"924",2,1,1,5,TRUE,"May 02 2014","12:15:02",18,"Switch",0,"Novel16",0,"Novel16",1,1619,2,"(May 02 2014 12:15:02)",TRUE,TRUE,FALSE,2,7,"Social",1,"km","eyescenter",-1,0,0,"-1",1
"924",2,1,1,6,TRUE,"May 02 2014","12:15:02",19,"Same",0,"Novel38",0,"Novel38",1,770,2,"(May 02 2014 12:15:02)",TRUE,TRUE,FALSE,2,7,"Social",1,"km","eyescenter",-1,0,0,"-1",1
"924",2,1,1,7,TRUE,"May 02 2014","12:15:02",20,"Switch",1,"Novel101",0,"Novel120",1,1691,2,"(May 02 2014 12:15:02)",FALSE,TRUE,FALSE,2,7,"Social",1,"km","eyescenter",-1,0,0,"-1",1
"925",2,1,1,0,TRUE,"May 02 2014","15:53:05",9,"Same",0,"Novel48",0,"Novel48",1,963,3,"(May 02 2014 15:53:05)",TRUE,TRUE,TRUE,2,3,"Social",1,"km","eyescenter",-1,0,0,"-1",1
"925",2,1,1,1,TRUE,"May 02 2014","15:53:05",10,"Switch",0,"Novel26",0,"Novel7",0,1293,3,"(May 02 2014 15:53:05)",FALSE,TRUE,FALSE,2,3,"Social",1,"km","eyescenter",-1,0,0,"-1",1
"925",2,1,1,2,TRUE,"May 02 2014","15:53:05",11,"Same",1,"Novel16",0,"Novel16",0,875,3,"(May 02 2014 15:53:05)",TRUE,TRUE,FALSE,2,3,"Social",1,"km","eyescenter",-1,0,0,"-1",1
"925",2,1,1,3,TRUE,"May 02 2014","15:53:05",12,"Switch",1,"Novel29",1,"Novel31",0,1188,3,"(May 02 2014 15:53:05)",FALSE,TRUE,FALSE,2,3,"Social",1,"km","eyescenter",-1,0,0,"-1",1
"925",2,1,1,4,TRUE,"May 02 2014","15:53:05",17,"Same",1,"Novel119",0,"Novel119",0,1057,3,"(May 02 2014 15:53:05)",TRUE,TRUE,FALSE,2,3,"Social",1,"km","eyescenter",-1,0,0,"-1",1
"925",2,1,1,5,TRUE,"May 02 2014","15:53:05",18,"Switch",1,"Novel128",0,"Novel17",1,4517,3,"(May 02 2014 15:53:05)",FALSE,TRUE,FALSE,2,3,"Social",1,"km","eyescenter",-1,0,0,"-1",1
"925",2,1,1,6,TRUE,"May 02 2014","15:53:05",19,"Same",0,"Novel59",0,"Novel59",1,988,3,"(May 02 2014 15:53:05)",TRUE,TRUE,FALSE,2,3,"Social",1,"km","eyescenter",-1,0,0,"-1",1
"925",2,1,1,7,TRUE,"May 02 2014","15:53:05",20,"Switch",0,"Novel138",1,"Novel138",0,782,3,"(May 02 2014 15:53:05)",TRUE,TRUE,FALSE,2,3,"Social",1,"km","eyescenter",-1,0,0,"-1",1
"928",2,0.875,1,0,TRUE,"May 02 2014","15:51:12",9,"Switch",1,"Novel138",0,"Novel138",0,1763,3,"(May 02 2014 15:51:12)",TRUE,TRUE,TRUE,2,3,"Social",1,"km","eyescenter",-1,0,0,"-1",1
"928",2,0.875,1,1,TRUE,"May 02 2014","15:51:12",10,"Same",1,"Novel9",0,"Novel9",0,1183,3,"(May 02 2014 15:51:12)",TRUE,TRUE,FALSE,2,3,"Social",1,"km","eyescenter",-1,0,0,"-1",1
"928",2,0.875,1,2,TRUE,"May 02 2014","15:51:12",11,"Switch",0,"Novel107",1,"Novel107",0,1116,3,"(May 02 2014 15:51:12)",TRUE,TRUE,FALSE,2,3,"Social",1,"km","eyescenter",-1,0,0,"-1",1
"928",2,0.875,1,3,TRUE,"May 02 2014","15:51:12",12,"Same",0,"Novel49",1,"Novel60",1,1311,3,"(May 02 2014 15:51:12)",FALSE,TRUE,FALSE,2,3,"Social",1,"km","eyescenter",-1,0,0,"-1",1
"928",2,0.875,1,4,TRUE,"May 02 2014","15:51:12",17,"Switch",1,"Novel59",1,"Novel59",1,1805,3,"(May 02 2014 15:51:12)",TRUE,TRUE,FALSE,2,3,"Social",1,"km","eyescenter",-1,0,0,"-1",1
"928",2,0.875,1,5,TRUE,"May 02 2014","15:51:12",18,"Same",0,"Novel111",1,"Novel122",1,9515,3,"(May 02 2014 15:51:12)",FALSE,TRUE,FALSE,2,3,"Social",1,"km","eyescenter",-1,0,0,"-1",1
"928",2,0.875,1,6,FALSE,"May 02 2014","15:51:12",19,"Switch",0,"Novel27",1,"Novel54",1,1063,3,"(May 02 2014 15:51:12)",FALSE,TRUE,FALSE,2,3,"Social",1,"km","eyescenter",-1,0,0,"-1",1
"928",2,0.875,1,7,TRUE,"May 02 2014","15:51:12",20,"Same",1,"Novel70",0,"Novel58",1,1072,3,"(May 02 2014 15:51:12)",FALSE,TRUE,FALSE,2,3,"Social",1,"km","eyescenter",-1,0,0,"-1",1
"930",2,1,1,0,TRUE,"May 02 2014","11:22:55",6,"Same",1,"Novel38",0,"Novel38",0,3236,4,"(May 02 2014 11:22:55)",TRUE,TRUE,TRUE,2,0,"Social",1,"km","eyescenter",-1,0,0,"-1",1
"930",2,1,1,1,TRUE,"May 02 2014","11:22:55",8,"Switch",1,"Novel122",1,"Novel89",0,1554,4,"(May 02 2014 11:22:55)",FALSE,TRUE,FALSE,2,0,"Social",1,"km","eyescenter",-1,0,0,"-1",1
"930",2,1,1,2,TRUE,"May 02 2014","11:22:55",10,"Same",0,"Novel43",0,"Novel43",1,571,4,"(May 02 2014 11:22:55)",TRUE,TRUE,FALSE,2,0,"Social",1,"km","eyescenter",-1,0,0,"-1",1
"930",2,1,1,3,TRUE,"May 02 2014","11:22:55",12,"Switch",0,"Novel3",1,"Novel3",0,844,4,"(May 02 2014 11:22:55)",TRUE,TRUE,FALSE,2,0,"Social",1,"km","eyescenter",-1,0,0,"-1",1
"930",2,1,1,4,TRUE,"May 02 2014","11:22:55",14,"Same",1,"Novel138",1,"Novel138",1,684,4,"(May 02 2014 11:22:55)",TRUE,TRUE,FALSE,2,0,"Social",1,"km","eyescenter",-1,0,0,"-1",1
"930",2,1,1,5,TRUE,"May 02 2014","11:22:55",16,"Switch",1,"Novel69",0,"Novel69",0,876,4,"(May 02 2014 11:22:55)",TRUE,TRUE,FALSE,2,0,"Social",1,"km","eyescenter",-1,0,0,"-1",1
"930",2,1,1,6,TRUE,"May 02 2014","11:22:55",18,"Same",0,"Novel61",1,"Novel61",0,1171,4,"(May 02 2014 11:22:55)",TRUE,TRUE,FALSE,2,0,"Social",1,"km","eyescenter",-1,0,0,"-1",1
"930",2,1,1,7,TRUE,"May 02 2014","11:22:55",20,"Switch",0,"Novel132",1,"Novel132",0,1884,4,"(May 02 2014 11:22:55)",TRUE,TRUE,FALSE,2,0,"Social",1,"km","eyescenter",-1,0,0,"-1",1
"936",2,0.5,0,0,TRUE,"May 02 2014","12:11:33",7,"Switch",0,"Novel84",0,"Novel84",1,4194,1,"(May 02 2014 12:11:33)",TRUE,TRUE,TRUE,2,1,"Social",1,"km","eyescenter",-1,0,0,"-1",1
"936",2,0.5,0,1,FALSE,"May 02 2014","12:11:33",8,"Same",0,"Novel115",0,"Novel115",1,1155,1,"(May 02 2014 12:11:33)",TRUE,TRUE,FALSE,2,1,"Social",1,"km","eyescenter",-1,0,0,"-1",1
"936",2,0.5,0,2,TRUE,"May 02 2014","12:11:33",11,"Switch",1,"Novel31",0,"Novel31",0,6212,1,"(May 02 2014 12:11:33)",TRUE,TRUE,FALSE,2,1,"Social",1,"km","eyescenter",-1,0,0,"-1",1
"936",2,0.5,0,3,FALSE,"May 02 2014","12:11:33",12,"Same",1,"Novel138",1,"Novel138",1,2181,1,"(May 02 2014 12:11:33)",TRUE,TRUE,FALSE,2,1,"Social",1,"km","eyescenter",-1,0,0,"-1",1
"936",2,0.5,0,4,TRUE,"May 02 2014","12:11:33",15,"Switch",0,"Novel45",1,"Novel23",1,2996,1,"(May 02 2014 12:11:33)",FALSE,TRUE,FALSE,2,1,"Social",1,"km","eyescenter",-1,0,0,"-1",1
"936",2,0.5,0,5,TRUE,"May 02 2014","12:11:33",16,"Same",1,"Novel109",1,"Novel109",1,2933,1,"(May 02 2014 12:11:33)",TRUE,TRUE,FALSE,2,1,"Social",1,"km","eyescenter",-1,0,0,"-1",1
"936",2,0.5,0,6,FALSE,"May 02 2014","12:11:33",19,"Switch",1,"Novel51",0,"Novel51",0,1482,1,"(May 02 2014 12:11:33)",TRUE,TRUE,FALSE,2,1,"Social",1,"km","eyescenter",-1,0,0,"-1",1
"936",2,0.5,0,7,FALSE,"May 02 2014","12:11:33",20,"Same",0,"Novel1",0,"Novel1",1,1284,1,"(May 02 2014 12:11:33)",TRUE,TRUE,FALSE,2,1,"Social",1,"km","eyescenter",-1,0,0,"-1",1
"940",2,1,1,0,TRUE,"May 02 2014","14:27:32",9,"Switch",1,"Novel14",0,"Novel14",0,3699,3,"(May 02 2014 14:27:32)",TRUE,TRUE,TRUE,2,3,"Social",1,"km","eyescenter",-1,0,0,"-1",1
"940",2,1,1,1,TRUE,"May 02 2014","14:27:32",10,"Same",0,"Novel53",1,"Novel53",0,863,3,"(May 02 2014 14:27:32)",TRUE,TRUE,FALSE,2,3,"Social",1,"km","eyescenter",-1,0,0,"-1",1
"940",2,1,1,2,TRUE,"May 02 2014","14:27:32",11,"Switch",0,"Novel44",0,"Novel44",1,2170,3,"(May 02 2014 14:27:32)",TRUE,TRUE,FALSE,2,3,"Social",1,"km","eyescenter",-1,0,0,"-1",1
"940",2,1,1,3,TRUE,"May 02 2014","14:27:32",12,"Same",1,"Novel76",1,"Novel123",0,3003,3,"(May 02 2014 14:27:32)",FALSE,TRUE,FALSE,2,3,"Social",1,"km","eyescenter",-1,0,0,"-1",1
"940",2,1,1,4,TRUE,"May 02 2014","14:27:32",17,"Switch",1,"Novel56",0,"Novel70",1,1090,3,"(May 02 2014 14:27:32)",FALSE,TRUE,FALSE,2,3,"Social",1,"km","eyescenter",-1,0,0,"-1",1
"940",2,1,1,5,TRUE,"May 02 2014","14:27:32",18,"Same",1,"Novel57",1,"Novel57",1,627,3,"(May 02 2014 14:27:32)",TRUE,TRUE,FALSE,2,3,"Social",1,"km","eyescenter",-1,0,0,"-1",1
"940",2,1,1,6,TRUE,"May 02 2014","14:27:32",19,"Switch",0,"Novel6",0,"Novel80",0,786,3,"(May 02 2014 14:27:32)",FALSE,TRUE,FALSE,2,3,"Social",1,"km","eyescenter",-1,0,0,"-1",1
"940",2,1,1,7,TRUE,"May 02 2014","14:27:32",20,"Same",0,"Novel132",0,"Novel132",1,921,3,"(May 02 2014 14:27:32)",TRUE,TRUE,FALSE,2,3,"Social",1,"km","eyescenter",-1,0,0,"-1",1
"941",2,0.375,0,0,TRUE,"May 02 2014","12:13:59",9,"Switch",1,"Novel113",0,"Novel102",1,5856,3,"(May 02 2014 12:13:59)",FALSE,TRUE,TRUE,2,3,"Social",1,"km","eyescenter",-1,0,0,"-1",1
"941",2,0.375,0,1,TRUE,"May 02 2014","12:13:59",10,"Same",1,"Novel59",1,"Novel133",0,2298,3,"(May 02 2014 12:13:59)",FALSE,TRUE,FALSE,2,3,"Social",1,"km","eyescenter",-1,0,0,"-1",1
"941",2,0.375,0,2,FALSE,"May 02 2014","12:13:59",11,"Switch",0,"Novel82",0,"Novel30",0,1695,3,"(May 02 2014 12:13:59)",FALSE,TRUE,FALSE,2,3,"Social",1,"km","eyescenter",-1,0,0,"-1",1
"941",2,0.375,0,3,FALSE,"May 02 2014","12:13:59",12,"Same",1,"Novel28",1,"Novel28",1,1438,3,"(May 02 2014 12:13:59)",TRUE,TRUE,FALSE,2,3,"Social",1,"km","eyescenter",-1,0,0,"-1",1
"941",2,0.375,0,4,TRUE,"May 02 2014","12:13:59",17,"Switch",0,"Novel83",1,"Novel83",0,2825,3,"(May 02 2014 12:13:59)",TRUE,TRUE,FALSE,2,3,"Social",1,"km","eyescenter",-1,0,0,"-1",1
"941",2,0.375,0,5,FALSE,"May 02 2014","12:13:59",18,"Same",0,"Novel53",1,"Novel53",0,4747,3,"(May 02 2014 12:13:59)",TRUE,TRUE,FALSE,2,3,"Social",1,"km","eyescenter",-1,0,0,"-1",1
"941",2,0.375,0,6,FALSE,"May 02 2014","12:13:59",19,"Switch",1,"Novel115",0,"Novel115",0,1633,3,"(May 02 2014 12:13:59)",TRUE,TRUE,FALSE,2,3,"Social",1,"km","eyescenter",-1,0,0,"-1",1
"941",2,0.375,0,7,FALSE,"May 02 2014","12:13:59",20,"Same",0,"Novel7",0,"Novel7",1,1045,3,"(May 02 2014 12:13:59)",TRUE,TRUE,FALSE,2,3,"Social",1,"km","eyescenter",-1,0,0,"-1",1
"943",2,0.5,0,0,FALSE,"May 02 2014","12:14:26",7,"Switch",1,"Novel66",0,"Novel66",0,5269,1,"(May 02 2014 12:14:26)",TRUE,TRUE,TRUE,2,1,"Social",1,"km","eyescenter",-1,0,0,"-1",1
"943",2,0.5,0,1,TRUE,"May 02 2014","12:14:26",8,"Same",0,"Novel44",1,"Novel44",0,4537,1,"(May 02 2014 12:14:26)",TRUE,TRUE,FALSE,2,1,"Social",1,"km","eyescenter",-1,0,0,"-1",1
"943",2,0.5,0,2,TRUE,"May 02 2014","12:14:26",11,"Switch",0,"Novel74",1,"Novel74",0,7629,1,"(May 02 2014 12:14:26)",TRUE,TRUE,FALSE,2,1,"Social",1,"km","eyescenter",-1,0,0,"-1",1
"943",2,0.5,0,3,FALSE,"May 02 2014","12:14:26",12,"Same",1,"Novel94",1,"Novel94",1,1724,1,"(May 02 2014 12:14:26)",TRUE,TRUE,FALSE,2,1,"Social",1,"km","eyescenter",-1,0,0,"-1",1
"943",2,0.5,0,4,TRUE,"May 02 2014","12:14:26",15,"Switch",1,"Novel99",0,"Novel99",0,3571,1,"(May 02 2014 12:14:26)",TRUE,TRUE,FALSE,2,1,"Social",1,"km","eyescenter",-1,0,0,"-1",1
"943",2,0.5,0,5,FALSE,"May 02 2014","12:14:26",16,"Same",0,"Novel136",1,"Novel136",0,2993,1,"(May 02 2014 12:14:26)",TRUE,TRUE,FALSE,2,1,"Social",1,"km","eyescenter",-1,0,0,"-1",1
"943",2,0.5,0,6,TRUE,"May 02 2014","12:14:26",19,"Switch",0,"Novel123",0,"Novel51",0,9691,1,"(May 02 2014 12:14:26)",FALSE,TRUE,FALSE,2,1,"Social",1,"km","eyescenter",-1,0,0,"-1",1
"943",2,0.5,0,7,FALSE,"May 02 2014","12:14:26",20,"Same",1,"Novel11",1,"Novel14",0,1463,1,"(May 02 2014 12:14:26)",FALSE,TRUE,FALSE,2,1,"Social",1,"km","eyescenter",-1,0,0,"-1",1
"944",2,0.625,1,0,TRUE,"May 02 2014","12:42:21",13,"Same",0,"Novel125",0,"Novel125",1,1537,2,"(May 02 2014 12:42:21)",TRUE,TRUE,TRUE,2,7,"Social",1,"km","eyescenter",-1,0,0,"-1",1
"944",2,0.625,1,1,FALSE,"May 02 2014","12:42:21",14,"Switch",1,"Novel19",0,"Novel74",1,3103,2,"(May 02 2014 12:42:21)",FALSE,TRUE,FALSE,2,7,"Social",1,"km","eyescenter",-1,0,0,"-1",1
"944",2,0.625,1,2,TRUE,"May 02 2014","12:42:21",15,"Same",1,"Novel11",0,"Novel11",0,2370,2,"(May 02 2014 12:42:21)",TRUE,TRUE,FALSE,2,7,"Social",1,"km","eyescenter",-1,0,0,"-1",1
"944",2,0.625,1,3,TRUE,"May 02 2014","12:42:21",16,"Switch",0,"Novel87",1,"Novel87",0,1943,2,"(May 02 2014 12:42:21)",TRUE,TRUE,FALSE,2,7,"Social",1,"km","eyescenter",-1,0,0,"-1",1
"944",2,0.625,1,4,FALSE,"May 02 2014","12:42:21",17,"Same",0,"Novel45",1,"Novel45",0,1236,2,"(May 02 2014 12:42:21)",TRUE,TRUE,FALSE,2,7,"Social",1,"km","eyescenter",-1,0,0,"-1",1
"944",2,0.625,1,5,FALSE,"May 02 2014","12:42:21",18,"Switch",1,"Novel51",0,"Novel60",1,2990,2,"(May 02 2014 12:42:21)",FALSE,TRUE,FALSE,2,7,"Social",1,"km","eyescenter",-1,0,0,"-1",1
"944",2,0.625,1,6,TRUE,"May 02 2014","12:42:21",19,"Same",1,"Novel90",0,"Novel90",0,1438,2,"(May 02 2014 12:42:21)",TRUE,TRUE,FALSE,2,7,"Social",1,"km","eyescenter",-1,0,0,"-1",1
"944",2,0.625,1,7,TRUE,"May 02 2014","12:42:21",20,"Switch",0,"Novel89",0,"Novel32",0,1527,2,"(May 02 2014 12:42:21)",FALSE,TRUE,FALSE,2,7,"Social",1,"km","eyescenter",-1,0,0,"-1",1
"945",2,1,1,0,TRUE,"May 02 2014","21:29:42",13,"Same",0,"Novel16",1,"Novel16",0,1925,2,"(May 02 2014 21:29:42)",TRUE,TRUE,TRUE,2,7,"Social",1,"km","eyescenter",-1,0,0,"-1",1
"945",2,1,1,1,TRUE,"May 02 2014","21:29:42",14,"Switch",1,"Novel58",1,"Novel95",0,1444,2,"(May 02 2014 21:29:42)",FALSE,TRUE,FALSE,2,7,"Social",1,"km","eyescenter",-1,0,0,"-1",1
"945",2,1,1,2,TRUE,"May 02 2014","21:29:42",15,"Same",0,"Novel136",1,"Novel136",0,992,2,"(May 02 2014 21:29:42)",TRUE,TRUE,FALSE,2,7,"Social",1,"km","eyescenter",-1,0,0,"-1",1
"945",2,1,1,3,TRUE,"May 02 2014","21:29:42",16,"Switch",1,"Novel98",0,"Novel98",0,1055,2,"(May 02 2014 21:29:42)",TRUE,TRUE,FALSE,2,7,"Social",1,"km","eyescenter",-1,0,0,"-1",1
"945",2,1,1,4,TRUE,"May 02 2014","21:29:42",17,"Same",1,"Novel128",0,"Novel128",0,1029,2,"(May 02 2014 21:29:42)",TRUE,TRUE,FALSE,2,7,"Social",1,"km","eyescenter",-1,0,0,"-1",1
"945",2,1,1,5,TRUE,"May 02 2014","21:29:42",18,"Switch",0,"Novel106",1,"Novel31",1,743,2,"(May 02 2014 21:29:42)",FALSE,TRUE,FALSE,2,7,"Social",1,"km","eyescenter",-1,0,0,"-1",1
"945",2,1,1,6,TRUE,"May 02 2014","21:29:42",19,"Same",1,"Novel73",1,"Novel73",1,732,2,"(May 02 2014 21:29:42)",TRUE,TRUE,FALSE,2,7,"Social",1,"km","eyescenter",-1,0,0,"-1",1
"945",2,1,1,7,TRUE,"May 02 2014","21:29:42",20,"Switch",0,"Novel47",1,"Novel32",1,631,2,"(May 02 2014 21:29:42)",FALSE,TRUE,FALSE,2,7,"Social",1,"km","eyescenter",-1,0,0,"-1",1
"946",2,1,1,0,TRUE,"May 02 2014","11:10:07",13,"Switch",1,"Novel140",1,"Novel106",0,5159,2,"(May 02 2014 11:10:07)",FALSE,TRUE,TRUE,2,7,"Social",1,"km","eyescenter",-1,0,0,"-1",1
"946",2,1,1,1,TRUE,"May 02 2014","11:10:07",14,"Same",1,"Novel13",0,"Novel13",0,1451,2,"(May 02 2014 11:10:07)",TRUE,TRUE,FALSE,2,7,"Social",1,"km","eyescenter",-1,0,0,"-1",1
"946",2,1,1,2,TRUE,"May 02 2014","11:10:07",15,"Switch",0,"Novel118",1,"Novel90",1,1754,2,"(May 02 2014 11:10:07)",FALSE,TRUE,FALSE,2,7,"Social",1,"km","eyescenter",-1,0,0,"-1",1
"946",2,1,1,3,TRUE,"May 02 2014","11:10:07",16,"Same",0,"Novel57",1,"Novel57",0,1102,2,"(May 02 2014 11:10:07)",TRUE,TRUE,FALSE,2,7,"Social",1,"km","eyescenter",-1,0,0,"-1",1
"946",2,1,1,4,TRUE,"May 02 2014","11:10:07",17,"Switch",1,"Novel79",1,"Novel79",1,3650,2,"(May 02 2014 11:10:07)",TRUE,TRUE,FALSE,2,7,"Social",1,"km","eyescenter",-1,0,0,"-1",1
"946",2,1,1,5,TRUE,"May 02 2014","11:10:07",18,"Same",1,"Novel17",0,"Novel17",0,1131,2,"(May 02 2014 11:10:07)",TRUE,TRUE,FALSE,2,7,"Social",1,"km","eyescenter",-1,0,0,"-1",1
"946",2,1,1,6,TRUE,"May 02 2014","11:10:07",19,"Switch",0,"Novel68",1,"Novel63",1,2445,2,"(May 02 2014 11:10:07)",FALSE,TRUE,FALSE,2,7,"Social",1,"km","eyescenter",-1,0,0,"-1",1
"946",2,1,1,7,TRUE,"May 02 2014","11:10:07",20,"Same",0,"Novel78",0,"Novel78",1,1040,2,"(May 02 2014 11:10:07)",TRUE,TRUE,FALSE,2,7,"Social",1,"km","eyescenter",-1,0,0,"-1",1
"947",2,1,1,0,TRUE,"May 02 2014","15:53:45",9,"Same",1,"Novel16",1,"Novel102",0,7875,3,"(May 02 2014 15:53:45)",FALSE,TRUE,TRUE,2,3,"Social",1,"km","eyescenter",-1,0,0,"-1",1
"947",2,1,1,1,TRUE,"May 02 2014","15:53:45",10,"Switch",1,"Novel101",1,"Novel101",1,2632,3,"(May 02 2014 15:53:45)",TRUE,TRUE,FALSE,2,3,"Social",1,"km","eyescenter",-1,0,0,"-1",1
"947",2,1,1,2,TRUE,"May 02 2014","15:53:45",11,"Same",0,"Novel129",0,"Novel93",0,2802,3,"(May 02 2014 15:53:45)",FALSE,TRUE,FALSE,2,3,"Social",1,"km","eyescenter",-1,0,0,"-1",1
"947",2,1,1,3,TRUE,"May 02 2014","15:53:45",12,"Switch",0,"Novel83",0,"Novel83",1,2160,3,"(May 02 2014 15:53:45)",TRUE,TRUE,FALSE,2,3,"Social",1,"km","eyescenter",-1,0,0,"-1",1
"947",2,1,1,4,TRUE,"May 02 2014","15:53:45",17,"Same",0,"Novel137",1,"Novel137",0,7771,3,"(May 02 2014 15:53:45)",TRUE,TRUE,FALSE,2,3,"Social",1,"km","eyescenter",-1,0,0,"-1",1
"947",2,1,1,5,TRUE,"May 02 2014","15:53:45",18,"Switch",0,"Novel132",0,"Novel132",1,1085,3,"(May 02 2014 15:53:45)",TRUE,TRUE,FALSE,2,3,"Social",1,"km","eyescenter",-1,0,0,"-1",1
"947",2,1,1,6,TRUE,"May 02 2014","15:53:45",19,"Same",1,"Novel75",1,"Novel75",1,241,3,"(May 02 2014 15:53:45)",TRUE,TRUE,FALSE,2,3,"Social",1,"km","eyescenter",-1,0,0,"-1",0
"947",2,1,1,7,TRUE,"May 02 2014","15:53:45",20,"Switch",1,"Novel7",1,"Novel7",1,411,3,"(May 02 2014 15:53:45)",TRUE,TRUE,FALSE,2,3,"Social",1,"km","eyescenter",-1,0,0,"-1",0
"948",2,0.75,1,0,TRUE,"May 02 2014","12:33:52",7,"Same",1,"Novel17",0,"Novel17",0,2726,1,"(May 02 2014 12:33:52)",TRUE,TRUE,TRUE,2,1,"Social",1,"km","eyescenter",-1,0,0,"-1",1
"948",2,0.75,1,1,TRUE,"May 02 2014","12:33:52",8,"Switch",1,"Novel99",0,"Novel99",0,1531,1,"(May 02 2014 12:33:52)",TRUE,TRUE,FALSE,2,1,"Social",1,"km","eyescenter",-1,0,0,"-1",1
"948",2,0.75,1,2,FALSE,"May 02 2014","12:33:52",11,"Same",1,"Novel63",0,"Novel63",0,969,1,"(May 02 2014 12:33:52)",TRUE,TRUE,FALSE,2,1,"Social",1,"km","eyescenter",-1,0,0,"-1",1
"948",2,0.75,1,3,TRUE,"May 02 2014","12:33:52",12,"Switch",0,"Novel65",1,"Novel65",0,1139,1,"(May 02 2014 12:33:52)",TRUE,TRUE,FALSE,2,1,"Social",1,"km","eyescenter",-1,0,0,"-1",1
"948",2,0.75,1,4,TRUE,"May 02 2014","12:33:52",15,"Same",0,"Novel6",0,"Novel58",0,2592,1,"(May 02 2014 12:33:52)",FALSE,TRUE,FALSE,2,1,"Social",1,"km","eyescenter",-1,0,0,"-1",1
"948",2,0.75,1,5,TRUE,"May 02 2014","12:33:52",16,"Switch",0,"Novel131",1,"Novel38",1,7717,1,"(May 02 2014 12:33:52)",FALSE,TRUE,FALSE,2,1,"Social",1,"km","eyescenter",-1,0,0,"-1",1
"948",2,0.75,1,6,FALSE,"May 02 2014","12:33:52",19,"Same",0,"Novel48",1,"Novel48",0,58544,1,"(May 02 2014 12:33:52)",TRUE,TRUE,FALSE,2,1,"Social",1,"km","eyescenter",-1,0,0,"-1",0
"948",2,0.75,1,7,TRUE,"May 02 2014","12:33:52",20,"Switch",1,"Novel103",0,"Novel103",0,1235,1,"(May 02 2014 12:33:52)",TRUE,TRUE,FALSE,2,1,"Social",1,"km","eyescenter",-1,0,0,"-1",1
"951",2,0.75,1,0,TRUE,"May 02 2014","17:00:43",6,"Switch",1,"Novel7",1,"Novel135",0,2147,4,"(May 02 2014 17:00:43)",FALSE,TRUE,TRUE,2,0,"Social",1,"km","eyescenter",-1,0,0,"-1",1
"951",2,0.75,1,1,TRUE,"May 02 2014","17:00:43",8,"Same",1,"Novel98",0,"Novel98",0,811,4,"(May 02 2014 17:00:43)",TRUE,TRUE,FALSE,2,0,"Social",1,"km","eyescenter",-1,0,0,"-1",1
"951",2,0.75,1,2,FALSE,"May 02 2014","17:00:43",10,"Switch",1,"Novel34",1,"Novel34",1,1376,4,"(May 02 2014 17:00:43)",TRUE,TRUE,FALSE,2,0,"Social",1,"km","eyescenter",-1,0,0,"-1",1
"951",2,0.75,1,3,TRUE,"May 02 2014","17:00:43",12,"Same",0,"Novel119",0,"Novel119",1,960,4,"(May 02 2014 17:00:43)",TRUE,TRUE,FALSE,2,0,"Social",1,"km","eyescenter",-1,0,0,"-1",1
"951",2,0.75,1,4,FALSE,"May 02 2014","17:00:43",14,"Switch",0,"Novel114",0,"Novel114",1,1554,4,"(May 02 2014 17:00:43)",TRUE,TRUE,FALSE,2,0,"Social",1,"km","eyescenter",-1,0,0,"-1",1
"951",2,0.75,1,5,TRUE,"May 02 2014","17:00:43",16,"Same",1,"Novel18",1,"Novel18",1,582,4,"(May 02 2014 17:00:43)",TRUE,TRUE,FALSE,2,0,"Social",1,"km","eyescenter",-1,0,0,"-1",1
"951",2,0.75,1,6,TRUE,"May 02 2014","17:00:43",18,"Switch",0,"Novel45",0,"Novel73",0,832,4,"(May 02 2014 17:00:43)",FALSE,TRUE,FALSE,2,0,"Social",1,"km","eyescenter",-1,0,0,"-1",1
"951",2,0.75,1,7,TRUE,"May 02 2014","17:00:43",20,"Same",0,"Novel82",1,"Novel24",1,1157,4,"(May 02 2014 17:00:43)",FALSE,TRUE,FALSE,2,0,"Social",1,"km","eyescenter",-1,0,0,"-1",1
"954",2,1,1,0,TRUE,"May 02 2014","16:00:47",13,"Switch",1,"Novel47",1,"Novel47",1,2011,2,"(May 02 2014 16:00:47)",TRUE,TRUE,TRUE,2,7,"Social",1,"km","eyescenter",-1,0,0,"-1",1
"954",2,1,1,1,TRUE,"May 02 2014","16:00:47",14,"Same",1,"Novel59",0,"Novel59",0,916,2,"(May 02 2014 16:00:47)",TRUE,TRUE,FALSE,2,7,"Social",1,"km","eyescenter",-1,0,0,"-1",1
"954",2,1,1,2,TRUE,"May 02 2014","16:00:47",15,"Switch",1,"Novel27",0,"Novel27",0,1668,2,"(May 02 2014 16:00:47)",TRUE,TRUE,FALSE,2,7,"Social",1,"km","eyescenter",-1,0,0,"-1",1
"954",2,1,1,3,TRUE,"May 02 2014","16:00:47",16,"Same",0,"Novel35",1,"Novel35",0,961,2,"(May 02 2014 16:00:47)",TRUE,TRUE,FALSE,2,7,"Social",1,"km","eyescenter",-1,0,0,"-1",1
"954",2,1,1,4,TRUE,"May 02 2014","16:00:47",17,"Switch",0,"Novel17",1,"Novel17",0,1635,2,"(May 02 2014 16:00:47)",TRUE,TRUE,FALSE,2,7,"Social",1,"km","eyescenter",-1,0,0,"-1",1
"954",2,1,1,5,TRUE,"May 02 2014","16:00:47",18,"Same",0,"Novel111",1,"Novel111",0,833,2,"(May 02 2014 16:00:47)",TRUE,TRUE,FALSE,2,7,"Social",1,"km","eyescenter",-1,0,0,"-1",1
"954",2,1,1,6,TRUE,"May 02 2014","16:00:47",19,"Switch",0,"Novel30",1,"Novel30",0,1523,2,"(May 02 2014 16:00:47)",TRUE,TRUE,FALSE,2,7,"Social",1,"km","eyescenter",-1,0,0,"-1",1
"954",2,1,1,7,TRUE,"May 02 2014","16:00:47",20,"Same",1,"Novel14",1,"Novel14",1,1056,2,"(May 02 2014 16:00:47)",TRUE,TRUE,FALSE,2,7,"Social",1,"km","eyescenter",-1,0,0,"-1",1
"955",2,1,1,0,TRUE,"May 02 2014","11:30:56",7,"Switch",0,"Novel129",0,"Novel29",0,1800,1,"(May 02 2014 11:30:56)",FALSE,TRUE,TRUE,2,1,"Social",1,"km","eyescenter",-1,0,0,"-1",1
"955",2,1,1,1,TRUE,"May 02 2014","11:30:56",8,"Same",1,"Novel116",0,"Novel116",0,892,1,"(May 02 2014 11:30:56)",TRUE,TRUE,FALSE,2,1,"Social",1,"km","eyescenter",-1,0,0,"-1",1
"955",2,1,1,2,TRUE,"May 02 2014","11:30:56",11,"Switch",1,"Novel122",0,"Novel122",0,1212,1,"(May 02 2014 11:30:56)",TRUE,TRUE,FALSE,2,1,"Social",1,"km","eyescenter",-1,0,0,"-1",1
"955",2,1,1,3,TRUE,"May 02 2014","11:30:56",12,"Same",1,"Novel57",0,"Novel57",0,1032,1,"(May 02 2014 11:30:56)",TRUE,TRUE,FALSE,2,1,"Social",1,"km","eyescenter",-1,0,0,"-1",1
"955",2,1,1,4,TRUE,"May 02 2014","11:30:56",15,"Switch",0,"Novel3",1,"Novel52",1,1479,1,"(May 02 2014 11:30:56)",FALSE,TRUE,FALSE,2,1,"Social",1,"km","eyescenter",-1,0,0,"-1",1
"955",2,1,1,5,TRUE,"May 02 2014","11:30:56",16,"Same",0,"Novel45",0,"Novel45",1,691,1,"(May 02 2014 11:30:56)",TRUE,TRUE,FALSE,2,1,"Social",1,"km","eyescenter",-1,0,0,"-1",1
"955",2,1,1,6,TRUE,"May 02 2014","11:30:56",19,"Switch",1,"Novel79",0,"Novel69",1,954,1,"(May 02 2014 11:30:56)",FALSE,TRUE,FALSE,2,1,"Social",1,"km","eyescenter",-1,0,0,"-1",1
"955",2,1,1,7,TRUE,"May 02 2014","11:30:56",20,"Same",0,"Novel4",0,"Novel4",1,517,1,"(May 02 2014 11:30:56)",TRUE,TRUE,FALSE,2,1,"Social",1,"km","eyescenter",-1,0,0,"-1",1
"956",2,1,1,0,TRUE,"May 02 2014","12:27:54",6,"Switch",1,"Novel26",1,"Novel26",1,5369,4,"(May 02 2014 12:27:54)",TRUE,TRUE,TRUE,2,0,"Social",1,"km","eyescenter",-1,0,0,"-1",1
"956",2,1,1,1,TRUE,"May 02 2014","12:27:54",8,"Same",0,"Novel99",1,"Novel99",0,1126,4,"(May 02 2014 12:27:54)",TRUE,TRUE,FALSE,2,0,"Social",1,"km","eyescenter",-1,0,0,"-1",1
"956",2,1,1,2,TRUE,"May 02 2014","12:27:54",10,"Switch",1,"Novel103",1,"Novel103",1,6247,4,"(May 02 2014 12:27:54)",TRUE,TRUE,FALSE,2,0,"Social",1,"km","eyescenter",-1,0,0,"-1",1
"956",2,1,1,3,TRUE,"May 02 2014","12:27:54",12,"Same",0,"Novel50",0,"Novel50",1,1013,4,"(May 02 2014 12:27:54)",TRUE,TRUE,FALSE,2,0,"Social",1,"km","eyescenter",-1,0,0,"-1",1
"956",2,1,1,4,TRUE,"May 02 2014","12:27:54",14,"Switch",0,"Novel67",0,"Novel88",0,5184,4,"(May 02 2014 12:27:54)",FALSE,TRUE,FALSE,2,0,"Social",1,"km","eyescenter",-1,0,0,"-1",1
"956",2,1,1,5,TRUE,"May 02 2014","12:27:54",16,"Same",1,"Novel58",1,"Novel58",1,2771,4,"(May 02 2014 12:27:54)",TRUE,TRUE,FALSE,2,0,"Social",1,"km","eyescenter",-1,0,0,"-1",1
"956",2,1,1,6,TRUE,"May 02 2014","12:27:54",18,"Switch",0,"Novel92",0,"Novel121",0,2417,4,"(May 02 2014 12:27:54)",FALSE,TRUE,FALSE,2,0,"Social",1,"km","eyescenter",-1,0,0,"-1",1
"956",2,1,1,7,TRUE,"May 02 2014","12:27:54",20,"Same",1,"Novel100",1,"Novel100",1,859,4,"(May 02 2014 12:27:54)",TRUE,TRUE,FALSE,2,0,"Social",1,"km","eyescenter",-1,0,0,"-1",1
"958",2,1,1,0,TRUE,"May 02 2014","12:46:12",13,"Same",0,"Novel112",0,"Novel112",1,2429,2,"(May 02 2014 12:46:12)",TRUE,TRUE,TRUE,2,7,"Social",1,"km","eyescenter",-1,0,0,"-1",1
"958",2,1,1,1,TRUE,"May 02 2014","12:46:12",14,"Switch",1,"Novel58",1,"Novel58",1,1537,2,"(May 02 2014 12:46:12)",TRUE,TRUE,FALSE,2,7,"Social",1,"km","eyescenter",-1,0,0,"-1",1
"958",2,1,1,2,TRUE,"May 02 2014","12:46:12",15,"Same",1,"Novel94",0,"Novel94",0,1637,2,"(May 02 2014 12:46:12)",TRUE,TRUE,FALSE,2,7,"Social",1,"km","eyescenter",-1,0,0,"-1",1
"958",2,1,1,3,TRUE,"May 02 2014","12:46:12",16,"Switch",0,"Novel102",0,"Novel75",0,3729,2,"(May 02 2014 12:46:12)",FALSE,TRUE,FALSE,2,7,"Social",1,"km","eyescenter",-1,0,0,"-1",1
"958",2,1,1,4,TRUE,"May 02 2014","12:46:12",17,"Same",0,"Novel133",1,"Novel133",0,2478,2,"(May 02 2014 12:46:12)",TRUE,TRUE,FALSE,2,7,"Social",1,"km","eyescenter",-1,0,0,"-1",1
"958",2,1,1,5,TRUE,"May 02 2014","12:46:12",18,"Switch",1,"Novel54",0,"Novel54",0,2489,2,"(May 02 2014 12:46:12)",TRUE,TRUE,FALSE,2,7,"Social",1,"km","eyescenter",-1,0,0,"-1",1
"958",2,1,1,6,TRUE,"May 02 2014","12:46:12",19,"Same",1,"Novel69",0,"Novel69",0,1423,2,"(May 02 2014 12:46:12)",TRUE,TRUE,FALSE,2,7,"Social",1,"km","eyescenter",-1,0,0,"-1",1
"958",2,1,1,7,TRUE,"May 02 2014","12:46:12",20,"Switch",0,"Novel127",1,"Novel127",0,3099,2,"(May 02 2014 12:46:12)",TRUE,TRUE,FALSE,2,7,"Social",1,"km","eyescenter",-1,0,0,"-1",1
"959",2,1,1,0,TRUE,"May 02 2014","13:06:03",6,"Switch",1,"Novel126",1,"Novel126",1,2649,4,"(May 02 2014 13:06:03)",TRUE,TRUE,TRUE,2,0,"Social",1,"km","eyescenter",-1,0,0,"-1",1
"959",2,1,1,1,TRUE,"May 02 2014","13:06:03",8,"Same",1,"Novel105",0,"Novel85",1,4543,4,"(May 02 2014 13:06:03)",FALSE,TRUE,FALSE,2,0,"Social",1,"km","eyescenter",-1,0,0,"-1",1
"959",2,1,1,2,TRUE,"May 02 2014","13:06:03",10,"Switch",0,"Novel64",0,"Novel64",1,1491,4,"(May 02 2014 13:06:03)",TRUE,TRUE,FALSE,2,0,"Social",1,"km","eyescenter",-1,0,0,"-1",1
"959",2,1,1,3,TRUE,"May 02 2014","13:06:03",12,"Same",0,"Novel52",1,"Novel52",0,1030,4,"(May 02 2014 13:06:03)",TRUE,TRUE,FALSE,2,0,"Social",1,"km","eyescenter",-1,0,0,"-1",1
"959",2,1,1,4,TRUE,"May 02 2014","13:06:03",14,"Switch",1,"Novel76",1,"Novel125",0,1750,4,"(May 02 2014 13:06:03)",FALSE,TRUE,FALSE,2,0,"Social",1,"km","eyescenter",-1,0,0,"-1",1
"959",2,1,1,5,TRUE,"May 02 2014","13:06:03",16,"Same",0,"Novel137",0,"Novel137",1,888,4,"(May 02 2014 13:06:03)",TRUE,TRUE,FALSE,2,0,"Social",1,"km","eyescenter",-1,0,0,"-1",1
"959",2,1,1,6,TRUE,"May 02 2014","13:06:03",18,"Switch",0,"Novel37",1,"Novel87",1,1804,4,"(May 02 2014 13:06:03)",FALSE,TRUE,FALSE,2,0,"Social",1,"km","eyescenter",-1,0,0,"-1",1
"959",2,1,1,7,TRUE,"May 02 2014","13:06:03",20,"Same",1,"Novel109",0,"Novel109",0,617,4,"(May 02 2014 13:06:03)",TRUE,TRUE,FALSE,2,0,"Social",1,"km","eyescenter",-1,0,0,"-1",1
"961",2,1,1,0,TRUE,"May 02 2014","17:29:41",6,"Same",0,"Novel39",0,"Novel39",1,1997,4,"(May 02 2014 17:29:41)",TRUE,TRUE,TRUE,2,0,"Social",1,"km","eyescenter",-1,0,0,"-1",1
"961",2,1,1,1,TRUE,"May 02 2014","17:29:41",8,"Switch",0,"Novel8",1,"Novel22",1,1070,4,"(May 02 2014 17:29:41)",FALSE,TRUE,FALSE,2,0,"Social",1,"km","eyescenter",-1,0,0,"-1",1
"961",2,1,1,2,TRUE,"May 02 2014","17:29:41",10,"Same",0,"Novel136",0,"Novel136",1,344,4,"(May 02 2014 17:29:41)",TRUE,TRUE,FALSE,2,0,"Social",1,"km","eyescenter",-1,0,0,"-1",0
"961",2,1,1,3,TRUE,"May 02 2014","17:29:41",12,"Switch",1,"Novel65",0,"Novel76",1,878,4,"(May 02 2014 17:29:41)",FALSE,TRUE,FALSE,2,0,"Social",1,"km","eyescenter",-1,0,0,"-1",1
"961",2,1,1,4,TRUE,"May 02 2014","17:29:41",14,"Same",1,"Novel84",1,"Novel84",1,261,4,"(May 02 2014 17:29:41)",TRUE,TRUE,FALSE,2,0,"Social",1,"km","eyescenter",-1,0,0,"-1",0
"961",2,1,1,5,TRUE,"May 02 2014","17:29:41",16,"Switch",1,"Novel116",0,"Novel116",0,233,4,"(May 02 2014 17:29:41)",TRUE,TRUE,FALSE,2,0,"Social",1,"km","eyescenter",-1,0,0,"-1",0
"961",2,1,1,6,TRUE,"May 02 2014","17:29:41",18,"Same",1,"Novel80",1,"Novel80",1,136,4,"(May 02 2014 17:29:41)",TRUE,TRUE,FALSE,2,0,"Social",1,"km","eyescenter",-1,0,0,"-1",0
"961",2,1,1,7,TRUE,"May 02 2014","17:29:41",20,"Switch",0,"Novel21",0,"Novel9",0,515,4,"(May 02 2014 17:29:41)",FALSE,TRUE,FALSE,2,0,"Social",1,"km","eyescenter",-1,0,0,"-1",1
"962",2,1,1,0,TRUE,"May 02 2014","11:50:19",9,"Switch",0,"Novel93",0,"Novel93",1,1891,3,"(May 02 2014 11:50:19)",TRUE,TRUE,TRUE,2,3,"Social",1,"km","eyescenter",-1,0,0,"-1",1
"962",2,1,1,1,TRUE,"May 02 2014","11:50:19",10,"Same",1,"Novel47",1,"Novel47",1,2132,3,"(May 02 2014 11:50:19)",TRUE,TRUE,FALSE,2,3,"Social",1,"km","eyescenter",-1,0,0,"-1",1
"962",2,1,1,2,TRUE,"May 02 2014","11:50:19",11,"Switch",1,"Novel57",0,"Novel5",1,2285,3,"(May 02 2014 11:50:19)",FALSE,TRUE,FALSE,2,3,"Social",1,"km","eyescenter",-1,0,0,"-1",1
"962",2,1,1,3,TRUE,"May 02 2014","11:50:19",12,"Same",0,"Novel86",1,"Novel86",0,1558,3,"(May 02 2014 11:50:19)",TRUE,TRUE,FALSE,2,3,"Social",1,"km","eyescenter",-1,0,0,"-1",1
"962",2,1,1,4,TRUE,"May 02 2014","11:50:19",17,"Switch",0,"Novel105",0,"Novel119",0,1908,3,"(May 02 2014 11:50:19)",FALSE,TRUE,FALSE,2,3,"Social",1,"km","eyescenter",-1,0,0,"-1",1
"962",2,1,1,5,TRUE,"May 02 2014","11:50:19",18,"Same",0,"Novel19",1,"Novel19",0,1781,3,"(May 02 2014 11:50:19)",TRUE,TRUE,FALSE,2,3,"Social",1,"km","eyescenter",-1,0,0,"-1",1
"962",2,1,1,6,TRUE,"May 02 2014","11:50:19",19,"Switch",1,"Novel55",1,"Novel90",0,1863,3,"(May 02 2014 11:50:19)",FALSE,TRUE,FALSE,2,3,"Social",1,"km","eyescenter",-1,0,0,"-1",1
"962",2,1,1,7,TRUE,"May 02 2014","11:50:19",20,"Same",1,"Novel130",1,"Novel130",1,1533,3,"(May 02 2014 11:50:19)",TRUE,TRUE,FALSE,2,3,"Social",1,"km","eyescenter",-1,0,0,"-1",1
"963",2,0.875,1,0,TRUE,"May 02 2014","13:24:06",13,"Switch",0,"Novel139",0,"Novel139",1,2190,2,"(May 02 2014 13:24:06)",TRUE,TRUE,TRUE,2,7,"Social",1,"km","eyescenter",-1,0,0,"-1",1
"963",2,0.875,1,1,TRUE,"May 02 2014","13:24:06",14,"Same",1,"Novel94",1,"Novel94",1,1697,2,"(May 02 2014 13:24:06)",TRUE,TRUE,FALSE,2,7,"Social",1,"km","eyescenter",-1,0,0,"-1",1
"963",2,0.875,1,2,FALSE,"May 02 2014","13:24:06",15,"Switch",1,"Novel99",0,"Novel99",0,1385,2,"(May 02 2014 13:24:06)",TRUE,TRUE,FALSE,2,7,"Social",1,"km","eyescenter",-1,0,0,"-1",1
"963",2,0.875,1,3,TRUE,"May 02 2014","13:24:06",16,"Same",0,"Novel58",1,"Novel58",0,977,2,"(May 02 2014 13:24:06)",TRUE,TRUE,FALSE,2,7,"Social",1,"km","eyescenter",-1,0,0,"-1",1
"963",2,0.875,1,4,TRUE,"May 02 2014","13:24:06",17,"Switch",0,"Novel76",0,"Novel47",0,924,2,"(May 02 2014 13:24:06)",FALSE,TRUE,FALSE,2,7,"Social",1,"km","eyescenter",-1,0,0,"-1",1
"963",2,0.875,1,5,TRUE,"May 02 2014","13:24:06",18,"Same",0,"Novel91",0,"Novel91",1,1093,2,"(May 02 2014 13:24:06)",TRUE,TRUE,FALSE,2,7,"Social",1,"km","eyescenter",-1,0,0,"-1",1
"963",2,0.875,1,6,TRUE,"May 02 2014","13:24:06",19,"Switch",1,"Novel23",1,"Novel23",1,2045,2,"(May 02 2014 13:24:06)",TRUE,TRUE,FALSE,2,7,"Social",1,"km","eyescenter",-1,0,0,"-1",1
"963",2,0.875,1,7,TRUE,"May 02 2014","13:24:06",20,"Same",1,"Novel28",0,"Novel28",0,940,2,"(May 02 2014 13:24:06)",TRUE,TRUE,FALSE,2,7,"Social",1,"km","eyescenter",-1,0,0,"-1",1
"964",2,0.75,1,0,TRUE,"May 02 2014","21:02:58",9,"Same",0,"Novel119",0,"Novel119",1,2395,3,"(May 02 2014 21:02:58)",TRUE,TRUE,TRUE,2,3,"Social",1,"km","eyescenter",-1,0,0,"-1",1
"964",2,0.75,1,1,FALSE,"May 02 2014","21:02:58",10,"Switch",1,"Novel54",1,"Novel54",1,1374,3,"(May 02 2014 21:02:58)",TRUE,TRUE,FALSE,2,3,"Social",1,"km","eyescenter",-1,0,0,"-1",1
"964",2,0.75,1,2,FALSE,"May 02 2014","21:02:58",11,"Same",1,"Novel74",1,"Novel74",1,825,3,"(May 02 2014 21:02:58)",TRUE,TRUE,FALSE,2,3,"Social",1,"km","eyescenter",-1,0,0,"-1",1
"964",2,0.75,1,3,TRUE,"May 02 2014","21:02:58",12,"Switch",0,"Novel81",1,"Novel81",0,2470,3,"(May 02 2014 21:02:58)",TRUE,TRUE,FALSE,2,3,"Social",1,"km","eyescenter",-1,0,0,"-1",1
"964",2,0.75,1,4,TRUE,"May 02 2014","21:02:58",17,"Same",0,"Novel117",1,"Novel117",0,1753,3,"(May 02 2014 21:02:58)",TRUE,TRUE,FALSE,2,3,"Social",1,"km","eyescenter",-1,0,0,"-1",1
"964",2,0.75,1,5,TRUE,"May 02 2014","21:02:58",18,"Switch",1,"Novel33",1,"Novel33",1,726,3,"(May 02 2014 21:02:58)",TRUE,TRUE,FALSE,2,3,"Social",1,"km","eyescenter",-1,0,0,"-1",1
"964",2,0.75,1,6,TRUE,"May 02 2014","21:02:58",19,"Same",1,"Novel66",1,"Novel66",1,358,3,"(May 02 2014 21:02:58)",TRUE,TRUE,FALSE,2,3,"Social",1,"km","eyescenter",-1,0,0,"-1",0
"964",2,0.75,1,7,TRUE,"May 02 2014","21:02:58",20,"Switch",0,"Novel98",1,"Novel98",0,1391,3,"(May 02 2014 21:02:58)",TRUE,TRUE,FALSE,2,3,"Social",1,"km","eyescenter",-1,0,0,"-1",1
"965",2,1,1,0,TRUE,"May 01 2014","12:24:25",7,"Same",1,"Novel134",1,"Novel134",1,3901,1,"(May 01 2014 12:24:25)",TRUE,TRUE,TRUE,2,1,"Social",1,"km","eyescenter",-1,0,0,"-1",1
"965",2,1,1,1,TRUE,"May 01 2014","12:24:25",8,"Switch",1,"Novel132",0,"Novel16",1,3814,1,"(May 01 2014 12:24:25)",FALSE,TRUE,FALSE,2,1,"Social",1,"km","eyescenter",-1,0,0,"-1",1
"965",2,1,1,2,TRUE,"May 01 2014","12:24:25",11,"Same",0,"Novel63",0,"Novel63",1,2574,1,"(May 01 2014 12:24:25)",TRUE,TRUE,FALSE,2,1,"Social",1,"km","eyescenter",-1,0,0,"-1",1
"965",2,1,1,3,TRUE,"May 01 2014","12:24:25",12,"Switch",0,"Novel54",0,"Novel54",1,9052,1,"(May 01 2014 12:24:25)",TRUE,TRUE,FALSE,2,1,"Social",1,"km","eyescenter",-1,0,0,"-1",1
"965",2,1,1,4,TRUE,"May 01 2014","12:24:25",15,"Same",1,"Novel127",1,"Novel127",1,3495,1,"(May 01 2014 12:24:25)",TRUE,TRUE,FALSE,2,1,"Social",1,"km","eyescenter",-1,0,0,"-1",1
"965",2,1,1,5,TRUE,"May 01 2014","12:24:25",16,"Switch",1,"Novel11",0,"Novel11",0,7354,1,"(May 01 2014 12:24:25)",TRUE,TRUE,FALSE,2,1,"Social",1,"km","eyescenter",-1,0,0,"-1",1
"965",2,1,1,6,TRUE,"May 01 2014","12:24:25",19,"Same",0,"Novel33",1,"Novel33",0,2184,1,"(May 01 2014 12:24:25)",TRUE,TRUE,FALSE,2,1,"Social",1,"km","eyescenter",-1,0,0,"-1",1
"965",2,1,1,7,TRUE,"May 01 2014","12:24:25",20,"Switch",0,"Novel18",0,"Novel18",1,9096,1,"(May 01 2014 12:24:25)",TRUE,TRUE,FALSE,2,1,"Social",1,"km","eyescenter",-1,0,0,"-1",1
"966",2,0.625,1,0,TRUE,"May 02 2014","17:20:29",9,"Switch",0,"Novel99",0,"Novel99",1,9519,3,"(May 02 2014 17:20:29)",TRUE,TRUE,TRUE,2,3,"Social",1,"km","eyescenter",-1,0,0,"-1",1
"966",2,0.625,1,1,TRUE,"May 02 2014","17:20:29",10,"Same",1,"Novel11",0,"Novel11",0,2485,3,"(May 02 2014 17:20:29)",TRUE,TRUE,FALSE,2,3,"Social",1,"km","eyescenter",-1,0,0,"-1",1
"966",2,0.625,1,2,TRUE,"May 02 2014","17:20:29",11,"Switch",1,"Novel122",0,"Novel122",0,1054,3,"(May 02 2014 17:20:29)",TRUE,TRUE,FALSE,2,3,"Social",1,"km","eyescenter",-1,0,0,"-1",1
"966",2,0.625,1,3,TRUE,"May 02 2014","17:20:29",12,"Same",0,"Novel84",1,"Novel84",0,1578,3,"(May 02 2014 17:20:29)",TRUE,TRUE,FALSE,2,3,"Social",1,"km","eyescenter",-1,0,0,"-1",1
"966",2,0.625,1,4,TRUE,"May 02 2014","17:20:29",17,"Switch",0,"Novel109",1,"Novel109",0,3894,3,"(May 02 2014 17:20:29)",TRUE,TRUE,FALSE,2,3,"Social",1,"km","eyescenter",-1,0,0,"-1",1
"966",2,0.625,1,5,FALSE,"May 02 2014","17:20:29",18,"Same",0,"Novel102",0,"Novel102",1,2154,3,"(May 02 2014 17:20:29)",TRUE,TRUE,FALSE,2,3,"Social",1,"km","eyescenter",-1,0,0,"-1",1
"966",2,0.625,1,6,FALSE,"May 02 2014","17:20:29",19,"Switch",1,"Novel33",1,"Novel33",1,1599,3,"(May 02 2014 17:20:29)",TRUE,TRUE,FALSE,2,3,"Social",1,"km","eyescenter",-1,0,0,"-1",1
"966",2,0.625,1,7,FALSE,"May 02 2014","17:20:29",20,"Same",1,"Novel25",0,"Novel25",0,965,3,"(May 02 2014 17:20:29)",TRUE,TRUE,FALSE,2,3,"Social",1,"km","eyescenter",-1,0,0,"-1",1
"967",2,0.875,1,0,FALSE,"May 02 2014","11:43:07",7,"Switch",1,"Novel109",1,"Novel109",1,3117,1,"(May 02 2014 11:43:07)",TRUE,TRUE,TRUE,2,1,"Social",1,"km","eyescenter",-1,0,0,"-1",1
"967",2,0.875,1,1,TRUE,"May 02 2014","11:43:07",8,"Same",0,"Novel24",0,"Novel24",1,1332,1,"(May 02 2014 11:43:07)",TRUE,TRUE,FALSE,2,1,"Social",1,"km","eyescenter",-1,0,0,"-1",1
"967",2,0.875,1,2,TRUE,"May 02 2014","11:43:07",11,"Switch",1,"Novel8",0,"Novel8",0,1202,1,"(May 02 2014 11:43:07)",TRUE,TRUE,FALSE,2,1,"Social",1,"km","eyescenter",-1,0,0,"-1",1
"967",2,0.875,1,3,TRUE,"May 02 2014","11:43:07",12,"Same",1,"Novel32",0,"Novel32",0,1019,1,"(May 02 2014 11:43:07)",TRUE,TRUE,FALSE,2,1,"Social",1,"km","eyescenter",-1,0,0,"-1",1
"967",2,0.875,1,4,TRUE,"May 02 2014","11:43:07",15,"Switch",0,"Novel29",1,"Novel29",0,4022,1,"(May 02 2014 11:43:07)",TRUE,TRUE,FALSE,2,1,"Social",1,"km","eyescenter",-1,0,0,"-1",1
"967",2,0.875,1,5,TRUE,"May 02 2014","11:43:07",16,"Same",1,"Novel41",1,"Novel41",1,1404,1,"(May 02 2014 11:43:07)",TRUE,TRUE,FALSE,2,1,"Social",1,"km","eyescenter",-1,0,0,"-1",1
"967",2,0.875,1,6,TRUE,"May 02 2014","11:43:07",19,"Switch",0,"Novel96",1,"Novel96",0,3245,1,"(May 02 2014 11:43:07)",TRUE,TRUE,FALSE,2,1,"Social",1,"km","eyescenter",-1,0,0,"-1",1
"967",2,0.875,1,7,TRUE,"May 02 2014","11:43:07",20,"Same",0,"Novel19",1,"Novel19",0,1343,1,"(May 02 2014 11:43:07)",TRUE,TRUE,FALSE,2,1,"Social",1,"km","eyescenter",-1,0,0,"-1",1
"968",2,0.875,1,0,TRUE,"May 02 2014","11:05:19",9,"Switch",0,"Novel45",0,"Novel45",1,3123,3,"(May 02 2014 11:05:19)",TRUE,TRUE,TRUE,2,3,"Social",1,"km","eyescenter",-1,0,0,"-1",1
"968",2,0.875,1,1,TRUE,"May 02 2014","11:05:19",10,"Same",0,"Novel20",0,"Novel20",1,922,3,"(May 02 2014 11:05:19)",TRUE,TRUE,FALSE,2,3,"Social",1,"km","eyescenter",-1,0,0,"-1",1
"968",2,0.875,1,2,FALSE,"May 02 2014","11:05:19",11,"Switch",1,"Novel47",1,"Novel47",1,2007,3,"(May 02 2014 11:05:19)",TRUE,TRUE,FALSE,2,3,"Social",1,"km","eyescenter",-1,0,0,"-1",1
"968",2,0.875,1,3,TRUE,"May 02 2014","11:05:19",12,"Same",1,"Novel69",0,"Novel69",0,916,3,"(May 02 2014 11:05:19)",TRUE,TRUE,FALSE,2,3,"Social",1,"km","eyescenter",-1,0,0,"-1",1
"968",2,0.875,1,4,TRUE,"May 02 2014","11:05:19",17,"Switch",0,"Novel106",1,"Novel106",0,1235,3,"(May 02 2014 11:05:19)",TRUE,TRUE,FALSE,2,3,"Social",1,"km","eyescenter",-1,0,0,"-1",1
"968",2,0.875,1,5,TRUE,"May 02 2014","11:05:19",18,"Same",1,"Novel125",0,"Novel125",0,892,3,"(May 02 2014 11:05:19)",TRUE,TRUE,FALSE,2,3,"Social",1,"km","eyescenter",-1,0,0,"-1",1
"968",2,0.875,1,6,TRUE,"May 02 2014","11:05:19",19,"Switch",1,"Novel138",1,"Novel138",1,1091,3,"(May 02 2014 11:05:19)",TRUE,TRUE,FALSE,2,3,"Social",1,"km","eyescenter",-1,0,0,"-1",1
"968",2,0.875,1,7,TRUE,"May 02 2014","11:05:19",20,"Same",0,"Novel18",1,"Novel18",0,2326,3,"(May 02 2014 11:05:19)",TRUE,TRUE,FALSE,2,3,"Social",1,"km","eyescenter",-1,0,0,"-1",1
"969",2,1,1,0,TRUE,"May 02 2014","12:07:20",6,"Switch",0,"Novel102",0,"Novel102",1,2969,4,"(May 02 2014 12:07:20)",TRUE,TRUE,TRUE,2,0,"Social",1,"km","eyescenter",-1,0,0,"-1",1
"969",2,1,1,1,TRUE,"May 02 2014","12:07:20",8,"Same",0,"Novel15",1,"Novel15",0,994,4,"(May 02 2014 12:07:20)",TRUE,TRUE,FALSE,2,0,"Social",1,"km","eyescenter",-1,0,0,"-1",1
"969",2,1,1,2,TRUE,"May 02 2014","12:07:20",10,"Switch",0,"Novel4",0,"Novel42",0,1004,4,"(May 02 2014 12:07:20)",FALSE,TRUE,FALSE,2,0,"Social",1,"km","eyescenter",-1,0,0,"-1",1
"969",2,1,1,3,TRUE,"May 02 2014","12:07:20",12,"Same",1,"Novel103",0,"Novel103",0,1103,4,"(May 02 2014 12:07:20)",TRUE,TRUE,FALSE,2,0,"Social",1,"km","eyescenter",-1,0,0,"-1",1
"969",2,1,1,4,TRUE,"May 02 2014","12:07:20",14,"Switch",1,"Novel74",1,"Novel22",0,851,4,"(May 02 2014 12:07:20)",FALSE,TRUE,FALSE,2,0,"Social",1,"km","eyescenter",-1,0,0,"-1",1
"969",2,1,1,5,TRUE,"May 02 2014","12:07:20",16,"Same",1,"Novel118",0,"Novel118",0,713,4,"(May 02 2014 12:07:20)",TRUE,TRUE,FALSE,2,0,"Social",1,"km","eyescenter",-1,0,0,"-1",1
"969",2,1,1,6,TRUE,"May 02 2014","12:07:20",18,"Switch",1,"Novel76",0,"Novel124",1,610,4,"(May 02 2014 12:07:20)",FALSE,TRUE,FALSE,2,0,"Social",1,"km","eyescenter",-1,0,0,"-1",1
"969",2,1,1,7,TRUE,"May 02 2014","12:07:20",20,"Same",0,"Novel49",0,"Novel49",1,626,4,"(May 02 2014 12:07:20)",TRUE,TRUE,FALSE,2,0,"Social",1,"km","eyescenter",-1,0,0,"-1",1
"971",2,0.5,0,0,TRUE,"May 02 2014","17:53:20",9,"Same",0,"Novel111",0,"Novel111",1,3075,3,"(May 02 2014 17:53:20)",TRUE,TRUE,TRUE,2,3,"Social",1,"km","eyescenter",-1,0,0,"-1",1
"971",2,0.5,0,1,FALSE,"May 02 2014","17:53:20",10,"Switch",0,"Novel64",1,"Novel64",0,4444,3,"(May 02 2014 17:53:20)",TRUE,TRUE,FALSE,2,3,"Social",1,"km","eyescenter",-1,0,0,"-1",1
"971",2,0.5,0,2,FALSE,"May 02 2014","17:53:20",11,"Same",0,"Novel74",1,"Novel74",0,4905,3,"(May 02 2014 17:53:20)",TRUE,TRUE,FALSE,2,3,"Social",1,"km","eyescenter",-1,0,0,"-1",1
"971",2,0.5,0,3,FALSE,"May 02 2014","17:53:20",12,"Switch",0,"Novel99",0,"Novel99",1,4017,3,"(May 02 2014 17:53:20)",TRUE,TRUE,FALSE,2,3,"Social",1,"km","eyescenter",-1,0,0,"-1",1
"971",2,0.5,0,4,FALSE,"May 02 2014","17:53:20",17,"Same",1,"Novel115",0,"Novel115",0,4303,3,"(May 02 2014 17:53:20)",TRUE,TRUE,FALSE,2,3,"Social",1,"km","eyescenter",-1,0,0,"-1",1
"971",2,0.5,0,5,TRUE,"May 02 2014","17:53:20",18,"Switch",1,"Novel138",0,"Novel138",0,5616,3,"(May 02 2014 17:53:20)",TRUE,TRUE,FALSE,2,3,"Social",1,"km","eyescenter",-1,0,0,"-1",1
"971",2,0.5,0,6,TRUE,"May 02 2014","17:53:20",19,"Same",1,"Novel53",0,"Novel53",0,4474,3,"(May 02 2014 17:53:20)",TRUE,TRUE,FALSE,2,3,"Social",1,"km","eyescenter",-1,0,0,"-1",1
"971",2,0.5,0,7,TRUE,"May 02 2014","17:53:20",20,"Switch",1,"Novel49",0,"Novel90",1,6635,3,"(May 02 2014 17:53:20)",FALSE,TRUE,FALSE,2,3,"Social",1,"km","eyescenter",-1,0,0,"-1",1
"973",2,0.5,0,0,TRUE,"May 02 2014","13:36:12",9,"Switch",0,"Novel115",1,"Novel115",0,2593,3,"(May 02 2014 13:36:12)",TRUE,TRUE,TRUE,2,3,"Social",1,"km","eyescenter",-1,0,0,"-1",1
"973",2,0.5,0,1,TRUE,"May 02 2014","13:36:12",10,"Same",0,"Novel36",1,"Novel36",0,2012,3,"(May 02 2014 13:36:12)",TRUE,TRUE,FALSE,2,3,"Social",1,"km","eyescenter",-1,0,0,"-1",1
"973",2,0.5,0,2,FALSE,"May 02 2014","13:36:12",11,"Switch",1,"Novel21",1,"Novel104",0,2319,3,"(May 02 2014 13:36:12)",FALSE,TRUE,FALSE,2,3,"Social",1,"km","eyescenter",-1,0,0,"-1",1
"973",2,0.5,0,3,FALSE,"May 02 2014","13:36:12",12,"Same",0,"Novel74",1,"Novel74",0,2058,3,"(May 02 2014 13:36:12)",TRUE,TRUE,FALSE,2,3,"Social",1,"km","eyescenter",-1,0,0,"-1",1
"973",2,0.5,0,4,TRUE,"May 02 2014","13:36:12",17,"Switch",1,"Novel100",1,"Novel22",0,3952,3,"(May 02 2014 13:36:12)",FALSE,TRUE,FALSE,2,3,"Social",1,"km","eyescenter",-1,0,0,"-1",1
"973",2,0.5,0,5,TRUE,"May 02 2014","13:36:12",18,"Same",1,"Novel30",1,"Novel30",1,1731,3,"(May 02 2014 13:36:12)",TRUE,TRUE,FALSE,2,3,"Social",1,"km","eyescenter",-1,0,0,"-1",1
"973",2,0.5,0,6,FALSE,"May 02 2014","13:36:12",19,"Switch",0,"Novel11",1,"Novel11",0,2094,3,"(May 02 2014 13:36:12)",TRUE,TRUE,FALSE,2,3,"Social",1,"km","eyescenter",-1,0,0,"-1",1
"973",2,0.5,0,7,FALSE,"May 02 2014","13:36:12",20,"Same",1,"Novel73",1,"Novel73",1,1449,3,"(May 02 2014 13:36:12)",TRUE,TRUE,FALSE,2,3,"Social",1,"km","eyescenter",-1,0,0,"-1",1
"975",2,0.875,1,0,FALSE,"May 02 2014","12:11:53",9,"Same",1,"Novel46",1,"Novel78",0,4201,3,"(May 02 2014 12:11:53)",FALSE,TRUE,TRUE,2,3,"Social",1,"km","eyescenter",-1,0,0,"-1",1
"975",2,0.875,1,1,TRUE,"May 02 2014","12:11:53",10,"Switch",0,"Novel130",1,"Novel15",1,4528,3,"(May 02 2014 12:11:53)",FALSE,TRUE,FALSE,2,3,"Social",1,"km","eyescenter",-1,0,0,"-1",1
"975",2,0.875,1,2,TRUE,"May 02 2014","12:11:53",11,"Same",1,"Novel99",1,"Novel99",1,2683,3,"(May 02 2014 12:11:53)",TRUE,TRUE,FALSE,2,3,"Social",1,"km","eyescenter",-1,0,0,"-1",1
"975",2,0.875,1,3,TRUE,"May 02 2014","12:11:53",12,"Switch",1,"Novel36",1,"Novel36",1,1447,3,"(May 02 2014 12:11:53)",TRUE,TRUE,FALSE,2,3,"Social",1,"km","eyescenter",-1,0,0,"-1",1
"975",2,0.875,1,4,TRUE,"May 02 2014","12:11:53",17,"Same",0,"Novel136",0,"Novel136",1,1981,3,"(May 02 2014 12:11:53)",TRUE,TRUE,FALSE,2,3,"Social",1,"km","eyescenter",-1,0,0,"-1",1
"975",2,0.875,1,5,TRUE,"May 02 2014","12:11:53",18,"Switch",0,"Novel109",0,"Novel109",1,940,3,"(May 02 2014 12:11:53)",TRUE,TRUE,FALSE,2,3,"Social",1,"km","eyescenter",-1,0,0,"-1",1
"975",2,0.875,1,6,TRUE,"May 02 2014","12:11:53",19,"Same",0,"Novel93",1,"Novel93",0,285,3,"(May 02 2014 12:11:53)",TRUE,TRUE,FALSE,2,3,"Social",1,"km","eyescenter",-1,0,0,"-1",0
"975",2,0.875,1,7,TRUE,"May 02 2014","12:11:53",20,"Switch",1,"Novel14",0,"Novel125",1,453,3,"(May 02 2014 12:11:53)",FALSE,TRUE,FALSE,2,3,"Social",1,"km","eyescenter",-1,0,0,"-1",0
"976",2,0.25,0,0,FALSE,"May 02 2014","17:12:10",6,"Switch",1,"Novel21",0,"Novel19",1,2226,4,"(May 02 2014 17:12:10)",FALSE,TRUE,TRUE,2,0,"Social",1,"km","eyescenter",-1,0,0,"-1",1
"976",2,0.25,0,1,FALSE,"May 02 2014","17:12:10",8,"Same",0,"Novel78",1,"Novel78",0,2061,4,"(May 02 2014 17:12:10)",TRUE,TRUE,FALSE,2,0,"Social",1,"km","eyescenter",-1,0,0,"-1",1
"976",2,0.25,0,2,FALSE,"May 02 2014","17:12:10",10,"Switch",0,"Novel3",1,"Novel3",0,1481,4,"(May 02 2014 17:12:10)",TRUE,TRUE,FALSE,2,0,"Social",1,"km","eyescenter",-1,0,0,"-1",1
"976",2,0.25,0,3,TRUE,"May 02 2014","17:12:10",12,"Same",1,"Novel121",1,"Novel121",1,1065,4,"(May 02 2014 17:12:10)",TRUE,TRUE,FALSE,2,0,"Social",1,"km","eyescenter",-1,0,0,"-1",1
"976",2,0.25,0,4,FALSE,"May 02 2014","17:12:10",14,"Switch",1,"Novel32",0,"Novel89",1,936,4,"(May 02 2014 17:12:10)",FALSE,TRUE,FALSE,2,0,"Social",1,"km","eyescenter",-1,0,0,"-1",1
"976",2,0.25,0,5,TRUE,"May 02 2014","17:12:10",16,"Same",1,"Novel83",1,"Novel83",1,1102,4,"(May 02 2014 17:12:10)",TRUE,TRUE,FALSE,2,0,"Social",1,"km","eyescenter",-1,0,0,"-1",1
"976",2,0.25,0,6,FALSE,"May 02 2014","17:12:10",18,"Switch",0,"Novel137",0,"Novel120",0,1572,4,"(May 02 2014 17:12:10)",FALSE,TRUE,FALSE,2,0,"Social",1,"km","eyescenter",-1,0,0,"-1",1
"976",2,0.25,0,7,FALSE,"May 02 2014","17:12:10",20,"Same",0,"Novel122",1,"Novel122",0,839,4,"(May 02 2014 17:12:10)",TRUE,TRUE,FALSE,2,0,"Social",1,"km","eyescenter",-1,0,0,"-1",1
"978",2,0.25,0,0,FALSE,"May 02 2014","13:24:59",13,"Switch",0,"Novel79",1,"Novel79",0,1522,2,"(May 02 2014 13:24:59)",TRUE,TRUE,TRUE,2,7,"Social",1,"km","eyescenter",-1,0,0,"-1",1
"978",2,0.25,0,1,FALSE,"May 02 2014","13:24:59",14,"Same",1,"Novel20",0,"Novel3",1,1804,2,"(May 02 2014 13:24:59)",FALSE,TRUE,FALSE,2,7,"Social",1,"km","eyescenter",-1,0,0,"-1",1
"978",2,0.25,0,2,FALSE,"May 02 2014","13:24:59",15,"Switch",1,"Novel90",0,"Novel126",1,1116,2,"(May 02 2014 13:24:59)",FALSE,TRUE,FALSE,2,7,"Social",1,"km","eyescenter",-1,0,0,"-1",1
"978",2,0.25,0,3,FALSE,"May 02 2014","13:24:59",16,"Same",0,"Novel84",1,"Novel84",0,1121,2,"(May 02 2014 13:24:59)",TRUE,TRUE,FALSE,2,7,"Social",1,"km","eyescenter",-1,0,0,"-1",1
"978",2,0.25,0,4,TRUE,"May 02 2014","13:24:59",17,"Switch",1,"Novel21",0,"Novel110",1,1395,2,"(May 02 2014 13:24:59)",FALSE,TRUE,FALSE,2,7,"Social",1,"km","eyescenter",-1,0,0,"-1",1
"978",2,0.25,0,5,TRUE,"May 02 2014","13:24:59",18,"Same",0,"Novel6",1,"Novel6",0,1657,2,"(May 02 2014 13:24:59)",TRUE,TRUE,FALSE,2,7,"Social",1,"km","eyescenter",-1,0,0,"-1",1
"978",2,0.25,0,6,FALSE,"May 02 2014","13:24:59",19,"Switch",0,"Novel30",1,"Novel30",0,1387,2,"(May 02 2014 13:24:59)",TRUE,TRUE,FALSE,2,7,"Social",1,"km","eyescenter",-1,0,0,"-1",1
"978",2,0.25,0,7,FALSE,"May 02 2014","13:24:59",20,"Same",1,"Novel24",1,"Novel24",1,1180,2,"(May 02 2014 13:24:59)",TRUE,TRUE,FALSE,2,7,"Social",1,"km","eyescenter",-1,0,0,"-1",1
"979",2,1,1,0,TRUE,"May 02 2014","15:46:52",7,"Same",1,"Novel122",1,"Novel122",1,898,1,"(May 02 2014 15:46:52)",TRUE,TRUE,TRUE,2,1,"Social",1,"km","eyescenter",-1,0,0,"-1",1
"979",2,1,1,1,TRUE,"May 02 2014","15:46:52",8,"Switch",0,"Novel119",1,"Novel119",0,852,1,"(May 02 2014 15:46:52)",TRUE,TRUE,FALSE,2,1,"Social",1,"km","eyescenter",-1,0,0,"-1",1
"979",2,1,1,2,TRUE,"May 02 2014","15:46:52",11,"Same",0,"Novel106",1,"Novel106",0,678,1,"(May 02 2014 15:46:52)",TRUE,TRUE,FALSE,2,1,"Social",1,"km","eyescenter",-1,0,0,"-1",1
"979",2,1,1,3,TRUE,"May 02 2014","15:46:52",12,"Switch",0,"Novel45",0,"Novel45",1,852,1,"(May 02 2014 15:46:52)",TRUE,TRUE,FALSE,2,1,"Social",1,"km","eyescenter",-1,0,0,"-1",1
"979",2,1,1,4,TRUE,"May 02 2014","15:46:52",15,"Same",1,"Novel25",0,"Novel25",0,514,1,"(May 02 2014 15:46:52)",TRUE,TRUE,FALSE,2,1,"Social",1,"km","eyescenter",-1,0,0,"-1",1
"979",2,1,1,5,TRUE,"May 02 2014","15:46:52",16,"Switch",1,"Novel1",1,"Novel59",0,2321,1,"(May 02 2014 15:46:52)",FALSE,TRUE,FALSE,2,1,"Social",1,"km","eyescenter",-1,0,0,"-1",1
"979",2,1,1,6,TRUE,"May 02 2014","15:46:52",19,"Same",0,"Novel103",0,"Novel103",1,92,1,"(May 02 2014 15:46:52)",TRUE,TRUE,FALSE,2,1,"Social",1,"km","eyescenter",-1,0,0,"-1",0
"979",2,1,1,7,TRUE,"May 02 2014","15:46:52",20,"Switch",1,"Novel85",1,"Novel6",0,7468,1,"(May 02 2014 15:46:52)",FALSE,TRUE,FALSE,2,1,"Social",1,"km","eyescenter",-1,0,0,"-1",1
"981",2,0.625,1,0,TRUE,"May 02 2014","12:41:19",13,"Same",1,"Novel4",0,"Novel79",1,2890,2,"(May 02 2014 12:41:19)",FALSE,TRUE,TRUE,2,7,"Social",1,"km","eyescenter",-1,0,0,"-1",1
"981",2,0.625,1,1,TRUE,"May 02 2014","12:41:19",14,"Switch",1,"Novel3",1,"Novel3",1,2624,2,"(May 02 2014 12:41:19)",TRUE,TRUE,FALSE,2,7,"Social",1,"km","eyescenter",-1,0,0,"-1",1
"981",2,0.625,1,2,FALSE,"May 02 2014","12:41:19",15,"Same",1,"Novel102",1,"Novel102",1,1613,2,"(May 02 2014 12:41:19)",TRUE,TRUE,FALSE,2,7,"Social",1,"km","eyescenter",-1,0,0,"-1",1
"981",2,0.625,1,3,TRUE,"May 02 2014","12:41:19",16,"Switch",1,"Novel57",0,"Novel57",0,2250,2,"(May 02 2014 12:41:19)",TRUE,TRUE,FALSE,2,7,"Social",1,"km","eyescenter",-1,0,0,"-1",1
"981",2,0.625,1,4,TRUE,"May 02 2014","12:41:19",17,"Same",0,"Novel30",1,"Novel30",0,1552,2,"(May 02 2014 12:41:19)",TRUE,TRUE,FALSE,2,7,"Social",1,"km","eyescenter",-1,0,0,"-1",1
"981",2,0.625,1,5,FALSE,"May 02 2014","12:41:19",18,"Switch",0,"Novel140",0,"Novel140",1,1432,2,"(May 02 2014 12:41:19)",TRUE,TRUE,FALSE,2,7,"Social",1,"km","eyescenter",-1,0,0,"-1",1
"981",2,0.625,1,6,FALSE,"May 02 2014","12:41:19",19,"Same",0,"Novel130",1,"Novel130",0,1599,2,"(May 02 2014 12:41:19)",TRUE,TRUE,FALSE,2,7,"Social",1,"km","eyescenter",-1,0,0,"-1",1
"981",2,0.625,1,7,TRUE,"May 02 2014","12:41:19",20,"Switch",0,"Novel22",0,"Novel22",1,2898,2,"(May 02 2014 12:41:19)",TRUE,TRUE,FALSE,2,7,"Social",1,"km","eyescenter",-1,0,0,"-1",1
"982",2,0.375,0,0,TRUE,"May 02 2014","14:26:07",9,"Same",1,"Novel117",0,"Novel117",0,2050,3,"(May 02 2014 14:26:07)",TRUE,TRUE,TRUE,2,3,"Social",1,"km","eyescenter",-1,0,0,"-1",1
"982",2,0.375,0,1,FALSE,"May 02 2014","14:26:07",10,"Switch",0,"Novel107",0,"Novel107",1,2702,3,"(May 02 2014 14:26:07)",TRUE,TRUE,FALSE,2,3,"Social",1,"km","eyescenter",-1,0,0,"-1",1
"982",2,0.375,0,2,FALSE,"May 02 2014","14:26:07",11,"Same",0,"Novel11",0,"Novel11",1,1454,3,"(May 02 2014 14:26:07)",TRUE,TRUE,FALSE,2,3,"Social",1,"km","eyescenter",-1,0,0,"-1",1
"982",2,0.375,0,3,FALSE,"May 02 2014","14:26:07",12,"Switch",1,"Novel109",1,"Novel109",1,1641,3,"(May 02 2014 14:26:07)",TRUE,TRUE,FALSE,2,3,"Social",1,"km","eyescenter",-1,0,0,"-1",1
"982",2,0.375,0,4,TRUE,"May 02 2014","14:26:07",17,"Same",1,"Novel86",0,"Novel86",0,1250,3,"(May 02 2014 14:26:07)",TRUE,TRUE,FALSE,2,3,"Social",1,"km","eyescenter",-1,0,0,"-1",1
"982",2,0.375,0,5,FALSE,"May 02 2014","14:26:07",18,"Switch",0,"Novel103",0,"Novel103",1,1303,3,"(May 02 2014 14:26:07)",TRUE,TRUE,FALSE,2,3,"Social",1,"km","eyescenter",-1,0,0,"-1",1
"982",2,0.375,0,6,TRUE,"May 02 2014","14:26:07",19,"Same",0,"Novel1",1,"Novel1",0,1181,3,"(May 02 2014 14:26:07)",TRUE,TRUE,FALSE,2,3,"Social",1,"km","eyescenter",-1,0,0,"-1",1
"982",2,0.375,0,7,FALSE,"May 02 2014","14:26:07",20,"Switch",1,"Novel130",1,"Novel130",1,2056,3,"(May 02 2014 14:26:07)",TRUE,TRUE,FALSE,2,3,"Social",1,"km","eyescenter",-1,0,0,"-1",1
"983",2,0.875,1,0,TRUE,"May 02 2014","14:06:32",7,"Switch",0,"Novel116",1,"Novel116",0,1726,1,"(May 02 2014 14:06:32)",TRUE,TRUE,TRUE,2,1,"Social",1,"km","eyescenter",-1,0,0,"-1",1
"983",2,0.875,1,1,FALSE,"May 02 2014","14:06:32",8,"Same",1,"Novel43",0,"Novel43",0,1237,1,"(May 02 2014 14:06:32)",TRUE,TRUE,FALSE,2,1,"Social",1,"km","eyescenter",-1,0,0,"-1",1
"983",2,0.875,1,2,TRUE,"May 02 2014","14:06:32",11,"Switch",1,"Novel123",0,"Novel123",0,1614,1,"(May 02 2014 14:06:32)",TRUE,TRUE,FALSE,2,1,"Social",1,"km","eyescenter",-1,0,0,"-1",1
"983",2,0.875,1,3,TRUE,"May 02 2014","14:06:32",12,"Same",0,"Novel132",1,"Novel132",0,690,1,"(May 02 2014 14:06:32)",TRUE,TRUE,FALSE,2,1,"Social",1,"km","eyescenter",-1,0,0,"-1",1
"983",2,0.875,1,4,TRUE,"May 02 2014","14:06:32",15,"Switch",1,"Novel72",1,"Novel72",1,2169,1,"(May 02 2014 14:06:32)",TRUE,TRUE,FALSE,2,1,"Social",1,"km","eyescenter",-1,0,0,"-1",1
"983",2,0.875,1,5,TRUE,"May 02 2014","14:06:32",16,"Same",1,"Novel88",0,"Novel88",0,857,1,"(May 02 2014 14:06:32)",TRUE,TRUE,FALSE,2,1,"Social",1,"km","eyescenter",-1,0,0,"-1",1
"983",2,0.875,1,6,TRUE,"May 02 2014","14:06:32",19,"Switch",0,"Novel95",0,"Novel78",0,1694,1,"(May 02 2014 14:06:32)",FALSE,TRUE,FALSE,2,1,"Social",1,"km","eyescenter",-1,0,0,"-1",1
"983",2,0.875,1,7,TRUE,"May 02 2014","14:06:32",20,"Same",0,"Novel15",1,"Novel15",0,521,1,"(May 02 2014 14:06:32)",TRUE,TRUE,FALSE,2,1,"Social",1,"km","eyescenter",-1,0,0,"-1",1
"984",2,0.75,1,0,TRUE,"May 02 2014","13:23:45",7,"Switch",1,"Novel76",1,"Novel76",1,2483,1,"(May 02 2014 13:23:45)",TRUE,TRUE,TRUE,2,1,"Social",1,"km","eyescenter",-1,0,0,"-1",1
"984",2,0.75,1,1,TRUE,"May 02 2014","13:23:45",8,"Same",0,"Novel3",1,"Novel3",0,1086,1,"(May 02 2014 13:23:45)",TRUE,TRUE,FALSE,2,1,"Social",1,"km","eyescenter",-1,0,0,"-1",1
"984",2,0.75,1,2,TRUE,"May 02 2014","13:23:45",11,"Switch",0,"Novel36",1,"Novel36",0,1368,1,"(May 02 2014 13:23:45)",TRUE,TRUE,FALSE,2,1,"Social",1,"km","eyescenter",-1,0,0,"-1",1
"984",2,0.75,1,3,TRUE,"May 02 2014","13:23:45",12,"Same",0,"Novel13",1,"Novel13",0,1168,1,"(May 02 2014 13:23:45)",TRUE,TRUE,FALSE,2,1,"Social",1,"km","eyescenter",-1,0,0,"-1",1
"984",2,0.75,1,4,TRUE,"May 02 2014","13:23:45",15,"Switch",0,"Novel101",1,"Novel120",1,5193,1,"(May 02 2014 13:23:45)",FALSE,TRUE,FALSE,2,1,"Social",1,"km","eyescenter",-1,0,0,"-1",1
"984",2,0.75,1,5,TRUE,"May 02 2014","13:23:45",16,"Same",1,"Novel52",1,"Novel52",1,1210,1,"(May 02 2014 13:23:45)",TRUE,TRUE,FALSE,2,1,"Social",1,"km","eyescenter",-1,0,0,"-1",1
"984",2,0.75,1,6,FALSE,"May 02 2014","13:23:45",19,"Switch",1,"Novel129",0,"Novel8",1,3416,1,"(May 02 2014 13:23:45)",FALSE,TRUE,FALSE,2,1,"Social",1,"km","eyescenter",-1,0,0,"-1",1
"984",2,0.75,1,7,FALSE,"May 02 2014","13:23:45",20,"Same",1,"Novel127",0,"Novel127",0,1077,1,"(May 02 2014 13:23:45)",TRUE,TRUE,FALSE,2,1,"Social",1,"km","eyescenter",-1,0,0,"-1",1
"986",2,0.875,1,0,FALSE,"May 02 2014","12:05:43",6,"Same",1,"Novel3",0,"Novel3",0,2366,4,"(May 02 2014 12:05:43)",TRUE,TRUE,TRUE,2,0,"Social",1,"km","eyescenter",-1,0,0,"-1",1
"986",2,0.875,1,1,TRUE,"May 02 2014","12:05:43",8,"Switch",0,"Novel84",0,"Novel84",1,1631,4,"(May 02 2014 12:05:43)",TRUE,TRUE,FALSE,2,0,"Social",1,"km","eyescenter",-1,0,0,"-1",1
"986",2,0.875,1,2,TRUE,"May 02 2014","12:05:43",10,"Same",0,"Novel57",1,"Novel57",0,2307,4,"(May 02 2014 12:05:43)",TRUE,TRUE,FALSE,2,0,"Social",1,"km","eyescenter",-1,0,0,"-1",1
"986",2,0.875,1,3,TRUE,"May 02 2014","12:05:43",12,"Switch",1,"Novel7",1,"Novel7",1,2254,4,"(May 02 2014 12:05:43)",TRUE,TRUE,FALSE,2,0,"Social",1,"km","eyescenter",-1,0,0,"-1",1
"986",2,0.875,1,4,TRUE,"May 02 2014","12:05:43",14,"Same",0,"Novel60",0,"Novel60",1,1665,4,"(May 02 2014 12:05:43)",TRUE,TRUE,FALSE,2,0,"Social",1,"km","eyescenter",-1,0,0,"-1",1
"986",2,0.875,1,5,TRUE,"May 02 2014","12:05:43",16,"Switch",1,"Novel24",1,"Novel24",1,2444,4,"(May 02 2014 12:05:43)",TRUE,TRUE,FALSE,2,0,"Social",1,"km","eyescenter",-1,0,0,"-1",1
"986",2,0.875,1,6,TRUE,"May 02 2014","12:05:43",18,"Same",1,"Novel58",1,"Novel58",1,915,4,"(May 02 2014 12:05:43)",TRUE,TRUE,FALSE,2,0,"Social",1,"km","eyescenter",-1,0,0,"-1",1
"986",2,0.875,1,7,TRUE,"May 02 2014","12:05:43",20,"Switch",0,"Novel107",0,"Novel44",0,1577,4,"(May 02 2014 12:05:43)",FALSE,TRUE,FALSE,2,0,"Social",1,"km","eyescenter",-1,0,0,"-1",1
"987",2,1,1,0,TRUE,"May 02 2014","19:39:33",7,"Switch",1,"Novel128",0,"Novel116",1,3610,1,"(May 02 2014 19:39:33)",FALSE,TRUE,TRUE,2,1,"Social",1,"km","eyescenter",-1,0,0,"-1",1
"987",2,1,1,1,TRUE,"May 02 2014","19:39:33",8,"Same",1,"Novel58",0,"Novel58",0,1083,1,"(May 02 2014 19:39:33)",TRUE,TRUE,FALSE,2,1,"Social",1,"km","eyescenter",-1,0,0,"-1",1
"987",2,1,1,2,TRUE,"May 02 2014","19:39:33",11,"Switch",0,"Novel52",1,"Novel52",0,897,1,"(May 02 2014 19:39:33)",TRUE,TRUE,FALSE,2,1,"Social",1,"km","eyescenter",-1,0,0,"-1",1
"987",2,1,1,3,TRUE,"May 02 2014","19:39:33",12,"Same",1,"Novel83",1,"Novel83",1,696,1,"(May 02 2014 19:39:33)",TRUE,TRUE,FALSE,2,1,"Social",1,"km","eyescenter",-1,0,0,"-1",1
"987",2,1,1,4,TRUE,"May 02 2014","19:39:33",15,"Switch",0,"Novel133",0,"Novel133",1,1165,1,"(May 02 2014 19:39:33)",TRUE,TRUE,FALSE,2,1,"Social",1,"km","eyescenter",-1,0,0,"-1",1
"987",2,1,1,5,TRUE,"May 02 2014","19:39:33",16,"Same",0,"Novel28",1,"Novel28",0,350,1,"(May 02 2014 19:39:33)",TRUE,TRUE,FALSE,2,1,"Social",1,"km","eyescenter",-1,0,0,"-1",0
"987",2,1,1,6,TRUE,"May 02 2014","19:39:33",19,"Switch",1,"Novel23",0,"Novel2",1,804,1,"(May 02 2014 19:39:33)",FALSE,TRUE,FALSE,2,1,"Social",1,"km","eyescenter",-1,0,0,"-1",1
"987",2,1,1,7,TRUE,"May 02 2014","19:39:33",20,"Same",0,"Novel59",1,"Novel59",0,252,1,"(May 02 2014 19:39:33)",TRUE,TRUE,FALSE,2,1,"Social",1,"km","eyescenter",-1,0,0,"-1",0
"990",2,1,1,0,TRUE,"May 02 2014","13:38:22",13,"Same",0,"Novel17",0,"Novel17",1,1333,2,"(May 02 2014 13:38:22)",TRUE,TRUE,TRUE,2,7,"Social",1,"km","eyescenter",-1,0,0,"-1",1
"990",2,1,1,1,TRUE,"May 02 2014","13:38:22",14,"Switch",1,"Novel94",1,"Novel140",0,3672,2,"(May 02 2014 13:38:22)",FALSE,TRUE,FALSE,2,7,"Social",1,"km","eyescenter",-1,0,0,"-1",1
"990",2,1,1,2,TRUE,"May 02 2014","13:38:22",15,"Same",1,"Novel103",0,"Novel103",0,1237,2,"(May 02 2014 13:38:22)",TRUE,TRUE,FALSE,2,7,"Social",1,"km","eyescenter",-1,0,0,"-1",1
"990",2,1,1,3,TRUE,"May 02 2014","13:38:22",16,"Switch",1,"Novel77",1,"Novel77",1,2454,2,"(May 02 2014 13:38:22)",TRUE,TRUE,FALSE,2,7,"Social",1,"km","eyescenter",-1,0,0,"-1",1
"990",2,1,1,4,TRUE,"May 02 2014","13:38:22",17,"Same",1,"Novel85",0,"Novel85",0,957,2,"(May 02 2014 13:38:22)",TRUE,TRUE,FALSE,2,7,"Social",1,"km","eyescenter",-1,0,0,"-1",1
"990",2,1,1,5,TRUE,"May 02 2014","13:38:22",18,"Switch",0,"Novel90",1,"Novel90",0,987,2,"(May 02 2014 13:38:22)",TRUE,TRUE,FALSE,2,7,"Social",1,"km","eyescenter",-1,0,0,"-1",1
"990",2,1,1,6,TRUE,"May 02 2014","13:38:22",19,"Same",0,"Novel11",0,"Novel11",1,907,2,"(May 02 2014 13:38:22)",TRUE,TRUE,FALSE,2,7,"Social",1,"km","eyescenter",-1,0,0,"-1",1
"990",2,1,1,7,TRUE,"May 02 2014","13:38:22",20,"Switch",0,"Novel105",0,"Novel105",1,1093,2,"(May 02 2014 13:38:22)",TRUE,TRUE,FALSE,2,7,"Social",1,"km","eyescenter",-1,0,0,"-1",1
"992",2,0.625,1,0,FALSE,"May 02 2014","14:45:58",7,"Same",0,"Novel24",1,"Novel24",0,2490,1,"(May 02 2014 14:45:58)",TRUE,TRUE,TRUE,2,1,"Social",1,"km","eyescenter",-1,0,0,"-1",1
"992",2,0.625,1,1,TRUE,"May 02 2014","14:45:58",8,"Switch",0,"Novel107",0,"Novel107",1,1235,1,"(May 02 2014 14:45:58)",TRUE,TRUE,FALSE,2,1,"Social",1,"km","eyescenter",-1,0,0,"-1",1
"992",2,0.625,1,2,TRUE,"May 02 2014","14:45:58",11,"Same",0,"Novel126",1,"Novel126",0,3002,1,"(May 02 2014 14:45:58)",TRUE,TRUE,FALSE,2,1,"Social",1,"km","eyescenter",-1,0,0,"-1",1
"992",2,0.625,1,3,TRUE,"May 02 2014","14:45:58",12,"Switch",0,"Novel73",0,"Novel73",1,2098,1,"(May 02 2014 14:45:58)",TRUE,TRUE,FALSE,2,1,"Social",1,"km","eyescenter",-1,0,0,"-1",1
"992",2,0.625,1,4,FALSE,"May 02 2014","14:45:58",15,"Same",1,"Novel105",1,"Novel105",1,1855,1,"(May 02 2014 14:45:58)",TRUE,TRUE,FALSE,2,1,"Social",1,"km","eyescenter",-1,0,0,"-1",1
"992",2,0.625,1,5,FALSE,"May 02 2014","14:45:58",16,"Switch",1,"Novel39",1,"Novel39",1,1262,1,"(May 02 2014 14:45:58)",TRUE,TRUE,FALSE,2,1,"Social",1,"km","eyescenter",-1,0,0,"-1",1
"992",2,0.625,1,6,TRUE,"May 02 2014","14:45:58",19,"Same",1,"Novel109",0,"Novel3",1,1767,1,"(May 02 2014 14:45:58)",FALSE,TRUE,FALSE,2,1,"Social",1,"km","eyescenter",-1,0,0,"-1",1
"992",2,0.625,1,7,TRUE,"May 02 2014","14:45:58",20,"Switch",1,"Novel94",1,"Novel94",1,1805,1,"(May 02 2014 14:45:58)",TRUE,TRUE,FALSE,2,1,"Social",1,"km","eyescenter",-1,0,0,"-1",1
"993",2,0.5,0,0,TRUE,"May 02 2014","16:22:11",6,"Switch",1,"Novel83",0,"Novel83",0,1552,4,"(May 02 2014 16:22:11)",TRUE,TRUE,TRUE,2,0,"Social",1,"km","eyescenter",-1,0,0,"-1",1
"993",2,0.5,0,1,FALSE,"May 02 2014","16:22:11",8,"Same",0,"Novel97",1,"Novel97",0,767,4,"(May 02 2014 16:22:11)",TRUE,TRUE,FALSE,2,0,"Social",1,"km","eyescenter",-1,0,0,"-1",1
"993",2,0.5,0,2,FALSE,"May 02 2014","16:22:11",10,"Switch",0,"Novel67",0,"Novel67",1,644,4,"(May 02 2014 16:22:11)",TRUE,TRUE,FALSE,2,0,"Social",1,"km","eyescenter",-1,0,0,"-1",1
"993",2,0.5,0,3,TRUE,"May 02 2014","16:22:11",12,"Same",0,"Novel85",1,"Novel85",0,927,4,"(May 02 2014 16:22:11)",TRUE,TRUE,FALSE,2,0,"Social",1,"km","eyescenter",-1,0,0,"-1",1
"993",2,0.5,0,4,FALSE,"May 02 2014","16:22:11",14,"Switch",1,"Novel115",1,"Novel115",1,804,4,"(May 02 2014 16:22:11)",TRUE,TRUE,FALSE,2,0,"Social",1,"km","eyescenter",-1,0,0,"-1",1
"993",2,0.5,0,5,TRUE,"May 02 2014","16:22:11",16,"Same",1,"Novel92",0,"Novel92",0,646,4,"(May 02 2014 16:22:11)",TRUE,TRUE,FALSE,2,0,"Social",1,"km","eyescenter",-1,0,0,"-1",1
"993",2,0.5,0,6,FALSE,"May 02 2014","16:22:11",18,"Switch",0,"Novel42",0,"Novel42",1,661,4,"(May 02 2014 16:22:11)",TRUE,TRUE,FALSE,2,0,"Social",1,"km","eyescenter",-1,0,0,"-1",1
"993",2,0.5,0,7,TRUE,"May 02 2014","16:22:11",20,"Same",1,"Novel138",1,"Novel138",1,1160,4,"(May 02 2014 16:22:11)",TRUE,TRUE,FALSE,2,0,"Social",1,"km","eyescenter",-1,0,0,"-1",1
"995",2,1,1,0,TRUE,"May 02 2014","16:00:36",13,"Same",0,"Novel62",1,"Novel62",0,1493,2,"(May 02 2014 16:00:36)",TRUE,TRUE,TRUE,2,7,"Social",1,"km","eyescenter",-1,0,0,"-1",1
"995",2,1,1,1,TRUE,"May 02 2014","16:00:36",14,"Switch",1,"Novel115",0,"Novel115",0,1020,2,"(May 02 2014 16:00:36)",TRUE,TRUE,FALSE,2,7,"Social",1,"km","eyescenter",-1,0,0,"-1",1
"995",2,1,1,2,TRUE,"May 02 2014","16:00:36",15,"Same",1,"Novel139",1,"Novel139",1,1318,2,"(May 02 2014 16:00:36)",TRUE,TRUE,FALSE,2,7,"Social",1,"km","eyescenter",-1,0,0,"-1",1
"995",2,1,1,3,TRUE,"May 02 2014","16:00:36",16,"Switch",1,"Novel29",0,"Novel82",1,3003,2,"(May 02 2014 16:00:36)",FALSE,TRUE,FALSE,2,7,"Social",1,"km","eyescenter",-1,0,0,"-1",1
"995",2,1,1,4,TRUE,"May 02 2014","16:00:36",17,"Same",1,"Novel51",1,"Novel51",1,928,2,"(May 02 2014 16:00:36)",TRUE,TRUE,FALSE,2,7,"Social",1,"km","eyescenter",-1,0,0,"-1",1
"995",2,1,1,5,TRUE,"May 02 2014","16:00:36",18,"Switch",0,"Novel43",0,"Novel7",0,1553,2,"(May 02 2014 16:00:36)",FALSE,TRUE,FALSE,2,7,"Social",1,"km","eyescenter",-1,0,0,"-1",1
"995",2,1,1,6,TRUE,"May 02 2014","16:00:36",19,"Same",0,"Novel50",0,"Novel50",1,1168,2,"(May 02 2014 16:00:36)",TRUE,TRUE,FALSE,2,7,"Social",1,"km","eyescenter",-1,0,0,"-1",1
"995",2,1,1,7,TRUE,"May 02 2014","16:00:36",20,"Switch",0,"Novel54",0,"Novel137",0,1333,2,"(May 02 2014 16:00:36)",FALSE,TRUE,FALSE,2,7,"Social",1,"km","eyescenter",-1,0,0,"-1",1
"999",2,1,1,0,TRUE,"May 02 2014","15:09:26",9,"Same",0,"Novel120",0,"Novel120",1,1343,3,"(May 02 2014 15:09:26)",TRUE,TRUE,TRUE,2,3,"Social",1,"km","eyescenter",-1,0,0,"-1",1
"999",2,1,1,1,TRUE,"May 02 2014","15:09:26",10,"Switch",0,"Novel132",1,"Novel132",0,651,3,"(May 02 2014 15:09:26)",TRUE,TRUE,FALSE,2,3,"Social",1,"km","eyescenter",-1,0,0,"-1",1
"999",2,1,1,2,TRUE,"May 02 2014","15:09:26",11,"Same",1,"Novel101",0,"Novel101",0,633,3,"(May 02 2014 15:09:26)",TRUE,TRUE,FALSE,2,3,"Social",1,"km","eyescenter",-1,0,0,"-1",1
"999",2,1,1,3,TRUE,"May 02 2014","15:09:26",12,"Switch",1,"Novel86",1,"Novel123",0,898,3,"(May 02 2014 15:09:26)",FALSE,TRUE,FALSE,2,3,"Social",1,"km","eyescenter",-1,0,0,"-1",1
"999",2,1,1,4,TRUE,"May 02 2014","15:09:26",17,"Same",1,"Novel125",1,"Novel125",1,978,3,"(May 02 2014 15:09:26)",TRUE,TRUE,FALSE,2,3,"Social",1,"km","eyescenter",-1,0,0,"-1",1
"999",2,1,1,5,TRUE,"May 02 2014","15:09:26",18,"Switch",0,"Novel92",0,"Novel92",1,1719,3,"(May 02 2014 15:09:26)",TRUE,TRUE,FALSE,2,3,"Social",1,"km","eyescenter",-1,0,0,"-1",1
"999",2,1,1,6,TRUE,"May 02 2014","15:09:26",19,"Same",0,"Novel112",1,"Novel112",0,566,3,"(May 02 2014 15:09:26)",TRUE,TRUE,FALSE,2,3,"Social",1,"km","eyescenter",-1,0,0,"-1",1
"999",2,1,1,7,TRUE,"May 02 2014","15:09:26",20,"Switch",1,"Novel7",0,"Novel70",1,718,3,"(May 02 2014 15:09:26)",FALSE,TRUE,FALSE,2,3,"Social",1,"km","eyescenter",-1,0,0,"-1",1
"1002",2,1,1,0,TRUE,"May 01 2014","20:25:49",6,"Switch",0,"Novel114",1,"Novel114",0,2572,4,"(May 01 2014 20:25:49)",TRUE,TRUE,TRUE,2,0,"Social",1,"km","eyescenter",-1,0,0,"-1",1
"1002",2,1,1,1,TRUE,"May 01 2014","20:25:49",8,"Same",0,"Novel127",1,"Novel127",0,1046,4,"(May 01 2014 20:25:49)",TRUE,TRUE,FALSE,2,0,"Social",1,"km","eyescenter",-1,0,0,"-1",1
"1002",2,1,1,2,TRUE,"May 01 2014","20:25:49",10,"Switch",0,"Novel52",0,"Novel128",0,1339,4,"(May 01 2014 20:25:49)",FALSE,TRUE,FALSE,2,0,"Social",1,"km","eyescenter",-1,0,0,"-1",1
"1002",2,1,1,3,TRUE,"May 01 2014","20:25:49",12,"Same",1,"Novel72",0,"Novel72",0,530,4,"(May 01 2014 20:25:49)",TRUE,TRUE,FALSE,2,0,"Social",1,"km","eyescenter",-1,0,0,"-1",1
"1002",2,1,1,4,TRUE,"May 01 2014","20:25:49",14,"Switch",1,"Novel82",0,"Novel82",0,1614,4,"(May 01 2014 20:25:49)",TRUE,TRUE,FALSE,2,0,"Social",1,"km","eyescenter",-1,0,0,"-1",1
"1002",2,1,1,5,TRUE,"May 01 2014","20:25:49",16,"Same",1,"Novel63",1,"Novel63",1,465,4,"(May 01 2014 20:25:49)",TRUE,TRUE,FALSE,2,0,"Social",1,"km","eyescenter",-1,0,0,"-1",0
"1002",2,1,1,6,TRUE,"May 01 2014","20:25:49",18,"Switch",1,"Novel102",1,"Novel102",1,596,4,"(May 01 2014 20:25:49)",TRUE,TRUE,FALSE,2,0,"Social",1,"km","eyescenter",-1,0,0,"-1",1
"1002",2,1,1,7,TRUE,"May 01 2014","20:25:49",20,"Same",0,"Novel66",0,"Novel66",1,813,4,"(May 01 2014 20:25:49)",TRUE,TRUE,FALSE,2,0,"Social",1,"km","eyescenter",-1,0,0,"-1",1
"1003",2,1,1,0,TRUE,"May 02 2014","10:54:30",7,"Same",1,"Novel95",0,"Novel95",0,1780,1,"(May 02 2014 10:54:30)",TRUE,TRUE,TRUE,2,1,"Social",1,"km","eyescenter",-1,0,0,"-1",1
"1003",2,1,1,1,TRUE,"May 02 2014","10:54:30",8,"Switch",1,"Novel14",0,"Novel139",1,2438,1,"(May 02 2014 10:54:30)",FALSE,TRUE,FALSE,2,1,"Social",1,"km","eyescenter",-1,0,0,"-1",1
"1003",2,1,1,2,TRUE,"May 02 2014","10:54:30",11,"Same",1,"Novel38",0,"Novel38",0,1158,1,"(May 02 2014 10:54:30)",TRUE,TRUE,FALSE,2,1,"Social",1,"km","eyescenter",-1,0,0,"-1",1
"1003",2,1,1,3,TRUE,"May 02 2014","10:54:30",12,"Switch",0,"Novel101",0,"Novel48",0,1982,1,"(May 02 2014 10:54:30)",FALSE,TRUE,FALSE,2,1,"Social",1,"km","eyescenter",-1,0,0,"-1",1
"1003",2,1,1,4,TRUE,"May 02 2014","10:54:30",15,"Same",0,"Novel85",0,"Novel85",1,1091,1,"(May 02 2014 10:54:30)",TRUE,TRUE,FALSE,2,1,"Social",1,"km","eyescenter",-1,0,0,"-1",1
"1003",2,1,1,5,TRUE,"May 02 2014","10:54:30",16,"Switch",1,"Novel136",1,"Novel136",1,4595,1,"(May 02 2014 10:54:30)",TRUE,TRUE,FALSE,2,1,"Social",1,"km","eyescenter",-1,0,0,"-1",1
"1003",2,1,1,6,TRUE,"May 02 2014","10:54:30",19,"Same",0,"Novel27",0,"Novel27",1,1066,1,"(May 02 2014 10:54:30)",TRUE,TRUE,FALSE,2,1,"Social",1,"km","eyescenter",-1,0,0,"-1",1
"1003",2,1,1,7,TRUE,"May 02 2014","10:54:30",20,"Switch",0,"Novel7",1,"Novel7",0,1907,1,"(May 02 2014 10:54:30)",TRUE,TRUE,FALSE,2,1,"Social",1,"km","eyescenter",-1,0,0,"-1",1
"1005",2,1,1,0,TRUE,"May 02 2014","12:16:03",13,"Same",0,"Novel17",0,"Novel17",1,1991,2,"(May 02 2014 12:16:03)",TRUE,TRUE,TRUE,2,7,"Social",1,"km","eyescenter",-1,0,0,"-1",1
"1005",2,1,1,1,TRUE,"May 02 2014","12:16:03",14,"Switch",1,"Novel52",0,"Novel136",1,2963,2,"(May 02 2014 12:16:03)",FALSE,TRUE,FALSE,2,7,"Social",1,"km","eyescenter",-1,0,0,"-1",1
"1005",2,1,1,2,TRUE,"May 02 2014","12:16:03",15,"Same",0,"Novel122",1,"Novel23",1,4560,2,"(May 02 2014 12:16:03)",FALSE,TRUE,FALSE,2,7,"Social",1,"km","eyescenter",-1,0,0,"-1",1
"1005",2,1,1,3,TRUE,"May 02 2014","12:16:03",16,"Switch",1,"Novel8",0,"Novel120",1,10810,2,"(May 02 2014 12:16:03)",FALSE,TRUE,FALSE,2,7,"Social",1,"km","eyescenter",-1,0,0,"-1",0
"1005",2,1,1,4,TRUE,"May 02 2014","12:16:03",17,"Same",1,"Novel83",0,"Novel83",0,2603,2,"(May 02 2014 12:16:03)",TRUE,TRUE,FALSE,2,7,"Social",1,"km","eyescenter",-1,0,0,"-1",1
"1005",2,1,1,5,TRUE,"May 02 2014","12:16:03",18,"Switch",0,"Novel42",1,"Novel42",0,2698,2,"(May 02 2014 12:16:03)",TRUE,TRUE,FALSE,2,7,"Social",1,"km","eyescenter",-1,0,0,"-1",1
"1005",2,1,1,6,TRUE,"May 02 2014","12:16:03",19,"Same",1,"Novel133",0,"Novel133",0,1735,2,"(May 02 2014 12:16:03)",TRUE,TRUE,FALSE,2,7,"Social",1,"km","eyescenter",-1,0,0,"-1",1
"1005",2,1,1,7,TRUE,"May 02 2014","12:16:03",20,"Switch",0,"Novel137",1,"Novel137",0,4373,2,"(May 02 2014 12:16:03)",TRUE,TRUE,FALSE,2,7,"Social",1,"km","eyescenter",-1,0,0,"-1",1
"1007",2,1,1,0,TRUE,"May 02 2014","11:24:56",9,"Switch",0,"Novel104",0,"Novel98",0,2138,3,"(May 02 2014 11:24:56)",FALSE,TRUE,TRUE,2,3,"Social",1,"km","eyescenter",-1,0,0,"-1",1
"1007",2,1,1,1,TRUE,"May 02 2014","11:24:56",10,"Same",1,"Novel122",1,"Novel122",1,891,3,"(May 02 2014 11:24:56)",TRUE,TRUE,FALSE,2,3,"Social",1,"km","eyescenter",-1,0,0,"-1",1
"1007",2,1,1,2,TRUE,"May 02 2014","11:24:56",11,"Switch",1,"Novel101",0,"Novel9",1,2054,3,"(May 02 2014 11:24:56)",FALSE,TRUE,FALSE,2,3,"Social",1,"km","eyescenter",-1,0,0,"-1",1
"1007",2,1,1,3,TRUE,"May 02 2014","11:24:56",12,"Same",1,"Novel71",1,"Novel71",1,1165,3,"(May 02 2014 11:24:56)",TRUE,TRUE,FALSE,2,3,"Social",1,"km","eyescenter",-1,0,0,"-1",1
"1007",2,1,1,4,TRUE,"May 02 2014","11:24:56",17,"Switch",1,"Novel63",1,"Novel3",0,1291,3,"(May 02 2014 11:24:56)",FALSE,TRUE,FALSE,2,3,"Social",1,"km","eyescenter",-1,0,0,"-1",1
"1007",2,1,1,5,TRUE,"May 02 2014","11:24:56",18,"Same",0,"Novel59",1,"Novel59",0,789,3,"(May 02 2014 11:24:56)",TRUE,TRUE,FALSE,2,3,"Social",1,"km","eyescenter",-1,0,0,"-1",1
"1007",2,1,1,6,TRUE,"May 02 2014","11:24:56",19,"Switch",0,"Novel28",1,"Novel127",1,836,3,"(May 02 2014 11:24:56)",FALSE,TRUE,FALSE,2,3,"Social",1,"km","eyescenter",-1,0,0,"-1",1
"1007",2,1,1,7,TRUE,"May 02 2014","11:24:56",20,"Same",0,"Novel102",0,"Novel120",0,712,3,"(May 02 2014 11:24:56)",FALSE,TRUE,FALSE,2,3,"Social",1,"km","eyescenter",-1,0,0,"-1",1
"1010",2,1,1,0,TRUE,"May 02 2014","10:52:49",7,"Switch",0,"Novel1",1,"Novel1",0,4869,1,"(May 02 2014 10:52:49)",TRUE,TRUE,TRUE,2,1,"Social",1,"km","eyescenter",-1,0,0,"-1",1
"1010",2,1,1,1,TRUE,"May 02 2014","10:52:49",8,"Same",1,"Novel22",0,"Novel22",0,1564,1,"(May 02 2014 10:52:49)",TRUE,TRUE,FALSE,2,1,"Social",1,"km","eyescenter",-1,0,0,"-1",1
"1010",2,1,1,2,TRUE,"May 02 2014","10:52:49",11,"Switch",1,"Novel21",1,"Novel128",0,3760,1,"(May 02 2014 10:52:49)",FALSE,TRUE,FALSE,2,1,"Social",1,"km","eyescenter",-1,0,0,"-1",1
"1010",2,1,1,3,TRUE,"May 02 2014","10:52:49",12,"Same",1,"Novel102",0,"Novel102",0,1147,1,"(May 02 2014 10:52:49)",TRUE,TRUE,FALSE,2,1,"Social",1,"km","eyescenter",-1,0,0,"-1",1
"1010",2,1,1,4,TRUE,"May 02 2014","10:52:49",15,"Switch",0,"Novel82",1,"Novel17",1,3028,1,"(May 02 2014 10:52:49)",FALSE,TRUE,FALSE,2,1,"Social",1,"km","eyescenter",-1,0,0,"-1",1
"1010",2,1,1,5,TRUE,"May 02 2014","10:52:49",16,"Same",0,"Novel37",0,"Novel37",1,1348,1,"(May 02 2014 10:52:49)",TRUE,TRUE,FALSE,2,1,"Social",1,"km","eyescenter",-1,0,0,"-1",1
"1010",2,1,1,6,TRUE,"May 02 2014","10:52:49",19,"Switch",1,"Novel110",1,"Novel110",1,4078,1,"(May 02 2014 10:52:49)",TRUE,TRUE,FALSE,2,1,"Social",1,"km","eyescenter",-1,0,0,"-1",1
"1010",2,1,1,7,TRUE,"May 02 2014","10:52:49",20,"Same",0,"Novel54",0,"Novel54",1,982,1,"(May 02 2014 10:52:49)",TRUE,TRUE,FALSE,2,1,"Social",1,"km","eyescenter",-1,0,0,"-1",1
"1012",2,1,1,0,TRUE,"May 02 2014","12:07:48",6,"Same",0,"Novel99",1,"Novel99",0,1202,4,"(May 02 2014 12:07:48)",TRUE,TRUE,TRUE,2,0,"Social",1,"km","eyescenter",-1,0,0,"-1",1
"1012",2,1,1,1,TRUE,"May 02 2014","12:07:48",8,"Switch",1,"Novel71",0,"Novel68",1,2984,4,"(May 02 2014 12:07:48)",FALSE,TRUE,FALSE,2,0,"Social",1,"km","eyescenter",-1,0,0,"-1",1
"1012",2,1,1,2,TRUE,"May 02 2014","12:07:48",10,"Same",0,"Novel34",1,"Novel34",0,1035,4,"(May 02 2014 12:07:48)",TRUE,TRUE,FALSE,2,0,"Social",1,"km","eyescenter",-1,0,0,"-1",1
"1012",2,1,1,3,TRUE,"May 02 2014","12:07:48",12,"Switch",0,"Novel76",0,"Novel76",1,812,4,"(May 02 2014 12:07:48)",TRUE,TRUE,FALSE,2,0,"Social",1,"km","eyescenter",-1,0,0,"-1",1
"1012",2,1,1,4,TRUE,"May 02 2014","12:07:48",14,"Same",1,"Novel33",0,"Novel33",0,4282,4,"(May 02 2014 12:07:48)",TRUE,TRUE,FALSE,2,0,"Social",1,"km","eyescenter",-1,0,0,"-1",1
"1012",2,1,1,5,TRUE,"May 02 2014","12:07:48",16,"Switch",0,"Novel46",1,"Novel140",1,623,4,"(May 02 2014 12:07:48)",FALSE,TRUE,FALSE,2,0,"Social",1,"km","eyescenter",-1,0,0,"-1",1
"1012",2,1,1,6,TRUE,"May 02 2014","12:07:48",18,"Same",1,"Novel41",1,"Novel41",1,970,4,"(May 02 2014 12:07:48)",TRUE,TRUE,FALSE,2,0,"Social",1,"km","eyescenter",-1,0,0,"-1",1
"1012",2,1,1,7,TRUE,"May 02 2014","12:07:48",20,"Switch",1,"Novel111",1,"Novel88",0,839,4,"(May 02 2014 12:07:48)",FALSE,TRUE,FALSE,2,0,"Social",1,"km","eyescenter",-1,0,0,"-1",1
"1013",2,1,1,0,TRUE,"May 02 2014","15:35:12",6,"Same",1,"Novel93",1,"Novel93",1,1686,4,"(May 02 2014 15:35:12)",TRUE,TRUE,TRUE,2,0,"Social",1,"km","eyescenter",-1,0,0,"-1",1
"1013",2,1,1,1,TRUE,"May 02 2014","15:35:12",8,"Switch",1,"Novel116",0,"Novel131",1,1749,4,"(May 02 2014 15:35:12)",FALSE,TRUE,FALSE,2,0,"Social",1,"km","eyescenter",-1,0,0,"-1",1
"1013",2,1,1,2,TRUE,"May 02 2014","15:35:12",10,"Same",0,"Novel30",1,"Novel30",0,1426,4,"(May 02 2014 15:35:12)",TRUE,TRUE,FALSE,2,0,"Social",1,"km","eyescenter",-1,0,0,"-1",1
"1013",2,1,1,3,TRUE,"May 02 2014","15:35:12",12,"Switch",1,"Novel26",1,"Novel26",1,3503,4,"(May 02 2014 15:35:12)",TRUE,TRUE,FALSE,2,0,"Social",1,"km","eyescenter",-1,0,0,"-1",1
"1013",2,1,1,4,TRUE,"May 02 2014","15:35:12",14,"Same",1,"Novel73",1,"Novel73",1,1355,4,"(May 02 2014 15:35:12)",TRUE,TRUE,FALSE,2,0,"Social",1,"km","eyescenter",-1,0,0,"-1",1
"1013",2,1,1,5,TRUE,"May 02 2014","15:35:12",16,"Switch",0,"Novel118",0,"Novel118",1,2471,4,"(May 02 2014 15:35:12)",TRUE,TRUE,FALSE,2,0,"Social",1,"km","eyescenter",-1,0,0,"-1",1
"1013",2,1,1,6,TRUE,"May 02 2014","15:35:12",18,"Same",0,"Novel9",1,"Novel9",0,1283,4,"(May 02 2014 15:35:12)",TRUE,TRUE,FALSE,2,0,"Social",1,"km","eyescenter",-1,0,0,"-1",1
"1013",2,1,1,7,TRUE,"May 02 2014","15:35:12",20,"Switch",0,"Novel102",1,"Novel102",0,1680,4,"(May 02 2014 15:35:12)",TRUE,TRUE,FALSE,2,0,"Social",1,"km","eyescenter",-1,0,0,"-1",1
"1014",2,0.875,1,0,FALSE,"May 03 2014","00:10:21",13,"Switch",0,"Novel44",0,"Novel44",1,5481,2,"(May 03 2014 00:10:21)",TRUE,TRUE,TRUE,2,7,"Social",1,"km","eyescenter",-1,0,0,"-1",1
"1014",2,0.875,1,1,TRUE,"May 03 2014","00:10:21",14,"Same",1,"Novel105",1,"Novel1",0,51766,2,"(May 03 2014 00:10:21)",FALSE,TRUE,FALSE,2,7,"Social",1,"km","eyescenter",-1,0,0,"-1",0
"1014",2,0.875,1,2,TRUE,"May 03 2014","00:10:21",15,"Switch",1,"Novel130",0,"Novel130",0,4237,2,"(May 03 2014 00:10:21)",TRUE,TRUE,FALSE,2,7,"Social",1,"km","eyescenter",-1,0,0,"-1",1
"1014",2,0.875,1,3,TRUE,"May 03 2014","00:10:21",16,"Same",0,"Novel10",1,"Novel10",0,2450,2,"(May 03 2014 00:10:21)",TRUE,TRUE,FALSE,2,7,"Social",1,"km","eyescenter",-1,0,0,"-1",1
"1014",2,0.875,1,4,TRUE,"May 03 2014","00:10:21",17,"Switch",1,"Novel136",0,"Novel136",0,4262,2,"(May 03 2014 00:10:21)",TRUE,TRUE,FALSE,2,7,"Social",1,"km","eyescenter",-1,0,0,"-1",1
"1014",2,0.875,1,5,TRUE,"May 03 2014","00:10:21",18,"Same",1,"Novel15",0,"Novel15",0,1922,2,"(May 03 2014 00:10:21)",TRUE,TRUE,FALSE,2,7,"Social",1,"km","eyescenter",-1,0,0,"-1",1
"1014",2,0.875,1,6,TRUE,"May 03 2014","00:10:21",19,"Switch",0,"Novel91",1,"Novel135",1,2356,2,"(May 03 2014 00:10:21)",FALSE,TRUE,FALSE,2,7,"Social",1,"km","eyescenter",-1,0,0,"-1",1
"1014",2,0.875,1,7,TRUE,"May 03 2014","00:10:21",20,"Same",0,"Novel3",0,"Novel3",1,3885,2,"(May 03 2014 00:10:21)",TRUE,TRUE,FALSE,2,7,"Social",1,"km","eyescenter",-1,0,0,"-1",1
"1016",2,1,1,0,TRUE,"May 02 2014","10:53:10",7,"Switch",0,"Novel56",0,"Novel56",1,5329,1,"(May 02 2014 10:53:10)",TRUE,TRUE,TRUE,2,1,"Social",1,"km","eyescenter",-1,0,0,"-1",1
"1016",2,1,1,1,TRUE,"May 02 2014","10:53:10",8,"Same",0,"Novel30",0,"Novel30",1,1553,1,"(May 02 2014 10:53:10)",TRUE,TRUE,FALSE,2,1,"Social",1,"km","eyescenter",-1,0,0,"-1",1
"1016",2,1,1,2,TRUE,"May 02 2014","10:53:10",11,"Switch",1,"Novel35",1,"Novel35",1,1077,1,"(May 02 2014 10:53:10)",TRUE,TRUE,FALSE,2,1,"Social",1,"km","eyescenter",-1,0,0,"-1",1
"1016",2,1,1,3,TRUE,"May 02 2014","10:53:10",12,"Same",1,"Novel128",0,"Novel128",0,425,1,"(May 02 2014 10:53:10)",TRUE,TRUE,FALSE,2,1,"Social",1,"km","eyescenter",-1,0,0,"-1",0
"1016",2,1,1,4,TRUE,"May 02 2014","10:53:10",15,"Switch",0,"Novel5",0,"Novel1",0,1981,1,"(May 02 2014 10:53:10)",FALSE,TRUE,FALSE,2,1,"Social",1,"km","eyescenter",-1,0,0,"-1",1
"1016",2,1,1,5,TRUE,"May 02 2014","10:53:10",16,"Same",1,"Novel34",0,"Novel34",0,229,1,"(May 02 2014 10:53:10)",TRUE,TRUE,FALSE,2,1,"Social",1,"km","eyescenter",-1,0,0,"-1",0
"1016",2,1,1,6,TRUE,"May 02 2014","10:53:10",19,"Switch",1,"Novel52",0,"Novel52",0,957,1,"(May 02 2014 10:53:10)",TRUE,TRUE,FALSE,2,1,"Social",1,"km","eyescenter",-1,0,0,"-1",1
"1016",2,1,1,7,TRUE,"May 02 2014","10:53:10",20,"Same",0,"Novel57",1,"Novel57",0,457,1,"(May 02 2014 10:53:10)",TRUE,TRUE,FALSE,2,1,"Social",1,"km","eyescenter",-1,0,0,"-1",0
"1019",2,0.625,1,0,TRUE,"May 02 2014","13:05:46",6,"Switch",1,"Novel117",0,"Novel13",1,188,4,"(May 02 2014 13:05:46)",FALSE,TRUE,TRUE,2,0,"Social",1,"km","eyescenter",-1,0,0,"-1",0
"1019",2,0.625,1,1,FALSE,"May 02 2014","13:05:46",8,"Same",1,"Novel1",1,"Novel106",0,75,4,"(May 02 2014 13:05:46)",FALSE,TRUE,FALSE,2,0,"Social",1,"km","eyescenter",-1,0,0,"-1",0
"1019",2,0.625,1,2,FALSE,"May 02 2014","13:05:46",10,"Switch",0,"Novel136",1,"Novel45",1,124,4,"(May 02 2014 13:05:46)",FALSE,TRUE,FALSE,2,0,"Social",1,"km","eyescenter",-1,0,0,"-1",0
"1019",2,0.625,1,3,FALSE,"May 02 2014","13:05:46",12,"Same",0,"Novel21",0,"Novel133",0,36,4,"(May 02 2014 13:05:46)",FALSE,TRUE,FALSE,2,0,"Social",1,"km","eyescenter",-1,0,0,"-1",0
"1019",2,0.625,1,4,TRUE,"May 02 2014","13:05:46",14,"Switch",0,"Novel75",0,"Novel75",1,3009,4,"(May 02 2014 13:05:46)",TRUE,TRUE,FALSE,2,0,"Social",1,"km","eyescenter",-1,0,0,"-1",1
"1019",2,0.625,1,5,TRUE,"May 02 2014","13:05:46",16,"Same",0,"Novel4",1,"Novel4",0,1823,4,"(May 02 2014 13:05:46)",TRUE,TRUE,FALSE,2,0,"Social",1,"km","eyescenter",-1,0,0,"-1",1
"1019",2,0.625,1,6,TRUE,"May 02 2014","13:05:46",18,"Switch",1,"Novel101",0,"Novel101",0,32,4,"(May 02 2014 13:05:46)",TRUE,TRUE,FALSE,2,0,"Social",1,"km","eyescenter",-1,0,0,"-1",0
"1019",2,0.625,1,7,TRUE,"May 02 2014","13:05:46",20,"Same",1,"Novel114",0,"Novel114",0,126,4,"(May 02 2014 13:05:46)",TRUE,TRUE,FALSE,2,0,"Social",1,"km","eyescenter",-1,0,0,"-1",0
"1020",2,1,1,0,TRUE,"May 02 2014","14:46:55",7,"Switch",1,"Novel131",1,"Novel20",0,3152,1,"(May 02 2014 14:46:55)",FALSE,TRUE,TRUE,2,1,"Social",1,"km","eyescenter",-1,0,0,"-1",1
"1020",2,1,1,1,TRUE,"May 02 2014","14:46:55",8,"Same",0,"Novel42",1,"Novel42",0,975,1,"(May 02 2014 14:46:55)",TRUE,TRUE,FALSE,2,1,"Social",1,"km","eyescenter",-1,0,0,"-1",1
"1020",2,1,1,2,TRUE,"May 02 2014","14:46:55",11,"Switch",0,"Novel18",1,"Novel80",1,9002,1,"(May 02 2014 14:46:55)",FALSE,TRUE,FALSE,2,1,"Social",1,"km","eyescenter",-1,0,0,"-1",1
"1020",2,1,1,3,TRUE,"May 02 2014","14:46:55",12,"Same",1,"Novel48",0,"Novel48",0,911,1,"(May 02 2014 14:46:55)",TRUE,TRUE,FALSE,2,1,"Social",1,"km","eyescenter",-1,0,0,"-1",1
"1020",2,1,1,4,TRUE,"May 02 2014","14:46:55",15,"Switch",0,"Novel65",1,"Novel65",0,4215,1,"(May 02 2014 14:46:55)",TRUE,TRUE,FALSE,2,1,"Social",1,"km","eyescenter",-1,0,0,"-1",1
"1020",2,1,1,5,TRUE,"May 02 2014","14:46:55",16,"Same",0,"Novel39",1,"Novel39",0,5520,1,"(May 02 2014 14:46:55)",TRUE,TRUE,FALSE,2,1,"Social",1,"km","eyescenter",-1,0,0,"-1",1
"1020",2,1,1,6,TRUE,"May 02 2014","14:46:55",19,"Switch",1,"Novel94",0,"Novel94",0,4870,1,"(May 02 2014 14:46:55)",TRUE,TRUE,FALSE,2,1,"Social",1,"km","eyescenter",-1,0,0,"-1",1
"1020",2,1,1,7,TRUE,"May 02 2014","14:46:55",20,"Same",1,"Novel27",1,"Novel27",1,977,1,"(May 02 2014 14:46:55)",TRUE,TRUE,FALSE,2,1,"Social",1,"km","eyescenter",-1,0,0,"-1",1
"1021",2,0.875,1,0,FALSE,"May 03 2014","05:00:14",6,"Same",1,"Novel93",1,"Novel93",1,8476,4,"(May 03 2014 05:00:14)",TRUE,TRUE,TRUE,2,0,"Social",1,"km","eyescenter",-1,0,0,"-1",1
"1021",2,0.875,1,1,TRUE,"May 03 2014","05:00:14",8,"Switch",0,"Novel43",0,"Novel43",1,867,4,"(May 03 2014 05:00:14)",TRUE,TRUE,FALSE,2,0,"Social",1,"km","eyescenter",-1,0,0,"-1",1
"1021",2,0.875,1,2,TRUE,"May 03 2014","05:00:14",10,"Same",0,"Novel127",1,"Novel127",0,1034,4,"(May 03 2014 05:00:14)",TRUE,TRUE,FALSE,2,0,"Social",1,"km","eyescenter",-1,0,0,"-1",1
"1021",2,0.875,1,3,TRUE,"May 03 2014","05:00:14",12,"Switch",1,"Novel13",1,"Novel77",0,5224,4,"(May 03 2014 05:00:14)",FALSE,TRUE,FALSE,2,0,"Social",1,"km","eyescenter",-1,0,0,"-1",1
"1021",2,0.875,1,4,TRUE,"May 03 2014","05:00:14",14,"Same",1,"Novel112",0,"Novel112",0,920,4,"(May 03 2014 05:00:14)",TRUE,TRUE,FALSE,2,0,"Social",1,"km","eyescenter",-1,0,0,"-1",1
"1021",2,0.875,1,5,TRUE,"May 03 2014","05:00:14",16,"Switch",1,"Novel89",0,"Novel128",1,4091,4,"(May 03 2014 05:00:14)",FALSE,TRUE,FALSE,2,0,"Social",1,"km","eyescenter",-1,0,0,"-1",1
"1021",2,0.875,1,6,TRUE,"May 03 2014","05:00:14",18,"Same",0,"Novel39",1,"Novel39",0,1165,4,"(May 03 2014 05:00:14)",TRUE,TRUE,FALSE,2,0,"Social",1,"km","eyescenter",-1,0,0,"-1",1
"1021",2,0.875,1,7,TRUE,"May 03 2014","05:00:14",20,"Switch",0,"Novel130",1,"Novel130",0,1175,4,"(May 03 2014 05:00:14)",TRUE,TRUE,FALSE,2,0,"Social",1,"km","eyescenter",-1,0,0,"-1",1
"1022",2,1,1,0,TRUE,"May 02 2014","12:05:29",6,"Same",1,"Novel120",1,"Novel120",1,1335,4,"(May 02 2014 12:05:29)",TRUE,TRUE,TRUE,2,0,"Social",1,"km","eyescenter",-1,0,0,"-1",1
"1022",2,1,1,1,TRUE,"May 02 2014","12:05:29",8,"Switch",1,"Novel82",0,"Novel3",1,3198,4,"(May 02 2014 12:05:29)",FALSE,TRUE,FALSE,2,0,"Social",1,"km","eyescenter",-1,0,0,"-1",1
"1022",2,1,1,2,TRUE,"May 02 2014","12:05:29",10,"Same",1,"Novel50",0,"Novel50",0,1200,4,"(May 02 2014 12:05:29)",TRUE,TRUE,FALSE,2,0,"Social",1,"km","eyescenter",-1,0,0,"-1",1
"1022",2,1,1,3,TRUE,"May 02 2014","12:05:29",12,"Switch",0,"Novel117",0,"Novel41",0,1382,4,"(May 02 2014 12:05:29)",FALSE,TRUE,FALSE,2,0,"Social",1,"km","eyescenter",-1,0,0,"-1",1
"1022",2,1,1,4,TRUE,"May 02 2014","12:05:29",14,"Same",0,"Novel95",0,"Novel95",1,794,4,"(May 02 2014 12:05:29)",TRUE,TRUE,FALSE,2,0,"Social",1,"km","eyescenter",-1,0,0,"-1",1
"1022",2,1,1,5,TRUE,"May 02 2014","12:05:29",16,"Switch",1,"Novel90",1,"Novel79",0,3512,4,"(May 02 2014 12:05:29)",FALSE,TRUE,FALSE,2,0,"Social",1,"km","eyescenter",-1,0,0,"-1",1
"1022",2,1,1,6,TRUE,"May 02 2014","12:05:29",18,"Same",0,"Novel130",1,"Novel130",0,1374,4,"(May 02 2014 12:05:29)",TRUE,TRUE,FALSE,2,0,"Social",1,"km","eyescenter",-1,0,0,"-1",1
"1022",2,1,1,7,TRUE,"May 02 2014","12:05:29",20,"Switch",0,"Novel39",1,"Novel124",1,1426,4,"(May 02 2014 12:05:29)",FALSE,TRUE,FALSE,2,0,"Social",1,"km","eyescenter",-1,0,0,"-1",1
"1023",2,0.875,1,0,TRUE,"May 01 2014","12:16:16",6,"Same",0,"Novel78",1,"Novel78",0,1506,4,"(May 01 2014 12:16:16)",TRUE,TRUE,TRUE,2,0,"Social",1,"km","eyescenter",-1,0,0,"-1",1
"1023",2,0.875,1,1,FALSE,"May 01 2014","12:16:16",8,"Switch",1,"Novel61",0,"Novel61",0,1401,4,"(May 01 2014 12:16:16)",TRUE,TRUE,FALSE,2,0,"Social",1,"km","eyescenter",-1,0,0,"-1",1
"1023",2,0.875,1,2,TRUE,"May 01 2014","12:16:16",10,"Same",1,"Novel62",1,"Novel62",1,2999,4,"(May 01 2014 12:16:16)",TRUE,TRUE,FALSE,2,0,"Social",1,"km","eyescenter",-1,0,0,"-1",1
"1023",2,0.875,1,3,TRUE,"May 01 2014","12:16:16",12,"Switch",1,"Novel137",0,"Novel137",0,3458,4,"(May 01 2014 12:16:16)",TRUE,TRUE,FALSE,2,0,"Social",1,"km","eyescenter",-1,0,0,"-1",1
"1023",2,0.875,1,4,TRUE,"May 01 2014","12:16:16",14,"Same",1,"Novel21",1,"Novel21",1,849,4,"(May 01 2014 12:16:16)",TRUE,TRUE,FALSE,2,0,"Social",1,"km","eyescenter",-1,0,0,"-1",1
"1023",2,0.875,1,5,TRUE,"May 01 2014","12:16:16",16,"Switch",0,"Novel24",0,"Novel24",1,2356,4,"(May 01 2014 12:16:16)",TRUE,TRUE,FALSE,2,0,"Social",1,"km","eyescenter",-1,0,0,"-1",1
"1023",2,0.875,1,6,TRUE,"May 01 2014","12:16:16",18,"Same",0,"Novel54",0,"Novel54",1,1269,4,"(May 01 2014 12:16:16)",TRUE,TRUE,FALSE,2,0,"Social",1,"km","eyescenter",-1,0,0,"-1",1
"1023",2,0.875,1,7,TRUE,"May 01 2014","12:16:16",20,"Switch",0,"Novel119",0,"Novel1",0,1401,4,"(May 01 2014 12:16:16)",FALSE,TRUE,FALSE,2,0,"Social",1,"km","eyescenter",-1,0,0,"-1",1
"1024",2,0.875,1,0,TRUE,"May 02 2014","11:43:28",6,"Switch",1,"Novel138",0,"Novel133",1,3011,4,"(May 02 2014 11:43:28)",FALSE,TRUE,TRUE,2,0,"Social",1,"km","eyescenter",-1,0,0,"-1",1
"1024",2,0.875,1,1,FALSE,"May 02 2014","11:43:28",8,"Same",1,"Novel73",1,"Novel80",0,2049,4,"(May 02 2014 11:43:28)",FALSE,TRUE,FALSE,2,0,"Social",1,"km","eyescenter",-1,0,0,"-1",1
"1024",2,0.875,1,2,TRUE,"May 02 2014","11:43:28",10,"Switch",0,"Novel62",0,"Novel62",1,1828,4,"(May 02 2014 11:43:28)",TRUE,TRUE,FALSE,2,0,"Social",1,"km","eyescenter",-1,0,0,"-1",1
"1024",2,0.875,1,3,TRUE,"May 02 2014","11:43:28",12,"Same",0,"Novel123",1,"Novel125",1,1180,4,"(May 02 2014 11:43:28)",FALSE,TRUE,FALSE,2,0,"Social",1,"km","eyescenter",-1,0,0,"-1",1
"1024",2,0.875,1,4,TRUE,"May 02 2014","11:43:28",14,"Switch",1,"Novel108",1,"Novel108",1,1220,4,"(May 02 2014 11:43:28)",TRUE,TRUE,FALSE,2,0,"Social",1,"km","eyescenter",-1,0,0,"-1",1
"1024",2,0.875,1,5,TRUE,"May 02 2014","11:43:28",16,"Same",1,"Novel109",0,"Novel109",0,1103,4,"(May 02 2014 11:43:28)",TRUE,TRUE,FALSE,2,0,"Social",1,"km","eyescenter",-1,0,0,"-1",1
