"submit.date","submit.time","trial.num","gazeLength","condition","interval","numPic","browser","itemNum","trialType","samePos","chosen","chosenIdx","kept","keptIdx","rt","face","faceIdx","trial_cat","intervalNum","include","first.trial","numPicN","correct","subids","block","include_good_rt","condition_trial","mean_acc_exp","correct_exposure","rt_exposure"
"Jan 09 2015","05:04:06",9,"Live","SocialFirst","Three",4,"Firefox",0,"Switch",0,"Novel69",0,"Novel23",2,3057,"straight-ahead",-1,"test",3,TRUE,TRUE,4,FALSE,1,"first","include","social",1,TRUE,1391
"Jan 09 2015","05:04:06",10,"Live","SocialFirst","Three",4,"Firefox",1,"Same",0,"Novel107",2,"Novel5",1,1977,"straight-ahead",-1,"test",3,TRUE,FALSE,4,FALSE,1,"first","include","social",1,TRUE,690
"Jan 09 2015","05:04:06",11,"Live","SocialFirst","Three",4,"Firefox",2,"Switch",1,"Novel129",1,"Novel136",2,2472,"straight-ahead",-1,"test",3,TRUE,FALSE,4,FALSE,1,"first","include","social",1,TRUE,691
"Jan 09 2015","05:04:06",12,"Live","SocialFirst","Three",4,"Firefox",3,"Same",0,"Novel25",2,"Novel25",3,2750,"straight-ahead",-1,"test",3,TRUE,FALSE,4,TRUE,1,"first","include","social",1,TRUE,2113
"Jan 09 2015","05:04:06",17,"Live","SocialFirst","Three",4,"Firefox",4,"Switch",0,"Novel98",3,"Novel98",0,1591,"straight-ahead",-1,"test",3,TRUE,FALSE,4,TRUE,1,"first","include","social",1,TRUE,878
"Jan 09 2015","05:04:06",18,"Live","SocialFirst","Three",4,"Firefox",5,"Same",1,"Novel126",1,"Novel57",0,1116,"straight-ahead",-1,"test",3,TRUE,FALSE,4,FALSE,1,"first","include","social",1,TRUE,301
"Jan 09 2015","05:04:06",19,"Live","SocialFirst","Three",4,"Firefox",6,"Switch",1,"Novel49",0,"Novel21",3,940,"straight-ahead",-1,"test",3,TRUE,FALSE,4,FALSE,1,"first","include","social",1,TRUE,210
"Jan 09 2015","05:04:06",20,"Live","SocialFirst","Three",4,"Firefox",7,"Same",1,"Novel109",2,"Novel14",0,739,"straight-ahead",-1,"test",3,TRUE,FALSE,4,FALSE,1,"first","include","social",1,TRUE,169
"Jan 09 2015","05:04:06",25,"Live","SocialFirst","Three",4,"Firefox",8,"Switch",0,"Novel61",3,"Novel43",0,1078,"straight-ahead",-1,"test",3,TRUE,FALSE,4,FALSE,1,"second","include","no-social",1,FALSE,1077
"Jan 09 2015","05:04:06",26,"Live","SocialFirst","Three",4,"Firefox",9,"Same",0,"Novel115",0,"Novel46",3,669,"straight-ahead",-1,"test",3,TRUE,FALSE,4,FALSE,1,"second","include","no-social",1,FALSE,1031
"Jan 09 2015","05:04:06",27,"Live","SocialFirst","Three",4,"Firefox",10,"Switch",1,"Novel92",1,"Novel92",1,536,"straight-ahead",-1,"test",3,TRUE,FALSE,4,TRUE,1,"second","include","no-social",1,FALSE,612
"Jan 09 2015","05:04:06",33,"Live","SocialFirst","Three",4,"Firefox",12,"Switch",0,"Novel55",0,"Novel140",3,490,"straight-ahead",-1,"test",3,TRUE,FALSE,4,FALSE,1,"second","include","no-social",1,FALSE,488
"Jan 09 2015","05:04:06",34,"Live","SocialFirst","Three",4,"Firefox",13,"Same",1,"Novel40",2,"Novel77",3,513,"straight-ahead",-1,"test",3,TRUE,FALSE,4,FALSE,1,"second","include","no-social",1,FALSE,644
"Jan 09 2015","05:04:06",35,"Live","SocialFirst","Three",4,"Firefox",14,"Switch",1,"Novel11",1,"Novel11",1,539,"straight-ahead",-1,"test",3,TRUE,FALSE,4,TRUE,1,"second","include","no-social",1,FALSE,661
"Jan 09 2015","05:04:06",36,"Live","SocialFirst","Three",4,"Firefox",15,"Same",1,"Novel93",3,"Novel93",3,540,"straight-ahead",-1,"test",3,TRUE,FALSE,4,TRUE,1,"second","include","no-social",1,FALSE,1341
"Jan 09 2015","05:04:06",5,"Live","SocialFirst","Three",4,"Firefox",0,"Switch",0,"Novel131",3,"Novel23",2,1391,"down-right-4sec",3,"exposure",3,TRUE,FALSE,4,TRUE,1,"first","include","social",1,TRUE,1391
"Jan 09 2015","05:04:06",6,"Live","SocialFirst","Three",4,"Firefox",1,"Same",0,"Novel5",1,"Novel5",1,690,"up-right-4sec",1,"exposure",3,TRUE,FALSE,4,TRUE,1,"first","include","social",1,TRUE,690
"Jan 09 2015","05:04:06",7,"Live","SocialFirst","Three",4,"Firefox",2,"Switch",1,"Novel4",3,"Novel136",2,691,"down-right-4sec",3,"exposure",3,TRUE,FALSE,4,TRUE,1,"first","include","social",1,TRUE,691
"Jan 09 2015","05:04:06",8,"Live","SocialFirst","Three",4,"Firefox",3,"Same",0,"Novel25",3,"Novel25",3,2113,"down-right-4sec",3,"exposure",3,TRUE,FALSE,4,TRUE,1,"first","include","social",1,TRUE,2113
"Jan 09 2015","05:04:06",13,"Live","SocialFirst","Three",4,"Firefox",4,"Switch",0,"Novel105",3,"Novel98",0,878,"down-right-4sec",3,"exposure",3,TRUE,FALSE,4,TRUE,1,"first","include","social",1,TRUE,878
"Jan 09 2015","05:04:06",21,"Live","SocialFirst","Three",4,"Firefox",8,"Switch",0,"Novel58",1,"Novel43",0,1077,"straight-ahead",-1,"exposure",3,TRUE,FALSE,4,FALSE,1,"second","include","no-social",1,FALSE,1077
"Jan 09 2015","05:04:06",22,"Live","SocialFirst","Three",4,"Firefox",9,"Same",0,"Novel46",3,"Novel46",3,1031,"straight-ahead",-1,"exposure",3,TRUE,FALSE,4,FALSE,1,"second","include","no-social",1,FALSE,1031
"Jan 09 2015","05:04:06",23,"Live","SocialFirst","Three",4,"Firefox",10,"Switch",1,"Novel63",0,"Novel92",1,612,"straight-ahead",-1,"exposure",3,TRUE,FALSE,4,FALSE,1,"second","include","no-social",1,FALSE,612
"Jan 09 2015","05:04:06",24,"Live","SocialFirst","Three",4,"Firefox",11,"Same",0,"Novel81",1,"Novel81",1,1858,"straight-ahead",-1,"exposure",3,TRUE,FALSE,4,FALSE,1,"second","include","no-social",1,FALSE,1858
"Jan 09 2015","05:04:06",29,"Live","SocialFirst","Three",4,"Firefox",12,"Switch",0,"Novel111",1,"Novel140",3,488,"straight-ahead",-1,"exposure",3,TRUE,FALSE,4,FALSE,1,"second","include","no-social",1,FALSE,488
"Jan 09 2015","05:04:06",30,"Live","SocialFirst","Three",4,"Firefox",13,"Same",1,"Novel77",3,"Novel77",3,644,"straight-ahead",-1,"exposure",3,TRUE,FALSE,4,FALSE,1,"second","include","no-social",1,FALSE,644
"Jan 09 2015","05:04:06",31,"Live","SocialFirst","Three",4,"Firefox",14,"Switch",1,"Novel62",0,"Novel11",1,661,"straight-ahead",-1,"exposure",3,TRUE,FALSE,4,FALSE,1,"second","include","no-social",1,FALSE,661
"Jan 09 2015","05:04:06",32,"Live","SocialFirst","Three",4,"Firefox",15,"Same",1,"Novel93",3,"Novel93",3,1341,"straight-ahead",-1,"exposure",3,TRUE,FALSE,4,FALSE,1,"second","include","no-social",1,FALSE,1341
"Jan 09 2015","07:05:33",9,"Live","No-socialFirst","Three",4,"Safari",0,"Same",1,"Novel130",1,"Novel130",1,1837,"straight-ahead",-1,"test",3,TRUE,TRUE,4,TRUE,3,"first","include","no-social",0.875,FALSE,6409
"Jan 09 2015","07:05:33",10,"Live","No-socialFirst","Three",4,"Safari",1,"Switch",1,"Novel10",2,"Novel23",1,3700,"straight-ahead",-1,"test",3,TRUE,FALSE,4,FALSE,3,"first","include","no-social",0.875,FALSE,5911
"Jan 09 2015","07:05:33",11,"Live","No-socialFirst","Three",4,"Safari",2,"Same",0,"Novel18",1,"Novel18",2,4868,"straight-ahead",-1,"test",3,TRUE,FALSE,4,TRUE,3,"first","include","no-social",0.875,FALSE,3145
"Jan 09 2015","07:05:33",12,"Live","No-socialFirst","Three",4,"Safari",3,"Switch",0,"Novel112",2,"Novel92",3,4284,"straight-ahead",-1,"test",3,TRUE,FALSE,4,FALSE,3,"first","include","no-social",0.875,FALSE,4529
"Jan 09 2015","07:05:33",17,"Live","No-socialFirst","Three",4,"Safari",4,"Same",1,"Novel30",0,"Novel30",0,1234,"straight-ahead",-1,"test",3,TRUE,FALSE,4,TRUE,3,"first","include","no-social",0.875,FALSE,5485
"Jan 09 2015","07:05:33",18,"Live","No-socialFirst","Three",4,"Safari",5,"Switch",1,"Novel67",3,"Novel60",0,2505,"straight-ahead",-1,"test",3,TRUE,FALSE,4,FALSE,3,"first","include","no-social",0.875,FALSE,5224
"Jan 09 2015","07:05:33",19,"Live","No-socialFirst","Three",4,"Safari",6,"Same",0,"Novel39",2,"Novel39",1,1436,"straight-ahead",-1,"test",3,TRUE,FALSE,4,TRUE,3,"first","include","no-social",0.875,FALSE,2586
"Jan 09 2015","07:05:33",20,"Live","No-socialFirst","Three",4,"Safari",7,"Switch",0,"Novel136",3,"Novel136",2,2477,"straight-ahead",-1,"test",3,TRUE,FALSE,4,TRUE,3,"first","include","no-social",0.875,FALSE,3303
"Jan 09 2015","07:05:33",25,"Live","No-socialFirst","Three",4,"Safari",8,"Same",1,"Novel33",3,"Novel33",3,1725,"straight-ahead",-1,"test",3,TRUE,FALSE,4,TRUE,3,"second","include","social",0.875,TRUE,3468
"Jan 09 2015","07:05:33",26,"Live","No-socialFirst","Three",4,"Safari",9,"Switch",1,"Novel127",1,"Novel4",0,2196,"straight-ahead",-1,"test",3,TRUE,FALSE,4,FALSE,3,"second","include","social",0.875,TRUE,2183
"Jan 09 2015","07:05:33",28,"Live","No-socialFirst","Three",4,"Safari",11,"Switch",0,"Novel14",1,"Novel14",0,2262,"straight-ahead",-1,"test",3,TRUE,FALSE,4,TRUE,3,"second","include","social",0.875,TRUE,1201
"Jan 09 2015","07:05:33",33,"Live","No-socialFirst","Three",4,"Safari",12,"Same",1,"Novel31",0,"Novel31",0,1236,"straight-ahead",-1,"test",3,TRUE,FALSE,4,TRUE,3,"second","include","social",0.875,TRUE,1557
"Jan 09 2015","07:05:33",34,"Live","No-socialFirst","Three",4,"Safari",13,"Switch",1,"Novel45",2,"Novel36",3,3614,"straight-ahead",-1,"test",3,TRUE,FALSE,4,FALSE,3,"second","include","social",0.875,TRUE,1006
"Jan 09 2015","07:05:33",35,"Live","No-socialFirst","Three",4,"Safari",14,"Same",0,"Novel74",3,"Novel125",0,804,"straight-ahead",-1,"test",3,TRUE,FALSE,4,FALSE,3,"second","include","social",0.875,TRUE,1123
"Jan 09 2015","07:05:33",36,"Live","No-socialFirst","Three",4,"Safari",15,"Switch",0,"Novel47",2,"Novel29",2,3118,"straight-ahead",-1,"test",3,TRUE,FALSE,4,FALSE,3,"second","include","social",0.875,TRUE,941
"Jan 09 2015","07:05:33",5,"Live","No-socialFirst","Three",4,"Safari",0,"Same",1,"Novel130",1,"Novel130",1,6409,"straight-ahead",-1,"exposure",3,TRUE,FALSE,4,FALSE,3,"first","include","no-social",0.875,FALSE,6409
"Jan 09 2015","07:05:33",6,"Live","No-socialFirst","Three",4,"Safari",1,"Switch",1,"Novel80",0,"Novel23",1,5911,"straight-ahead",-1,"exposure",3,TRUE,FALSE,4,FALSE,3,"first","include","no-social",0.875,FALSE,5911
"Jan 09 2015","07:05:33",7,"Live","No-socialFirst","Three",4,"Safari",2,"Same",0,"Novel18",2,"Novel18",2,3145,"straight-ahead",-1,"exposure",3,TRUE,FALSE,4,FALSE,3,"first","include","no-social",0.875,FALSE,3145
"Jan 09 2015","07:05:33",8,"Live","No-socialFirst","Three",4,"Safari",3,"Switch",0,"Novel109",1,"Novel92",3,4529,"straight-ahead",-1,"exposure",3,TRUE,FALSE,4,FALSE,3,"first","include","no-social",0.875,FALSE,4529
"Jan 09 2015","07:05:33",13,"Live","No-socialFirst","Three",4,"Safari",4,"Same",1,"Novel30",0,"Novel30",0,5485,"straight-ahead",-1,"exposure",3,TRUE,FALSE,4,FALSE,3,"first","include","no-social",0.875,FALSE,5485
"Jan 09 2015","07:05:33",14,"Live","No-socialFirst","Three",4,"Safari",5,"Switch",1,"Novel12",3,"Novel60",0,5224,"straight-ahead",-1,"exposure",3,TRUE,FALSE,4,FALSE,3,"first","include","no-social",0.875,FALSE,5224
"Jan 09 2015","07:05:33",15,"Live","No-socialFirst","Three",4,"Safari",6,"Same",0,"Novel39",1,"Novel39",1,2586,"straight-ahead",-1,"exposure",3,TRUE,FALSE,4,FALSE,3,"first","include","no-social",0.875,FALSE,2586
"Jan 09 2015","07:05:33",16,"Live","No-socialFirst","Three",4,"Safari",7,"Switch",0,"Novel135",1,"Novel136",2,3303,"straight-ahead",-1,"exposure",3,TRUE,FALSE,4,FALSE,3,"first","include","no-social",0.875,FALSE,3303
"Jan 09 2015","07:05:33",21,"Live","No-socialFirst","Three",4,"Safari",8,"Same",1,"Novel33",3,"Novel33",3,3468,"down-right-4sec",3,"exposure",3,TRUE,FALSE,4,TRUE,3,"second","include","social",0.875,TRUE,3468
"Jan 09 2015","07:05:33",22,"Live","No-socialFirst","Three",4,"Safari",9,"Switch",1,"Novel48",1,"Novel4",0,2183,"up-right-4sec",1,"exposure",3,TRUE,FALSE,4,TRUE,3,"second","include","social",0.875,TRUE,2183
"Jan 09 2015","07:05:33",23,"Live","No-socialFirst","Three",4,"Safari",10,"Same",0,"Novel123",0,"Novel123",0,3704,"down-right-4sec",3,"exposure",3,TRUE,FALSE,4,FALSE,3,"second","include","social",0.875,FALSE,3704
"Jan 09 2015","07:05:33",24,"Live","No-socialFirst","Three",4,"Safari",11,"Switch",0,"Novel76",1,"Novel14",0,1201,"up-right-4sec",1,"exposure",3,TRUE,FALSE,4,TRUE,3,"second","include","social",0.875,TRUE,1201
"Jan 09 2015","07:05:33",29,"Live","No-socialFirst","Three",4,"Safari",12,"Same",1,"Novel31",0,"Novel31",0,1557,"up-left-4sec",0,"exposure",3,TRUE,FALSE,4,TRUE,3,"second","include","social",0.875,TRUE,1557
"Jan 09 2015","07:05:33",30,"Live","No-socialFirst","Three",4,"Safari",13,"Switch",1,"Novel126",1,"Novel36",3,1006,"up-right-4sec",1,"exposure",3,TRUE,FALSE,4,TRUE,3,"second","include","social",0.875,TRUE,1006
"Jan 09 2015","07:05:33",31,"Live","No-socialFirst","Three",4,"Safari",14,"Same",0,"Novel125",0,"Novel125",0,1123,"up-left-4sec",0,"exposure",3,TRUE,FALSE,4,TRUE,3,"second","include","social",0.875,TRUE,1123
"Jan 09 2015","07:05:33",32,"Live","No-socialFirst","Three",4,"Safari",15,"Switch",0,"Novel139",1,"Novel29",2,941,"up-right-4sec",1,"exposure",3,TRUE,FALSE,4,TRUE,3,"second","include","social",0.875,TRUE,941
"Jan 08 2015","23:11:29",9,"Live","No-socialFirst","Three",4,"Chrome",0,"Switch",0,"Novel133",2,"Novel133",1,1735,"straight-ahead",-1,"test",3,TRUE,TRUE,4,TRUE,4,"first","include","no-social",1,FALSE,4815
"Jan 08 2015","23:11:29",10,"Live","No-socialFirst","Three",4,"Chrome",1,"Same",0,"Novel92",3,"Novel92",2,2772,"straight-ahead",-1,"test",3,TRUE,FALSE,4,TRUE,4,"first","include","no-social",1,FALSE,6970
"Jan 08 2015","23:11:29",11,"Live","No-socialFirst","Three",4,"Chrome",2,"Switch",0,"Novel68",2,"Novel68",1,2349,"straight-ahead",-1,"test",3,TRUE,FALSE,4,TRUE,4,"first","include","no-social",1,FALSE,4301
"Jan 08 2015","23:11:29",12,"Live","No-socialFirst","Three",4,"Chrome",3,"Same",1,"Novel95",2,"Novel95",2,677,"straight-ahead",-1,"test",3,TRUE,FALSE,4,TRUE,4,"first","include","no-social",1,FALSE,1582
"Jan 08 2015","23:11:29",17,"Live","No-socialFirst","Three",4,"Chrome",4,"Switch",1,"Novel28",0,"Novel28",0,3770,"straight-ahead",-1,"test",3,TRUE,FALSE,4,TRUE,4,"first","include","no-social",1,FALSE,3786
"Jan 08 2015","23:11:29",18,"Live","No-socialFirst","Three",4,"Chrome",5,"Same",1,"Novel129",2,"Novel129",2,1130,"straight-ahead",-1,"test",3,TRUE,FALSE,4,TRUE,4,"first","include","no-social",1,FALSE,2951
"Jan 08 2015","23:11:29",19,"Live","No-socialFirst","Three",4,"Chrome",6,"Switch",1,"Novel25",0,"Novel1",2,1123,"straight-ahead",-1,"test",3,TRUE,FALSE,4,FALSE,4,"first","include","no-social",1,FALSE,3176
"Jan 08 2015","23:11:29",20,"Live","No-socialFirst","Three",4,"Chrome",7,"Same",0,"Novel29",1,"Novel29",0,2090,"straight-ahead",-1,"test",3,TRUE,FALSE,4,TRUE,4,"first","include","no-social",1,FALSE,1297
"Jan 08 2015","23:11:29",25,"Live","No-socialFirst","Three",4,"Chrome",8,"Switch",0,"Novel88",1,"Novel140",0,5631,"straight-ahead",-1,"test",3,TRUE,FALSE,4,FALSE,4,"second","include","social",1,TRUE,1186
"Jan 08 2015","23:11:29",27,"Live","No-socialFirst","Three",4,"Chrome",10,"Switch",0,"Novel55",2,"Novel60",0,1221,"straight-ahead",-1,"test",3,TRUE,FALSE,4,FALSE,4,"second","include","social",1,TRUE,603
"Jan 08 2015","23:11:29",28,"Live","No-socialFirst","Three",4,"Chrome",11,"Same",1,"Novel119",0,"Novel119",0,441,"straight-ahead",-1,"test",3,TRUE,FALSE,4,TRUE,4,"second","include","social",1,TRUE,350
"Jan 08 2015","23:11:29",33,"Live","No-socialFirst","Three",4,"Chrome",12,"Switch",1,"Novel78",3,"Novel101",1,1565,"straight-ahead",-1,"test",3,TRUE,FALSE,4,FALSE,4,"second","include","social",1,TRUE,2390
"Jan 08 2015","23:11:29",35,"Live","No-socialFirst","Three",4,"Chrome",14,"Switch",1,"Novel99",1,"Novel13",0,2073,"straight-ahead",-1,"test",3,TRUE,FALSE,4,FALSE,4,"second","include","social",1,TRUE,975
"Jan 08 2015","23:11:29",36,"Live","No-socialFirst","Three",4,"Chrome",15,"Same",0,"Novel109",2,"Novel109",1,1430,"straight-ahead",-1,"test",3,TRUE,FALSE,4,TRUE,4,"second","include","social",1,TRUE,439
"Jan 08 2015","23:11:29",5,"Live","No-socialFirst","Three",4,"Chrome",0,"Switch",0,"Novel134",0,"Novel133",1,4815,"straight-ahead",-1,"exposure",3,TRUE,FALSE,4,FALSE,4,"first","include","no-social",1,FALSE,4815
"Jan 08 2015","23:11:29",6,"Live","No-socialFirst","Three",4,"Chrome",1,"Same",0,"Novel92",2,"Novel92",2,6970,"straight-ahead",-1,"exposure",3,TRUE,FALSE,4,FALSE,4,"first","include","no-social",1,FALSE,6970
"Jan 08 2015","23:11:29",7,"Live","No-socialFirst","Three",4,"Chrome",2,"Switch",0,"Novel43",2,"Novel68",1,4301,"straight-ahead",-1,"exposure",3,TRUE,FALSE,4,FALSE,4,"first","include","no-social",1,FALSE,4301
"Jan 08 2015","23:11:29",8,"Live","No-socialFirst","Three",4,"Chrome",3,"Same",1,"Novel95",2,"Novel95",2,1582,"straight-ahead",-1,"exposure",3,TRUE,FALSE,4,FALSE,4,"first","include","no-social",1,FALSE,1582
"Jan 08 2015","23:11:29",13,"Live","No-socialFirst","Three",4,"Chrome",4,"Switch",1,"Novel81",1,"Novel28",0,3786,"straight-ahead",-1,"exposure",3,TRUE,FALSE,4,FALSE,4,"first","include","no-social",1,FALSE,3786
"Jan 08 2015","23:11:29",14,"Live","No-socialFirst","Three",4,"Chrome",5,"Same",1,"Novel129",2,"Novel129",2,2951,"straight-ahead",-1,"exposure",3,TRUE,FALSE,4,FALSE,4,"first","include","no-social",1,FALSE,2951
"Jan 08 2015","23:11:29",15,"Live","No-socialFirst","Three",4,"Chrome",6,"Switch",1,"Novel123",0,"Novel1",2,3176,"straight-ahead",-1,"exposure",3,TRUE,FALSE,4,FALSE,4,"first","include","no-social",1,FALSE,3176
"Jan 08 2015","23:11:29",16,"Live","No-socialFirst","Three",4,"Chrome",7,"Same",0,"Novel29",0,"Novel29",0,1297,"straight-ahead",-1,"exposure",3,TRUE,FALSE,4,FALSE,4,"first","include","no-social",1,FALSE,1297
"Jan 08 2015","23:11:29",21,"Live","No-socialFirst","Three",4,"Chrome",8,"Switch",0,"Novel64",3,"Novel140",0,1186,"down-right-4sec",3,"exposure",3,TRUE,FALSE,4,TRUE,4,"second","include","social",1,TRUE,1186
"Jan 08 2015","23:11:29",22,"Live","No-socialFirst","Three",4,"Chrome",9,"Same",0,"Novel8",2,"Novel8",2,946,"down-left-4sec",2,"exposure",3,TRUE,FALSE,4,TRUE,4,"second","include","social",1,TRUE,946
"Jan 08 2015","23:11:29",23,"Live","No-socialFirst","Three",4,"Chrome",10,"Switch",0,"Novel85",2,"Novel60",0,603,"down-left-4sec",2,"exposure",3,TRUE,FALSE,4,TRUE,4,"second","include","social",1,TRUE,603
"Jan 08 2015","23:11:29",29,"Live","No-socialFirst","Three",4,"Chrome",12,"Switch",1,"Novel11",3,"Novel101",1,2390,"down-right-4sec",3,"exposure",3,TRUE,FALSE,4,TRUE,4,"second","include","social",1,TRUE,2390
"Jan 08 2015","23:11:29",30,"Live","No-socialFirst","Three",4,"Chrome",13,"Same",1,"Novel15",2,"Novel15",2,489,"down-left-4sec",2,"exposure",3,TRUE,FALSE,4,TRUE,4,"second","include","social",1,TRUE,489
"Jan 08 2015","23:11:29",31,"Live","No-socialFirst","Three",4,"Chrome",14,"Switch",1,"Novel35",2,"Novel13",0,975,"down-left-4sec",2,"exposure",3,TRUE,FALSE,4,TRUE,4,"second","include","social",1,TRUE,975
"Jan 08 2015","23:11:29",32,"Live","No-socialFirst","Three",4,"Chrome",15,"Same",0,"Novel109",1,"Novel109",1,439,"up-right-4sec",1,"exposure",3,TRUE,FALSE,4,TRUE,4,"second","include","social",1,TRUE,439
"Jan 09 2015","05:51:30",9,"Live","SocialFirst","Three",4,"Chrome",0,"Switch",0,"Novel56",2,"Novel56",1,3142,"straight-ahead",-1,"test",3,TRUE,TRUE,4,TRUE,5,"first","include","social",1,TRUE,1206
"Jan 09 2015","05:51:30",10,"Live","SocialFirst","Three",4,"Chrome",1,"Same",1,"Novel81",3,"Novel81",3,1474,"straight-ahead",-1,"test",3,TRUE,FALSE,4,TRUE,5,"first","include","social",1,TRUE,415
"Jan 09 2015","05:51:30",11,"Live","SocialFirst","Three",4,"Chrome",2,"Switch",1,"Novel53",0,"Novel43",1,1001,"straight-ahead",-1,"test",3,TRUE,FALSE,4,FALSE,5,"first","include","social",1,TRUE,316
"Jan 09 2015","05:51:30",12,"Live","SocialFirst","Three",4,"Chrome",3,"Same",1,"Novel41",0,"Novel41",0,434,"straight-ahead",-1,"test",3,TRUE,FALSE,4,TRUE,5,"first","include","social",1,TRUE,142
"Jan 09 2015","05:51:30",17,"Live","SocialFirst","Three",4,"Chrome",4,"Switch",0,"Novel29",3,"Novel29",0,2230,"straight-ahead",-1,"test",3,TRUE,FALSE,4,TRUE,5,"first","include","social",1,TRUE,1062
"Jan 09 2015","05:51:30",18,"Live","SocialFirst","Three",4,"Chrome",5,"Same",0,"Novel116",3,"Novel116",1,456,"straight-ahead",-1,"test",3,TRUE,FALSE,4,TRUE,5,"first","include","social",1,TRUE,616
"Jan 09 2015","05:51:30",19,"Live","SocialFirst","Three",4,"Chrome",6,"Switch",1,"Novel21",0,"Novel42",2,929,"straight-ahead",-1,"test",3,TRUE,FALSE,4,FALSE,5,"first","include","social",1,TRUE,582
"Jan 09 2015","05:51:30",25,"Live","SocialFirst","Three",4,"Chrome",8,"Switch",0,"Novel85",3,"Novel13",3,1003,"straight-ahead",-1,"test",3,TRUE,FALSE,4,FALSE,5,"second","include","no-social",1,FALSE,2620
"Jan 09 2015","05:51:30",26,"Live","SocialFirst","Three",4,"Chrome",9,"Same",1,"Novel110",3,"Novel110",3,772,"straight-ahead",-1,"test",3,TRUE,FALSE,4,TRUE,5,"second","include","no-social",1,FALSE,2413
"Jan 09 2015","05:51:30",27,"Live","SocialFirst","Three",4,"Chrome",10,"Switch",1,"Novel122",1,"Novel122",1,2230,"straight-ahead",-1,"test",3,TRUE,FALSE,4,TRUE,5,"second","include","no-social",1,FALSE,1690
"Jan 09 2015","05:51:30",28,"Live","SocialFirst","Three",4,"Chrome",11,"Same",1,"Novel125",3,"Novel125",3,1557,"straight-ahead",-1,"test",3,TRUE,FALSE,4,TRUE,5,"second","include","no-social",1,FALSE,893
"Jan 09 2015","05:51:30",33,"Live","SocialFirst","Three",4,"Chrome",12,"Switch",0,"Novel15",1,"Novel5",1,2247,"straight-ahead",-1,"test",3,TRUE,FALSE,4,FALSE,5,"second","include","no-social",1,FALSE,287
"Jan 09 2015","05:51:30",35,"Live","SocialFirst","Three",4,"Chrome",14,"Switch",1,"Novel111",2,"Novel73",0,1143,"straight-ahead",-1,"test",3,TRUE,FALSE,4,FALSE,5,"second","include","no-social",1,FALSE,1020
"Jan 09 2015","05:51:30",36,"Live","SocialFirst","Three",4,"Chrome",15,"Same",0,"Novel40",0,"Novel40",1,467,"straight-ahead",-1,"test",3,TRUE,FALSE,4,TRUE,5,"second","include","no-social",1,FALSE,4217
"Jan 09 2015","05:51:30",5,"Live","SocialFirst","Three",4,"Chrome",0,"Switch",0,"Novel25",2,"Novel56",1,1206,"down-left-4sec",2,"exposure",3,TRUE,FALSE,4,TRUE,5,"first","include","social",1,TRUE,1206
"Jan 09 2015","05:51:30",6,"Live","SocialFirst","Three",4,"Chrome",1,"Same",1,"Novel81",3,"Novel81",3,415,"down-right-4sec",3,"exposure",3,TRUE,FALSE,4,TRUE,5,"first","include","social",1,TRUE,415
"Jan 09 2015","05:51:30",13,"Live","SocialFirst","Three",4,"Chrome",4,"Switch",0,"Novel121",1,"Novel29",0,1062,"up-right-4sec",1,"exposure",3,TRUE,FALSE,4,TRUE,5,"first","include","social",1,TRUE,1062
"Jan 09 2015","05:51:30",14,"Live","SocialFirst","Three",4,"Chrome",5,"Same",0,"Novel116",1,"Novel116",1,616,"up-right-4sec",1,"exposure",3,TRUE,FALSE,4,TRUE,5,"first","include","social",1,TRUE,616
"Jan 09 2015","05:51:30",15,"Live","SocialFirst","Three",4,"Chrome",6,"Switch",1,"Novel137",0,"Novel42",2,582,"up-left-4sec",0,"exposure",3,TRUE,FALSE,4,TRUE,5,"first","include","social",1,TRUE,582
"Jan 09 2015","05:51:30",16,"Live","SocialFirst","Three",4,"Chrome",7,"Same",0,"Novel64",0,"Novel64",0,503,"up-left-4sec",0,"exposure",3,TRUE,FALSE,4,TRUE,5,"first","include","social",1,TRUE,503
"Jan 09 2015","05:51:30",21,"Live","SocialFirst","Three",4,"Chrome",8,"Switch",0,"Novel80",0,"Novel13",3,2620,"straight-ahead",-1,"exposure",3,TRUE,FALSE,4,FALSE,5,"second","include","no-social",1,FALSE,2620
"Jan 09 2015","05:51:30",22,"Live","SocialFirst","Three",4,"Chrome",9,"Same",1,"Novel110",3,"Novel110",3,2413,"straight-ahead",-1,"exposure",3,TRUE,FALSE,4,FALSE,5,"second","include","no-social",1,FALSE,2413
"Jan 09 2015","05:51:30",23,"Live","SocialFirst","Three",4,"Chrome",10,"Switch",1,"Novel129",3,"Novel122",1,1690,"straight-ahead",-1,"exposure",3,TRUE,FALSE,4,FALSE,5,"second","include","no-social",1,FALSE,1690
"Jan 09 2015","05:51:30",24,"Live","SocialFirst","Three",4,"Chrome",11,"Same",1,"Novel125",3,"Novel125",3,893,"straight-ahead",-1,"exposure",3,TRUE,FALSE,4,FALSE,5,"second","include","no-social",1,FALSE,893
"Jan 09 2015","05:51:30",31,"Live","SocialFirst","Three",4,"Chrome",14,"Switch",1,"Novel108",1,"Novel73",0,1020,"straight-ahead",-1,"exposure",3,TRUE,FALSE,4,FALSE,5,"second","include","no-social",1,FALSE,1020
"Jan 09 2015","05:51:30",32,"Live","SocialFirst","Three",4,"Chrome",15,"Same",0,"Novel40",1,"Novel40",1,4217,"straight-ahead",-1,"exposure",3,TRUE,FALSE,4,FALSE,5,"second","include","no-social",1,FALSE,4217
"Jan 08 2015","20:17:05",9,"Live","No-socialFirst","Three",4,"Chrome",0,"Switch",1,"Novel22",1,"Novel22",1,4141,"straight-ahead",-1,"test",3,TRUE,TRUE,4,TRUE,6,"first","include","no-social",0.75,FALSE,8942
"Jan 08 2015","20:17:05",10,"Live","No-socialFirst","Three",4,"Chrome",1,"Same",1,"Novel2",0,"Novel2",0,1284,"straight-ahead",-1,"test",3,TRUE,FALSE,4,TRUE,6,"first","include","no-social",0.75,FALSE,3935
"Jan 08 2015","20:17:05",11,"Live","No-socialFirst","Three",4,"Chrome",2,"Switch",1,"Novel11",3,"Novel11",3,1388,"straight-ahead",-1,"test",3,TRUE,FALSE,4,TRUE,6,"first","include","no-social",0.75,FALSE,4179
"Jan 08 2015","20:17:05",12,"Live","No-socialFirst","Three",4,"Chrome",3,"Same",0,"Novel28",3,"Novel28",0,713,"straight-ahead",-1,"test",3,TRUE,FALSE,4,TRUE,6,"first","include","no-social",0.75,FALSE,3137
"Jan 08 2015","20:17:05",17,"Live","No-socialFirst","Three",4,"Chrome",4,"Switch",0,"Novel125",2,"Novel125",3,961,"straight-ahead",-1,"test",3,TRUE,FALSE,4,TRUE,6,"first","include","no-social",0.75,FALSE,3251
"Jan 08 2015","20:17:05",18,"Live","No-socialFirst","Three",4,"Chrome",5,"Same",1,"Novel138",3,"Novel138",3,1391,"straight-ahead",-1,"test",3,TRUE,FALSE,4,TRUE,6,"first","include","no-social",0.75,FALSE,3453
"Jan 08 2015","20:17:05",20,"Live","No-socialFirst","Three",4,"Chrome",7,"Same",0,"Novel120",3,"Novel120",2,615,"straight-ahead",-1,"test",3,TRUE,FALSE,4,TRUE,6,"first","include","no-social",0.75,FALSE,2755
"Jan 08 2015","20:17:05",25,"Live","No-socialFirst","Three",4,"Chrome",8,"Switch",1,"Novel131",2,"Novel131",2,697,"straight-ahead",-1,"test",3,TRUE,FALSE,4,TRUE,6,"second","include","social",0.75,TRUE,2272
"Jan 08 2015","20:17:05",26,"Live","No-socialFirst","Three",4,"Chrome",9,"Same",1,"Novel126",3,"Novel126",3,4144,"straight-ahead",-1,"test",3,TRUE,FALSE,4,TRUE,6,"second","include","social",0.75,TRUE,1665
"Jan 08 2015","20:17:05",27,"Live","No-socialFirst","Three",4,"Chrome",10,"Switch",1,"Novel103",1,"Novel87",3,722,"straight-ahead",-1,"test",3,TRUE,FALSE,4,FALSE,6,"second","include","social",0.75,TRUE,1819
"Jan 08 2015","20:17:05",5,"Live","No-socialFirst","Three",4,"Chrome",0,"Switch",1,"Novel20",0,"Novel22",1,8942,"straight-ahead",-1,"exposure",3,TRUE,FALSE,4,FALSE,6,"first","include","no-social",0.75,FALSE,8942
"Jan 08 2015","20:17:05",6,"Live","No-socialFirst","Three",4,"Chrome",1,"Same",1,"Novel2",0,"Novel2",0,3935,"straight-ahead",-1,"exposure",3,TRUE,FALSE,4,FALSE,6,"first","include","no-social",0.75,FALSE,3935
"Jan 08 2015","20:17:05",7,"Live","No-socialFirst","Three",4,"Chrome",2,"Switch",1,"Novel130",2,"Novel11",3,4179,"straight-ahead",-1,"exposure",3,TRUE,FALSE,4,FALSE,6,"first","include","no-social",0.75,FALSE,4179
"Jan 08 2015","20:17:05",8,"Live","No-socialFirst","Three",4,"Chrome",3,"Same",0,"Novel28",0,"Novel28",0,3137,"straight-ahead",-1,"exposure",3,TRUE,FALSE,4,FALSE,6,"first","include","no-social",0.75,FALSE,3137
"Jan 08 2015","20:17:05",13,"Live","No-socialFirst","Three",4,"Chrome",4,"Switch",0,"Novel56",0,"Novel125",3,3251,"straight-ahead",-1,"exposure",3,TRUE,FALSE,4,FALSE,6,"first","include","no-social",0.75,FALSE,3251
"Jan 08 2015","20:17:05",14,"Live","No-socialFirst","Three",4,"Chrome",5,"Same",1,"Novel138",3,"Novel138",3,3453,"straight-ahead",-1,"exposure",3,TRUE,FALSE,4,FALSE,6,"first","include","no-social",0.75,FALSE,3453
"Jan 08 2015","20:17:05",15,"Live","No-socialFirst","Three",4,"Chrome",6,"Switch",0,"Novel118",0,"Novel62",3,3730,"straight-ahead",-1,"exposure",3,TRUE,FALSE,4,FALSE,6,"first","include","no-social",0.75,FALSE,3730
"Jan 08 2015","20:17:05",16,"Live","No-socialFirst","Three",4,"Chrome",7,"Same",0,"Novel120",2,"Novel120",2,2755,"straight-ahead",-1,"exposure",3,TRUE,FALSE,4,FALSE,6,"first","include","no-social",0.75,FALSE,2755
"Jan 08 2015","20:17:05",21,"Live","No-socialFirst","Three",4,"Chrome",8,"Switch",1,"Novel107",0,"Novel131",2,2272,"up-left-4sec",0,"exposure",3,TRUE,FALSE,4,TRUE,6,"second","include","social",0.75,TRUE,2272
"Jan 08 2015","20:17:05",22,"Live","No-socialFirst","Three",4,"Chrome",9,"Same",1,"Novel126",3,"Novel126",3,1665,"down-right-4sec",3,"exposure",3,TRUE,FALSE,4,TRUE,6,"second","include","social",0.75,TRUE,1665
"Jan 08 2015","20:17:05",23,"Live","No-socialFirst","Three",4,"Chrome",10,"Switch",1,"Novel112",0,"Novel87",3,1819,"up-left-4sec",0,"exposure",3,TRUE,FALSE,4,TRUE,6,"second","include","social",0.75,TRUE,1819
"Jan 08 2015","20:17:05",24,"Live","No-socialFirst","Three",4,"Chrome",11,"Same",0,"Novel77",1,"Novel77",1,1286,"up-right-4sec",1,"exposure",3,TRUE,FALSE,4,TRUE,6,"second","include","social",0.75,TRUE,1286
"Jan 08 2015","20:17:05",29,"Live","No-socialFirst","Three",4,"Chrome",12,"Switch",0,"Novel70",3,"Novel6",2,2879,"down-left-4sec",2,"exposure",3,TRUE,FALSE,4,FALSE,6,"second","include","social",0.75,FALSE,2879
"Jan 08 2015","20:17:05",30,"Live","No-socialFirst","Three",4,"Chrome",13,"Same",1,"Novel86",0,"Novel86",0,2192,"up-left-4sec",0,"exposure",3,TRUE,FALSE,4,TRUE,6,"second","include","social",0.75,TRUE,2192
"Jan 08 2015","20:17:05",31,"Live","No-socialFirst","Three",4,"Chrome",14,"Switch",0,"Novel127",3,"Novel73",2,3983,"up-right-4sec",1,"exposure",3,TRUE,FALSE,4,FALSE,6,"second","include","social",0.75,FALSE,3983
"Jan 08 2015","20:17:05",32,"Live","No-socialFirst","Three",4,"Chrome",15,"Same",0,"Novel55",3,"Novel55",3,2229,"down-right-4sec",3,"exposure",3,TRUE,FALSE,4,TRUE,6,"second","include","social",0.75,TRUE,2229
"Jan 08 2015","17:17:46",9,"Live","SocialFirst","Three",4,"Chrome",0,"Switch",1,"Novel106",0,"Novel85",2,3802,"straight-ahead",-1,"test",3,TRUE,TRUE,4,FALSE,7,"first","include","social",1,TRUE,1457
"Jan 08 2015","17:17:46",10,"Live","SocialFirst","Three",4,"Chrome",1,"Same",1,"Novel40",0,"Novel40",0,1870,"straight-ahead",-1,"test",3,TRUE,FALSE,4,TRUE,7,"first","include","social",1,TRUE,1653
"Jan 08 2015","17:17:46",11,"Live","SocialFirst","Three",4,"Chrome",2,"Switch",0,"Novel117",1,"Novel75",1,4033,"straight-ahead",-1,"test",3,TRUE,FALSE,4,FALSE,7,"first","include","social",1,TRUE,1287
"Jan 08 2015","17:17:46",12,"Live","SocialFirst","Three",4,"Chrome",3,"Same",1,"Novel81",3,"Novel81",3,2032,"straight-ahead",-1,"test",3,TRUE,FALSE,4,TRUE,7,"first","include","social",1,TRUE,1515
"Jan 08 2015","17:17:46",17,"Live","SocialFirst","Three",4,"Chrome",4,"Switch",1,"Novel89",3,"Novel15",0,4187,"straight-ahead",-1,"test",3,TRUE,FALSE,4,FALSE,7,"first","include","social",1,TRUE,1428
"Jan 08 2015","17:17:46",18,"Live","SocialFirst","Three",4,"Chrome",5,"Same",0,"Novel17",1,"Novel17",0,1675,"straight-ahead",-1,"test",3,TRUE,FALSE,4,TRUE,7,"first","include","social",1,TRUE,2375
"Jan 08 2015","17:17:46",19,"Live","SocialFirst","Three",4,"Chrome",6,"Switch",0,"Novel128",1,"Novel32",3,3188,"straight-ahead",-1,"test",3,TRUE,FALSE,4,FALSE,7,"first","include","social",1,TRUE,1465
"Jan 08 2015","17:17:46",20,"Live","SocialFirst","Three",4,"Chrome",7,"Same",0,"Novel65",2,"Novel65",1,1420,"straight-ahead",-1,"test",3,TRUE,FALSE,4,TRUE,7,"first","include","social",1,TRUE,1033
"Jan 08 2015","17:17:46",25,"Live","SocialFirst","Three",4,"Chrome",8,"Switch",1,"Novel121",1,"Novel127",3,3163,"straight-ahead",-1,"test",3,TRUE,FALSE,4,FALSE,7,"second","include","no-social",1,FALSE,2445
"Jan 08 2015","17:17:46",26,"Live","SocialFirst","Three",4,"Chrome",9,"Same",1,"Novel136",2,"Novel118",1,2668,"straight-ahead",-1,"test",3,TRUE,FALSE,4,FALSE,7,"second","include","no-social",1,FALSE,2590
"Jan 08 2015","17:17:46",27,"Live","SocialFirst","Three",4,"Chrome",10,"Switch",0,"Novel115",0,"Novel57",3,3015,"straight-ahead",-1,"test",3,TRUE,FALSE,4,FALSE,7,"second","include","no-social",1,FALSE,4235
"Jan 08 2015","17:17:46",28,"Live","SocialFirst","Three",4,"Chrome",11,"Same",1,"Novel22",2,"Novel22",2,1903,"straight-ahead",-1,"test",3,TRUE,FALSE,4,TRUE,7,"second","include","no-social",1,FALSE,2380
"Jan 08 2015","17:17:46",33,"Live","SocialFirst","Three",4,"Chrome",12,"Switch",1,"Novel80",1,"Novel80",1,3448,"straight-ahead",-1,"test",3,TRUE,FALSE,4,TRUE,7,"second","include","no-social",1,FALSE,3808
"Jan 08 2015","17:17:46",34,"Live","SocialFirst","Three",4,"Chrome",13,"Same",0,"Novel137",3,"Novel97",3,2643,"straight-ahead",-1,"test",3,TRUE,FALSE,4,FALSE,7,"second","include","no-social",1,FALSE,2795
"Jan 08 2015","17:17:46",35,"Live","SocialFirst","Three",4,"Chrome",14,"Switch",0,"Novel111",0,"Novel50",2,2920,"straight-ahead",-1,"test",3,TRUE,FALSE,4,FALSE,7,"second","include","no-social",1,FALSE,1427
"Jan 08 2015","17:17:46",36,"Live","SocialFirst","Three",4,"Chrome",15,"Same",0,"Novel134",1,"Novel134",2,1890,"straight-ahead",-1,"test",3,TRUE,FALSE,4,TRUE,7,"second","include","no-social",1,FALSE,3130
"Jan 08 2015","17:17:46",5,"Live","SocialFirst","Three",4,"Chrome",0,"Switch",1,"Novel63",3,"Novel85",2,1457,"down-right-4sec",3,"exposure",3,TRUE,FALSE,4,TRUE,7,"first","include","social",1,TRUE,1457
"Jan 08 2015","17:17:46",6,"Live","SocialFirst","Three",4,"Chrome",1,"Same",1,"Novel40",0,"Novel40",0,1653,"up-left-4sec",0,"exposure",3,TRUE,FALSE,4,TRUE,7,"first","include","social",1,TRUE,1653
"Jan 08 2015","17:17:46",7,"Live","SocialFirst","Three",4,"Chrome",2,"Switch",0,"Novel23",2,"Novel75",1,1287,"down-left-4sec",2,"exposure",3,TRUE,FALSE,4,TRUE,7,"first","include","social",1,TRUE,1287
"Jan 08 2015","17:17:46",8,"Live","SocialFirst","Three",4,"Chrome",3,"Same",1,"Novel81",3,"Novel81",3,1515,"down-right-4sec",3,"exposure",3,TRUE,FALSE,4,TRUE,7,"first","include","social",1,TRUE,1515
"Jan 08 2015","17:17:46",13,"Live","SocialFirst","Three",4,"Chrome",4,"Switch",1,"Novel55",2,"Novel15",0,1428,"down-left-4sec",2,"exposure",3,TRUE,FALSE,4,TRUE,7,"first","include","social",1,TRUE,1428
"Jan 08 2015","17:17:46",14,"Live","SocialFirst","Three",4,"Chrome",5,"Same",0,"Novel17",0,"Novel17",0,2375,"up-left-4sec",0,"exposure",3,TRUE,FALSE,4,TRUE,7,"first","include","social",1,TRUE,2375
"Jan 08 2015","17:17:46",15,"Live","SocialFirst","Three",4,"Chrome",6,"Switch",0,"Novel43",2,"Novel32",3,1465,"down-left-4sec",2,"exposure",3,TRUE,FALSE,4,TRUE,7,"first","include","social",1,TRUE,1465
"Jan 08 2015","17:17:46",16,"Live","SocialFirst","Three",4,"Chrome",7,"Same",0,"Novel65",1,"Novel65",1,1033,"up-right-4sec",1,"exposure",3,TRUE,FALSE,4,TRUE,7,"first","include","social",1,TRUE,1033
"Jan 08 2015","17:17:46",21,"Live","SocialFirst","Three",4,"Chrome",8,"Switch",1,"Novel94",0,"Novel127",3,2445,"straight-ahead",-1,"exposure",3,TRUE,FALSE,4,FALSE,7,"second","include","no-social",1,FALSE,2445
"Jan 08 2015","17:17:46",22,"Live","SocialFirst","Three",4,"Chrome",9,"Same",1,"Novel118",1,"Novel118",1,2590,"straight-ahead",-1,"exposure",3,TRUE,FALSE,4,FALSE,7,"second","include","no-social",1,FALSE,2590
"Jan 08 2015","17:17:46",23,"Live","SocialFirst","Three",4,"Chrome",10,"Switch",0,"Novel64",0,"Novel57",3,4235,"straight-ahead",-1,"exposure",3,TRUE,FALSE,4,FALSE,7,"second","include","no-social",1,FALSE,4235
"Jan 08 2015","17:17:46",24,"Live","SocialFirst","Three",4,"Chrome",11,"Same",1,"Novel22",2,"Novel22",2,2380,"straight-ahead",-1,"exposure",3,TRUE,FALSE,4,FALSE,7,"second","include","no-social",1,FALSE,2380
"Jan 08 2015","17:17:46",29,"Live","SocialFirst","Three",4,"Chrome",12,"Switch",1,"Novel62",0,"Novel80",1,3808,"straight-ahead",-1,"exposure",3,TRUE,FALSE,4,FALSE,7,"second","include","no-social",1,FALSE,3808
"Jan 08 2015","17:17:46",30,"Live","SocialFirst","Three",4,"Chrome",13,"Same",0,"Novel97",3,"Novel97",3,2795,"straight-ahead",-1,"exposure",3,TRUE,FALSE,4,FALSE,7,"second","include","no-social",1,FALSE,2795
"Jan 08 2015","17:17:46",31,"Live","SocialFirst","Three",4,"Chrome",14,"Switch",0,"Novel36",1,"Novel50",2,1427,"straight-ahead",-1,"exposure",3,TRUE,FALSE,4,FALSE,7,"second","include","no-social",1,FALSE,1427
"Jan 08 2015","17:17:46",32,"Live","SocialFirst","Three",4,"Chrome",15,"Same",0,"Novel134",2,"Novel134",2,3130,"straight-ahead",-1,"exposure",3,TRUE,FALSE,4,FALSE,7,"second","include","no-social",1,FALSE,3130
"Jan 08 2015","21:36:23",9,"Live","SocialFirst","Three",4,"Chrome",0,"Same",1,"Novel69",3,"Novel69",3,7872,"straight-ahead",-1,"test",3,TRUE,TRUE,4,TRUE,8,"first","include","social",1,TRUE,4152
"Jan 08 2015","21:36:23",10,"Live","SocialFirst","Three",4,"Chrome",1,"Switch",0,"Novel100",0,"Novel136",1,7118,"straight-ahead",-1,"test",3,TRUE,FALSE,4,FALSE,8,"first","include","social",1,TRUE,2636
"Jan 08 2015","21:36:23",11,"Live","SocialFirst","Three",4,"Chrome",2,"Same",1,"Novel46",2,"Novel46",2,2556,"straight-ahead",-1,"test",3,TRUE,FALSE,4,TRUE,8,"first","include","social",1,TRUE,2186
"Jan 08 2015","21:36:23",12,"Live","SocialFirst","Three",4,"Chrome",3,"Switch",0,"Novel75",2,"Novel13",3,6275,"straight-ahead",-1,"test",3,TRUE,FALSE,4,FALSE,8,"first","include","social",1,TRUE,1479
"Jan 08 2015","21:36:23",17,"Live","SocialFirst","Three",4,"Chrome",4,"Same",0,"Novel77",2,"Novel77",1,6285,"straight-ahead",-1,"test",3,TRUE,FALSE,4,TRUE,8,"first","include","social",1,TRUE,2958
"Jan 08 2015","21:36:23",18,"Live","SocialFirst","Three",4,"Chrome",5,"Switch",1,"Novel132",0,"Novel92",2,5571,"straight-ahead",-1,"test",3,TRUE,FALSE,4,FALSE,8,"first","include","social",1,TRUE,5606
"Jan 08 2015","21:36:23",19,"Live","SocialFirst","Three",4,"Chrome",6,"Same",0,"Novel63",3,"Novel63",2,2207,"straight-ahead",-1,"test",3,TRUE,FALSE,4,TRUE,8,"first","include","social",1,TRUE,3583
"Jan 08 2015","21:36:23",20,"Live","SocialFirst","Three",4,"Chrome",7,"Switch",1,"Novel138",2,"Novel81",3,3927,"straight-ahead",-1,"test",3,TRUE,FALSE,4,FALSE,8,"first","include","social",1,TRUE,3255
"Jan 08 2015","21:36:23",25,"Live","SocialFirst","Three",4,"Chrome",8,"Same",1,"Novel71",0,"Novel24",1,7647,"straight-ahead",-1,"test",3,TRUE,FALSE,4,FALSE,8,"second","include","no-social",1,FALSE,7885
"Jan 08 2015","21:36:23",26,"Live","SocialFirst","Three",4,"Chrome",9,"Switch",0,"Novel9",1,"Novel101",0,5257,"straight-ahead",-1,"test",3,TRUE,FALSE,4,FALSE,8,"second","include","no-social",1,FALSE,4232
"Jan 08 2015","21:36:23",27,"Live","SocialFirst","Three",4,"Chrome",10,"Same",1,"Novel109",2,"Novel109",2,3678,"straight-ahead",-1,"test",3,TRUE,FALSE,4,TRUE,8,"second","include","no-social",1,FALSE,6462
"Jan 08 2015","21:36:23",28,"Live","SocialFirst","Three",4,"Chrome",11,"Switch",0,"Novel86",0,"Novel86",1,4752,"straight-ahead",-1,"test",3,TRUE,FALSE,4,TRUE,8,"second","include","no-social",1,FALSE,4918
"Jan 08 2015","21:36:23",33,"Live","SocialFirst","Three",4,"Chrome",12,"Same",0,"Novel52",2,"Novel107",1,6062,"straight-ahead",-1,"test",3,TRUE,FALSE,4,FALSE,8,"second","include","no-social",1,FALSE,5541
"Jan 08 2015","21:36:23",34,"Live","SocialFirst","Three",4,"Chrome",13,"Switch",1,"Novel51",1,"Novel104",2,3226,"straight-ahead",-1,"test",3,TRUE,FALSE,4,FALSE,8,"second","include","no-social",1,FALSE,9173
"Jan 08 2015","21:36:23",35,"Live","SocialFirst","Three",4,"Chrome",14,"Same",0,"Novel57",1,"Novel116",2,5442,"straight-ahead",-1,"test",3,TRUE,FALSE,4,FALSE,8,"second","include","no-social",1,FALSE,4631
"Jan 08 2015","21:36:23",36,"Live","SocialFirst","Three",4,"Chrome",15,"Switch",1,"Novel98",1,"Novel43",3,6958,"straight-ahead",-1,"test",3,TRUE,FALSE,4,FALSE,8,"second","include","no-social",1,FALSE,4762
"Jan 08 2015","21:36:23",5,"Live","SocialFirst","Three",4,"Chrome",0,"Same",1,"Novel69",3,"Novel69",3,4152,"down-right-4sec",3,"exposure",3,TRUE,FALSE,4,TRUE,8,"first","include","social",1,TRUE,4152
"Jan 08 2015","21:36:23",6,"Live","SocialFirst","Three",4,"Chrome",1,"Switch",0,"Novel18",2,"Novel136",1,2636,"down-left-4sec",2,"exposure",3,TRUE,FALSE,4,TRUE,8,"first","include","social",1,TRUE,2636
"Jan 08 2015","21:36:23",7,"Live","SocialFirst","Three",4,"Chrome",2,"Same",1,"Novel46",2,"Novel46",2,2186,"down-left-4sec",2,"exposure",3,TRUE,FALSE,4,TRUE,8,"first","include","social",1,TRUE,2186
"Jan 08 2015","21:36:23",8,"Live","SocialFirst","Three",4,"Chrome",3,"Switch",0,"Novel17",2,"Novel13",3,1479,"down-left-4sec",2,"exposure",3,TRUE,FALSE,4,TRUE,8,"first","include","social",1,TRUE,1479
"Jan 08 2015","21:36:23",13,"Live","SocialFirst","Three",4,"Chrome",4,"Same",0,"Novel77",1,"Novel77",1,2958,"up-right-4sec",1,"exposure",3,TRUE,FALSE,4,TRUE,8,"first","include","social",1,TRUE,2958
"Jan 08 2015","21:36:23",14,"Live","SocialFirst","Three",4,"Chrome",5,"Switch",1,"Novel117",3,"Novel92",2,5606,"down-right-4sec",3,"exposure",3,TRUE,FALSE,4,TRUE,8,"first","include","social",1,TRUE,5606
"Jan 08 2015","21:36:23",15,"Live","SocialFirst","Three",4,"Chrome",6,"Same",0,"Novel63",2,"Novel63",2,3583,"down-left-4sec",2,"exposure",3,TRUE,FALSE,4,TRUE,8,"first","include","social",1,TRUE,3583
"Jan 08 2015","21:36:23",16,"Live","SocialFirst","Three",4,"Chrome",7,"Switch",1,"Novel106",0,"Novel81",3,3255,"up-left-4sec",0,"exposure",3,TRUE,FALSE,4,TRUE,8,"first","include","social",1,TRUE,3255
"Jan 08 2015","21:36:23",21,"Live","SocialFirst","Three",4,"Chrome",8,"Same",1,"Novel24",1,"Novel24",1,7885,"straight-ahead",-1,"exposure",3,TRUE,FALSE,4,FALSE,8,"second","include","no-social",1,FALSE,7885
"Jan 08 2015","21:36:23",22,"Live","SocialFirst","Three",4,"Chrome",9,"Switch",0,"Novel126",3,"Novel101",0,4232,"straight-ahead",-1,"exposure",3,TRUE,FALSE,4,FALSE,8,"second","include","no-social",1,FALSE,4232
"Jan 08 2015","21:36:23",23,"Live","SocialFirst","Three",4,"Chrome",10,"Same",1,"Novel109",2,"Novel109",2,6462,"straight-ahead",-1,"exposure",3,TRUE,FALSE,4,FALSE,8,"second","include","no-social",1,FALSE,6462
"Jan 08 2015","21:36:23",24,"Live","SocialFirst","Three",4,"Chrome",11,"Switch",0,"Novel76",2,"Novel86",1,4918,"straight-ahead",-1,"exposure",3,TRUE,FALSE,4,FALSE,8,"second","include","no-social",1,FALSE,4918
"Jan 08 2015","21:36:23",29,"Live","SocialFirst","Three",4,"Chrome",12,"Same",0,"Novel107",1,"Novel107",1,5541,"straight-ahead",-1,"exposure",3,TRUE,FALSE,4,FALSE,8,"second","include","no-social",1,FALSE,5541
"Jan 08 2015","21:36:23",30,"Live","SocialFirst","Three",4,"Chrome",13,"Switch",1,"Novel131",3,"Novel104",2,9173,"straight-ahead",-1,"exposure",3,TRUE,FALSE,4,FALSE,8,"second","include","no-social",1,FALSE,9173
"Jan 08 2015","21:36:23",31,"Live","SocialFirst","Three",4,"Chrome",14,"Same",0,"Novel116",2,"Novel116",2,4631,"straight-ahead",-1,"exposure",3,TRUE,FALSE,4,FALSE,8,"second","include","no-social",1,FALSE,4631
"Jan 08 2015","21:36:23",32,"Live","SocialFirst","Three",4,"Chrome",15,"Switch",1,"Novel89",2,"Novel43",3,4762,"straight-ahead",-1,"exposure",3,TRUE,FALSE,4,FALSE,8,"second","include","no-social",1,FALSE,4762
"Jan 08 2015","16:20:06",17,"Live","SocialFirst","Three",4,"Mozilla",4,"Switch",1,"Novel79",1,"Novel124",0,1820,"straight-ahead",-1,"test",3,TRUE,FALSE,4,FALSE,9,"first","include","social",0.5,TRUE,2770
"Jan 08 2015","16:20:06",18,"Live","SocialFirst","Three",4,"Mozilla",5,"Same",0,"Novel61",2,"Novel8",1,896,"straight-ahead",-1,"test",3,TRUE,FALSE,4,FALSE,9,"first","include","social",0.5,TRUE,993
"Jan 08 2015","16:20:06",19,"Live","SocialFirst","Three",4,"Mozilla",6,"Switch",1,"Novel113",1,"Novel52",0,1258,"straight-ahead",-1,"test",3,TRUE,FALSE,4,FALSE,9,"first","include","social",0.5,TRUE,329
"Jan 08 2015","16:20:06",25,"Live","SocialFirst","Three",4,"Mozilla",8,"Switch",0,"Novel80",1,"Novel96",0,519,"straight-ahead",-1,"test",3,TRUE,FALSE,4,FALSE,9,"second","include","no-social",0.5,FALSE,1645
"Jan 08 2015","16:20:06",26,"Live","SocialFirst","Three",4,"Mozilla",9,"Same",0,"Novel6",2,"Novel53",0,1989,"straight-ahead",-1,"test",3,TRUE,FALSE,4,FALSE,9,"second","include","no-social",0.5,FALSE,353
"Jan 08 2015","16:20:06",28,"Live","SocialFirst","Three",4,"Mozilla",11,"Same",1,"Novel112",1,"Novel42",3,965,"straight-ahead",-1,"test",3,TRUE,FALSE,4,FALSE,9,"second","include","no-social",0.5,FALSE,1279
"Jan 08 2015","16:20:06",34,"Live","SocialFirst","Three",4,"Mozilla",13,"Same",0,"Novel65",1,"Novel22",0,549,"straight-ahead",-1,"test",3,TRUE,FALSE,4,FALSE,9,"second","include","no-social",0.5,FALSE,1494
"Jan 08 2015","16:20:06",5,"Live","SocialFirst","Three",4,"Mozilla",0,"Switch",0,"Novel73",2,"Novel135",3,882,"down-left-4sec",2,"exposure",3,TRUE,FALSE,4,TRUE,9,"first","include","social",0.5,TRUE,882
"Jan 08 2015","16:20:06",6,"Live","SocialFirst","Three",4,"Mozilla",1,"Same",0,"Novel91",1,"Novel91",1,459,"down-left-4sec",2,"exposure",3,TRUE,FALSE,4,FALSE,9,"first","include","social",0.5,FALSE,459
"Jan 08 2015","16:20:06",7,"Live","SocialFirst","Three",4,"Mozilla",2,"Switch",0,"Novel30",0,"Novel2",1,426,"down-left-4sec",2,"exposure",3,TRUE,FALSE,4,FALSE,9,"first","include","social",0.5,FALSE,426
"Jan 08 2015","16:20:06",8,"Live","SocialFirst","Three",4,"Mozilla",3,"Same",1,"Novel34",3,"Novel34",3,1507,"down-left-4sec",2,"exposure",3,TRUE,FALSE,4,FALSE,9,"first","include","social",0.5,FALSE,1507
"Jan 08 2015","16:20:06",13,"Live","SocialFirst","Three",4,"Mozilla",4,"Switch",1,"Novel69",3,"Novel124",0,2770,"down-right-4sec",3,"exposure",3,TRUE,FALSE,4,TRUE,9,"first","include","social",0.5,TRUE,2770
"Jan 08 2015","16:20:06",14,"Live","SocialFirst","Three",4,"Mozilla",5,"Same",0,"Novel8",1,"Novel8",1,993,"up-right-4sec",1,"exposure",3,TRUE,FALSE,4,TRUE,9,"first","include","social",0.5,TRUE,993
"Jan 08 2015","16:20:06",16,"Live","SocialFirst","Three",4,"Mozilla",7,"Same",1,"Novel109",0,"Novel109",0,587,"up-right-4sec",1,"exposure",3,TRUE,FALSE,4,FALSE,9,"first","include","social",0.5,FALSE,587
"Jan 08 2015","16:20:06",21,"Live","SocialFirst","Three",4,"Mozilla",8,"Switch",0,"Novel70",1,"Novel96",0,1645,"straight-ahead",-1,"exposure",3,TRUE,FALSE,4,FALSE,9,"second","include","no-social",0.5,FALSE,1645
"Jan 08 2015","16:20:06",24,"Live","SocialFirst","Three",4,"Mozilla",11,"Same",1,"Novel42",3,"Novel42",3,1279,"straight-ahead",-1,"exposure",3,TRUE,FALSE,4,FALSE,9,"second","include","no-social",0.5,FALSE,1279
"Jan 08 2015","16:20:06",29,"Live","SocialFirst","Three",4,"Mozilla",12,"Switch",1,"Novel126",2,"Novel55",0,1882,"straight-ahead",-1,"exposure",3,TRUE,FALSE,4,FALSE,9,"second","include","no-social",0.5,FALSE,1882
"Jan 08 2015","16:20:06",30,"Live","SocialFirst","Three",4,"Mozilla",13,"Same",0,"Novel22",0,"Novel22",0,1494,"straight-ahead",-1,"exposure",3,TRUE,FALSE,4,FALSE,9,"second","include","no-social",0.5,FALSE,1494
"Jan 08 2015","22:01:58",10,"Live","No-socialFirst","Three",4,"Firefox",1,"Same",1,"Novel109",1,"Novel137",3,2457,"straight-ahead",-1,"test",3,TRUE,FALSE,4,FALSE,10,"first","include","no-social",0.375,FALSE,95
"Jan 08 2015","22:01:58",12,"Live","No-socialFirst","Three",4,"Firefox",3,"Same",0,"Novel27",2,"Novel27",0,704,"straight-ahead",-1,"test",3,TRUE,FALSE,4,TRUE,10,"first","include","no-social",0.375,FALSE,3289
"Jan 08 2015","22:01:58",17,"Live","No-socialFirst","Three",4,"Firefox",4,"Switch",0,"Novel106",2,"Novel3",1,3194,"straight-ahead",-1,"test",3,TRUE,FALSE,4,FALSE,10,"first","include","no-social",0.375,FALSE,182
"Jan 08 2015","22:01:58",19,"Live","No-socialFirst","Three",4,"Firefox",6,"Switch",0,"Novel12",2,"Novel73",2,6633,"straight-ahead",-1,"test",3,TRUE,FALSE,4,FALSE,10,"first","include","no-social",0.375,FALSE,349
"Jan 08 2015","22:01:58",20,"Live","No-socialFirst","Three",4,"Firefox",7,"Same",0,"Novel127",2,"Novel10",1,4918,"straight-ahead",-1,"test",3,TRUE,FALSE,4,FALSE,10,"first","include","no-social",0.375,FALSE,8558
"Jan 08 2015","22:01:58",28,"Live","No-socialFirst","Three",4,"Firefox",11,"Same",0,"Novel101",2,"Novel117",3,5567,"straight-ahead",-1,"test",3,TRUE,FALSE,4,FALSE,10,"second","include","social",0.375,TRUE,349
"Jan 08 2015","22:01:58",5,"Live","No-socialFirst","Three",4,"Firefox",0,"Switch",1,"Novel102",0,"Novel138",1,765,"straight-ahead",-1,"exposure",3,TRUE,FALSE,4,FALSE,10,"first","include","no-social",0.375,FALSE,765
"Jan 08 2015","22:01:58",8,"Live","No-socialFirst","Three",4,"Firefox",3,"Same",0,"Novel27",0,"Novel27",0,3289,"straight-ahead",-1,"exposure",3,TRUE,FALSE,4,FALSE,10,"first","include","no-social",0.375,FALSE,3289
"Jan 08 2015","22:01:58",16,"Live","No-socialFirst","Three",4,"Firefox",7,"Same",0,"Novel10",1,"Novel10",1,8558,"straight-ahead",-1,"exposure",3,TRUE,FALSE,4,FALSE,10,"first","include","no-social",0.375,FALSE,8558
"Jan 08 2015","22:01:58",22,"Live","No-socialFirst","Three",4,"Firefox",9,"Same",1,"Novel81",2,"Novel81",2,1196,"up-left-4sec",0,"exposure",3,TRUE,FALSE,4,FALSE,10,"second","include","social",0.375,FALSE,1196
"Jan 08 2015","22:01:58",23,"Live","No-socialFirst","Three",4,"Firefox",10,"Switch",1,"Novel121",0,"Novel60",1,492,"up-left-4sec",0,"exposure",3,TRUE,FALSE,4,TRUE,10,"second","include","social",0.375,TRUE,492
"Jan 08 2015","19:07:33",9,"Live","SocialFirst","Three",4,"Chrome",0,"Same",0,"Novel17",3,"Novel17",2,1509,"straight-ahead",-1,"test",3,TRUE,TRUE,4,TRUE,12,"first","include","social",1,TRUE,3292
"Jan 08 2015","19:07:33",10,"Live","SocialFirst","Three",4,"Chrome",1,"Switch",0,"Novel104",3,"Novel104",2,1677,"straight-ahead",-1,"test",3,TRUE,FALSE,4,TRUE,12,"first","include","social",1,TRUE,1666
"Jan 08 2015","19:07:33",11,"Live","SocialFirst","Three",4,"Chrome",2,"Same",1,"Novel14",2,"Novel14",2,1796,"straight-ahead",-1,"test",3,TRUE,FALSE,4,TRUE,12,"first","include","social",1,TRUE,2305
"Jan 08 2015","19:07:33",12,"Live","SocialFirst","Three",4,"Chrome",3,"Switch",1,"Novel7",2,"Novel2",0,2785,"straight-ahead",-1,"test",3,TRUE,FALSE,4,FALSE,12,"first","include","social",1,TRUE,1773
"Jan 08 2015","19:07:33",17,"Live","SocialFirst","Three",4,"Chrome",4,"Same",1,"Novel27",0,"Novel83",1,677,"straight-ahead",-1,"test",3,TRUE,FALSE,4,FALSE,12,"first","include","social",1,TRUE,1741
"Jan 08 2015","19:07:33",18,"Live","SocialFirst","Three",4,"Chrome",5,"Switch",1,"Novel23",1,"Novel23",1,592,"straight-ahead",-1,"test",3,TRUE,FALSE,4,TRUE,12,"first","include","social",1,TRUE,1941
"Jan 08 2015","19:07:33",19,"Live","SocialFirst","Three",4,"Chrome",6,"Same",0,"Novel114",3,"Novel26",1,3485,"straight-ahead",-1,"test",3,TRUE,FALSE,4,FALSE,12,"first","include","social",1,TRUE,2343
"Jan 08 2015","19:07:33",20,"Live","SocialFirst","Three",4,"Chrome",7,"Switch",0,"Novel24",0,"Novel29",0,803,"straight-ahead",-1,"test",3,TRUE,FALSE,4,FALSE,12,"first","include","social",1,TRUE,2824
"Jan 08 2015","19:07:33",25,"Live","SocialFirst","Three",4,"Chrome",8,"Same",0,"Novel10",3,"Novel10",1,4330,"straight-ahead",-1,"test",3,TRUE,FALSE,4,TRUE,12,"second","include","no-social",1,FALSE,6728
"Jan 08 2015","19:07:33",26,"Live","SocialFirst","Three",4,"Chrome",9,"Switch",0,"Novel87",3,"Novel87",2,2439,"straight-ahead",-1,"test",3,TRUE,FALSE,4,TRUE,12,"second","include","no-social",1,FALSE,3013
"Jan 08 2015","19:07:33",27,"Live","SocialFirst","Three",4,"Chrome",10,"Same",1,"Novel63",2,"Novel63",2,2093,"straight-ahead",-1,"test",3,TRUE,FALSE,4,TRUE,12,"second","include","no-social",1,FALSE,1193
"Jan 08 2015","19:07:33",28,"Live","SocialFirst","Three",4,"Chrome",11,"Switch",1,"Novel81",1,"Novel81",1,838,"straight-ahead",-1,"test",3,TRUE,FALSE,4,TRUE,12,"second","include","no-social",1,FALSE,1215
"Jan 08 2015","19:07:33",33,"Live","SocialFirst","Three",4,"Chrome",12,"Same",1,"Novel42",0,"Novel42",0,2545,"straight-ahead",-1,"test",3,TRUE,FALSE,4,TRUE,12,"second","include","no-social",1,FALSE,4261
"Jan 08 2015","19:07:33",34,"Live","SocialFirst","Three",4,"Chrome",13,"Switch",1,"Novel38",0,"Novel62",1,7041,"straight-ahead",-1,"test",3,TRUE,FALSE,4,FALSE,12,"second","include","no-social",1,FALSE,4372
"Jan 08 2015","19:07:33",35,"Live","SocialFirst","Three",4,"Chrome",14,"Same",0,"Novel129",1,"Novel129",3,570,"straight-ahead",-1,"test",3,TRUE,FALSE,4,TRUE,12,"second","include","no-social",1,FALSE,4135
"Jan 08 2015","19:07:33",36,"Live","SocialFirst","Three",4,"Chrome",15,"Switch",0,"Novel127",2,"Novel3",2,1165,"straight-ahead",-1,"test",3,TRUE,FALSE,4,FALSE,12,"second","include","no-social",1,FALSE,1561
"Jan 08 2015","19:07:33",5,"Live","SocialFirst","Three",4,"Chrome",0,"Same",0,"Novel17",2,"Novel17",2,3292,"down-left-4sec",2,"exposure",3,TRUE,FALSE,4,TRUE,12,"first","include","social",1,TRUE,3292
"Jan 08 2015","19:07:33",6,"Live","SocialFirst","Three",4,"Chrome",1,"Switch",0,"Novel70",1,"Novel104",2,1666,"up-right-4sec",1,"exposure",3,TRUE,FALSE,4,TRUE,12,"first","include","social",1,TRUE,1666
"Jan 08 2015","19:07:33",7,"Live","SocialFirst","Three",4,"Chrome",2,"Same",1,"Novel14",2,"Novel14",2,2305,"down-left-4sec",2,"exposure",3,TRUE,FALSE,4,TRUE,12,"first","include","social",1,TRUE,2305
"Jan 08 2015","19:07:33",8,"Live","SocialFirst","Three",4,"Chrome",3,"Switch",1,"Novel79",1,"Novel2",0,1773,"up-right-4sec",1,"exposure",3,TRUE,FALSE,4,TRUE,12,"first","include","social",1,TRUE,1773
"Jan 08 2015","19:07:33",13,"Live","SocialFirst","Three",4,"Chrome",4,"Same",1,"Novel83",1,"Novel83",1,1741,"up-right-4sec",1,"exposure",3,TRUE,FALSE,4,TRUE,12,"first","include","social",1,TRUE,1741
"Jan 08 2015","19:07:33",14,"Live","SocialFirst","Three",4,"Chrome",5,"Switch",1,"Novel126",0,"Novel23",1,1941,"up-left-4sec",0,"exposure",3,TRUE,FALSE,4,TRUE,12,"first","include","social",1,TRUE,1941
"Jan 08 2015","19:07:33",15,"Live","SocialFirst","Three",4,"Chrome",6,"Same",0,"Novel26",1,"Novel26",1,2343,"up-right-4sec",1,"exposure",3,TRUE,FALSE,4,TRUE,12,"first","include","social",1,TRUE,2343
"Jan 08 2015","19:07:33",16,"Live","SocialFirst","Three",4,"Chrome",7,"Switch",0,"Novel50",3,"Novel29",0,2824,"down-right-4sec",3,"exposure",3,TRUE,FALSE,4,TRUE,12,"first","include","social",1,TRUE,2824
"Jan 08 2015","19:07:33",21,"Live","SocialFirst","Three",4,"Chrome",8,"Same",0,"Novel10",1,"Novel10",1,6728,"straight-ahead",-1,"exposure",3,TRUE,FALSE,4,FALSE,12,"second","include","no-social",1,FALSE,6728
"Jan 08 2015","19:07:33",22,"Live","SocialFirst","Three",4,"Chrome",9,"Switch",0,"Novel111",0,"Novel87",2,3013,"straight-ahead",-1,"exposure",3,TRUE,FALSE,4,FALSE,12,"second","include","no-social",1,FALSE,3013
"Jan 08 2015","19:07:33",23,"Live","SocialFirst","Three",4,"Chrome",10,"Same",1,"Novel63",2,"Novel63",2,1193,"straight-ahead",-1,"exposure",3,TRUE,FALSE,4,FALSE,12,"second","include","no-social",1,FALSE,1193
"Jan 08 2015","19:07:33",24,"Live","SocialFirst","Three",4,"Chrome",11,"Switch",1,"Novel45",3,"Novel81",1,1215,"straight-ahead",-1,"exposure",3,TRUE,FALSE,4,FALSE,12,"second","include","no-social",1,FALSE,1215
"Jan 08 2015","19:07:33",29,"Live","SocialFirst","Three",4,"Chrome",12,"Same",1,"Novel42",0,"Novel42",0,4261,"straight-ahead",-1,"exposure",3,TRUE,FALSE,4,FALSE,12,"second","include","no-social",1,FALSE,4261
"Jan 08 2015","19:07:33",30,"Live","SocialFirst","Three",4,"Chrome",13,"Switch",1,"Novel86",0,"Novel62",1,4372,"straight-ahead",-1,"exposure",3,TRUE,FALSE,4,FALSE,12,"second","include","no-social",1,FALSE,4372
"Jan 08 2015","19:07:33",31,"Live","SocialFirst","Three",4,"Chrome",14,"Same",0,"Novel129",3,"Novel129",3,4135,"straight-ahead",-1,"exposure",3,TRUE,FALSE,4,FALSE,12,"second","include","no-social",1,FALSE,4135
"Jan 08 2015","19:07:33",32,"Live","SocialFirst","Three",4,"Chrome",15,"Switch",0,"Novel15",0,"Novel3",2,1561,"straight-ahead",-1,"exposure",3,TRUE,FALSE,4,FALSE,12,"second","include","no-social",1,FALSE,1561
"Jan 09 2015","00:15:41",9,"Live","SocialFirst","Three",4,"Chrome",0,"Same",1,"Novel110",3,"Novel110",3,2918,"straight-ahead",-1,"test",3,TRUE,TRUE,4,TRUE,13,"first","include","social",1,TRUE,790
"Jan 09 2015","00:15:41",10,"Live","SocialFirst","Three",4,"Chrome",1,"Switch",1,"Novel76",0,"Novel102",1,1581,"straight-ahead",-1,"test",3,TRUE,FALSE,4,FALSE,13,"first","include","social",1,TRUE,890
"Jan 09 2015","00:15:41",11,"Live","SocialFirst","Three",4,"Chrome",2,"Same",0,"Novel116",0,"Novel116",2,414,"straight-ahead",-1,"test",3,TRUE,FALSE,4,TRUE,13,"first","include","social",1,TRUE,535
"Jan 09 2015","00:15:41",12,"Live","SocialFirst","Three",4,"Chrome",3,"Switch",1,"Novel117",2,"Novel117",2,801,"straight-ahead",-1,"test",3,TRUE,FALSE,4,TRUE,13,"first","include","social",1,TRUE,1414
"Jan 09 2015","00:15:41",17,"Live","SocialFirst","Three",4,"Chrome",4,"Same",1,"Novel77",0,"Novel77",0,987,"straight-ahead",-1,"test",3,TRUE,FALSE,4,TRUE,13,"first","include","social",1,TRUE,1788
"Jan 09 2015","00:15:41",19,"Live","SocialFirst","Three",4,"Chrome",6,"Same",0,"Novel24",1,"Novel24",0,2737,"straight-ahead",-1,"test",3,TRUE,FALSE,4,TRUE,13,"first","include","social",1,TRUE,867
"Jan 09 2015","00:15:41",25,"Live","SocialFirst","Three",4,"Chrome",8,"Same",1,"Novel130",0,"Novel130",0,1644,"straight-ahead",-1,"test",3,TRUE,FALSE,4,TRUE,13,"second","include","no-social",1,FALSE,3112
"Jan 09 2015","00:15:41",26,"Live","SocialFirst","Three",4,"Chrome",9,"Switch",1,"Novel12",3,"Novel12",3,1753,"straight-ahead",-1,"test",3,TRUE,FALSE,4,TRUE,13,"second","include","no-social",1,FALSE,2477
"Jan 09 2015","00:15:41",27,"Live","SocialFirst","Three",4,"Chrome",10,"Same",0,"Novel103",2,"Novel103",1,461,"straight-ahead",-1,"test",3,TRUE,FALSE,4,TRUE,13,"second","include","no-social",1,FALSE,3630
"Jan 09 2015","00:15:41",28,"Live","SocialFirst","Three",4,"Chrome",11,"Switch",1,"Novel85",2,"Novel85",2,1423,"straight-ahead",-1,"test",3,TRUE,FALSE,4,TRUE,13,"second","include","no-social",1,FALSE,2928
"Jan 09 2015","00:15:41",33,"Live","SocialFirst","Three",4,"Chrome",12,"Same",1,"Novel57",2,"Novel57",2,1035,"straight-ahead",-1,"test",3,TRUE,FALSE,4,TRUE,13,"second","include","no-social",1,FALSE,9882
"Jan 09 2015","00:15:41",34,"Live","SocialFirst","Three",4,"Chrome",13,"Switch",0,"Novel88",2,"Novel88",3,1051,"straight-ahead",-1,"test",3,TRUE,FALSE,4,TRUE,13,"second","include","no-social",1,FALSE,3127
"Jan 09 2015","00:15:41",35,"Live","SocialFirst","Three",4,"Chrome",14,"Same",0,"Novel97",1,"Novel93",0,552,"straight-ahead",-1,"test",3,TRUE,FALSE,4,FALSE,13,"second","include","no-social",1,FALSE,1123
"Jan 09 2015","00:15:41",36,"Live","SocialFirst","Three",4,"Chrome",15,"Switch",0,"Novel34",2,"Novel34",0,467,"straight-ahead",-1,"test",3,TRUE,FALSE,4,TRUE,13,"second","include","no-social",1,FALSE,2672
"Jan 09 2015","00:15:41",5,"Live","SocialFirst","Three",4,"Chrome",0,"Same",1,"Novel110",3,"Novel110",3,790,"down-right-4sec",3,"exposure",3,TRUE,FALSE,4,TRUE,13,"first","include","social",1,TRUE,790
"Jan 09 2015","00:15:41",6,"Live","SocialFirst","Three",4,"Chrome",1,"Switch",1,"Novel119",2,"Novel102",1,890,"down-left-4sec",2,"exposure",3,TRUE,FALSE,4,TRUE,13,"first","include","social",1,TRUE,890
"Jan 09 2015","00:15:41",7,"Live","SocialFirst","Three",4,"Chrome",2,"Same",0,"Novel116",2,"Novel116",2,535,"down-left-4sec",2,"exposure",3,TRUE,FALSE,4,TRUE,13,"first","include","social",1,TRUE,535
"Jan 09 2015","00:15:41",8,"Live","SocialFirst","Three",4,"Chrome",3,"Switch",1,"Novel61",1,"Novel117",2,1414,"up-right-4sec",1,"exposure",3,TRUE,FALSE,4,TRUE,13,"first","include","social",1,TRUE,1414
"Jan 09 2015","00:15:41",13,"Live","SocialFirst","Three",4,"Chrome",4,"Same",1,"Novel77",0,"Novel77",0,1788,"up-left-4sec",0,"exposure",3,TRUE,FALSE,4,TRUE,13,"first","include","social",1,TRUE,1788
"Jan 09 2015","00:15:41",14,"Live","SocialFirst","Three",4,"Chrome",5,"Switch",0,"Novel67",2,"Novel134",3,1427,"down-left-4sec",2,"exposure",3,TRUE,FALSE,4,TRUE,13,"first","include","social",1,TRUE,1427
"Jan 09 2015","00:15:41",15,"Live","SocialFirst","Three",4,"Chrome",6,"Same",0,"Novel24",0,"Novel24",0,867,"up-left-4sec",0,"exposure",3,TRUE,FALSE,4,TRUE,13,"first","include","social",1,TRUE,867
"Jan 09 2015","00:15:41",16,"Live","SocialFirst","Three",4,"Chrome",7,"Switch",0,"Novel21",0,"Novel30",3,1181,"up-left-4sec",0,"exposure",3,TRUE,FALSE,4,TRUE,13,"first","include","social",1,TRUE,1181
"Jan 09 2015","00:15:41",21,"Live","SocialFirst","Three",4,"Chrome",8,"Same",1,"Novel130",0,"Novel130",0,3112,"straight-ahead",-1,"exposure",3,TRUE,FALSE,4,FALSE,13,"second","include","no-social",1,FALSE,3112
"Jan 09 2015","00:15:41",22,"Live","SocialFirst","Three",4,"Chrome",9,"Switch",1,"Novel71",2,"Novel12",3,2477,"straight-ahead",-1,"exposure",3,TRUE,FALSE,4,FALSE,13,"second","include","no-social",1,FALSE,2477
"Jan 09 2015","00:15:41",23,"Live","SocialFirst","Three",4,"Chrome",10,"Same",0,"Novel103",1,"Novel103",1,3630,"straight-ahead",-1,"exposure",3,TRUE,FALSE,4,FALSE,13,"second","include","no-social",1,FALSE,3630
"Jan 09 2015","00:15:41",24,"Live","SocialFirst","Three",4,"Chrome",11,"Switch",1,"Novel72",3,"Novel85",2,2928,"straight-ahead",-1,"exposure",3,TRUE,FALSE,4,FALSE,13,"second","include","no-social",1,FALSE,2928
"Jan 09 2015","00:15:41",29,"Live","SocialFirst","Three",4,"Chrome",12,"Same",1,"Novel57",2,"Novel57",2,9882,"straight-ahead",-1,"exposure",3,TRUE,FALSE,4,FALSE,13,"second","include","no-social",1,FALSE,9882
"Jan 09 2015","00:15:41",30,"Live","SocialFirst","Three",4,"Chrome",13,"Switch",0,"Novel89",1,"Novel88",3,3127,"straight-ahead",-1,"exposure",3,TRUE,FALSE,4,FALSE,13,"second","include","no-social",1,FALSE,3127
"Jan 09 2015","00:15:41",31,"Live","SocialFirst","Three",4,"Chrome",14,"Same",0,"Novel93",0,"Novel93",0,1123,"straight-ahead",-1,"exposure",3,TRUE,FALSE,4,FALSE,13,"second","include","no-social",1,FALSE,1123
"Jan 09 2015","00:15:41",32,"Live","SocialFirst","Three",4,"Chrome",15,"Switch",0,"Novel13",3,"Novel34",0,2672,"straight-ahead",-1,"exposure",3,TRUE,FALSE,4,FALSE,13,"second","include","no-social",1,FALSE,2672
"Jan 09 2015","08:35:55",9,"Live","No-socialFirst","Three",4,"Chrome",0,"Switch",1,"Novel41",0,"Novel36",1,2304,"straight-ahead",-1,"test",3,TRUE,TRUE,4,FALSE,15,"first","include","no-social",1,FALSE,2220
"Jan 09 2015","08:35:55",10,"Live","No-socialFirst","Three",4,"Chrome",1,"Same",0,"Novel27",1,"Novel115",1,2282,"straight-ahead",-1,"test",3,TRUE,FALSE,4,FALSE,15,"first","include","no-social",1,FALSE,3336
"Jan 09 2015","08:35:55",11,"Live","No-socialFirst","Three",4,"Chrome",2,"Switch",0,"Novel23",2,"Novel23",0,1755,"straight-ahead",-1,"test",3,TRUE,FALSE,4,TRUE,15,"first","include","no-social",1,FALSE,1600
"Jan 09 2015","08:35:55",17,"Live","No-socialFirst","Three",4,"Chrome",4,"Switch",0,"Novel68",0,"Novel76",1,2182,"straight-ahead",-1,"test",3,TRUE,FALSE,4,FALSE,15,"first","include","no-social",1,FALSE,1106
"Jan 09 2015","08:35:55",18,"Live","No-socialFirst","Three",4,"Chrome",5,"Same",0,"Novel59",1,"Novel59",3,955,"straight-ahead",-1,"test",3,TRUE,FALSE,4,TRUE,15,"first","include","no-social",1,FALSE,995
"Jan 09 2015","08:35:55",19,"Live","No-socialFirst","Three",4,"Chrome",6,"Switch",1,"Novel133",0,"Novel69",2,1345,"straight-ahead",-1,"test",3,TRUE,FALSE,4,FALSE,15,"first","include","no-social",1,FALSE,686
"Jan 09 2015","08:35:55",20,"Live","No-socialFirst","Three",4,"Chrome",7,"Same",1,"Novel124",1,"Novel124",1,838,"straight-ahead",-1,"test",3,TRUE,FALSE,4,TRUE,15,"first","include","no-social",1,FALSE,1049
"Jan 09 2015","08:35:55",25,"Live","No-socialFirst","Three",4,"Chrome",8,"Switch",1,"Novel130",0,"Novel130",0,2289,"straight-ahead",-1,"test",3,TRUE,FALSE,4,TRUE,15,"second","include","social",1,TRUE,1028
"Jan 09 2015","08:35:55",26,"Live","No-socialFirst","Three",4,"Chrome",9,"Same",0,"Novel99",2,"Novel99",0,1025,"straight-ahead",-1,"test",3,TRUE,FALSE,4,TRUE,15,"second","include","social",1,TRUE,1080
"Jan 09 2015","08:35:55",27,"Live","No-socialFirst","Three",4,"Chrome",10,"Switch",0,"Novel39",1,"Novel126",1,1417,"straight-ahead",-1,"test",3,TRUE,FALSE,4,FALSE,15,"second","include","social",1,TRUE,1078
"Jan 09 2015","08:35:55",28,"Live","No-socialFirst","Three",4,"Chrome",11,"Same",1,"Novel140",3,"Novel140",3,500,"straight-ahead",-1,"test",3,TRUE,FALSE,4,TRUE,15,"second","include","social",1,TRUE,1598
"Jan 09 2015","08:35:55",33,"Live","No-socialFirst","Three",4,"Chrome",12,"Switch",0,"Novel42",2,"Novel96",2,1693,"straight-ahead",-1,"test",3,TRUE,FALSE,4,FALSE,15,"second","include","social",1,TRUE,665
"Jan 09 2015","08:35:55",35,"Live","No-socialFirst","Three",4,"Chrome",14,"Switch",1,"Novel19",0,"Novel119",2,2600,"straight-ahead",-1,"test",3,TRUE,FALSE,4,FALSE,15,"second","include","social",1,TRUE,453
"Jan 09 2015","08:35:55",5,"Live","No-socialFirst","Three",4,"Chrome",0,"Switch",1,"Novel8",0,"Novel36",1,2220,"straight-ahead",-1,"exposure",3,TRUE,FALSE,4,FALSE,15,"first","include","no-social",1,FALSE,2220
"Jan 09 2015","08:35:55",6,"Live","No-socialFirst","Three",4,"Chrome",1,"Same",0,"Novel115",1,"Novel115",1,3336,"straight-ahead",-1,"exposure",3,TRUE,FALSE,4,FALSE,15,"first","include","no-social",1,FALSE,3336
"Jan 09 2015","08:35:55",7,"Live","No-socialFirst","Three",4,"Chrome",2,"Switch",0,"Novel14",3,"Novel23",0,1600,"straight-ahead",-1,"exposure",3,TRUE,FALSE,4,FALSE,15,"first","include","no-social",1,FALSE,1600
"Jan 09 2015","08:35:55",8,"Live","No-socialFirst","Three",4,"Chrome",3,"Same",1,"Novel15",2,"Novel15",2,1740,"straight-ahead",-1,"exposure",3,TRUE,FALSE,4,FALSE,15,"first","include","no-social",1,FALSE,1740
"Jan 09 2015","08:35:55",13,"Live","No-socialFirst","Three",4,"Chrome",4,"Switch",0,"Novel53",0,"Novel76",1,1106,"straight-ahead",-1,"exposure",3,TRUE,FALSE,4,FALSE,15,"first","include","no-social",1,FALSE,1106
"Jan 09 2015","08:35:55",14,"Live","No-socialFirst","Three",4,"Chrome",5,"Same",0,"Novel59",3,"Novel59",3,995,"straight-ahead",-1,"exposure",3,TRUE,FALSE,4,FALSE,15,"first","include","no-social",1,FALSE,995
"Jan 09 2015","08:35:55",15,"Live","No-socialFirst","Three",4,"Chrome",6,"Switch",1,"Novel70",3,"Novel69",2,686,"straight-ahead",-1,"exposure",3,TRUE,FALSE,4,FALSE,15,"first","include","no-social",1,FALSE,686
"Jan 09 2015","08:35:55",16,"Live","No-socialFirst","Three",4,"Chrome",7,"Same",1,"Novel124",1,"Novel124",1,1049,"straight-ahead",-1,"exposure",3,TRUE,FALSE,4,FALSE,15,"first","include","no-social",1,FALSE,1049
"Jan 09 2015","08:35:55",21,"Live","No-socialFirst","Three",4,"Chrome",8,"Switch",1,"Novel125",2,"Novel130",0,1028,"down-left-4sec",2,"exposure",3,TRUE,FALSE,4,TRUE,15,"second","include","social",1,TRUE,1028
"Jan 09 2015","08:35:55",22,"Live","No-socialFirst","Three",4,"Chrome",9,"Same",0,"Novel99",0,"Novel99",0,1080,"up-left-4sec",0,"exposure",3,TRUE,FALSE,4,TRUE,15,"second","include","social",1,TRUE,1080
"Jan 09 2015","08:35:55",23,"Live","No-socialFirst","Three",4,"Chrome",10,"Switch",0,"Novel137",0,"Novel126",1,1078,"up-left-4sec",0,"exposure",3,TRUE,FALSE,4,TRUE,15,"second","include","social",1,TRUE,1078
"Jan 09 2015","08:35:55",24,"Live","No-socialFirst","Three",4,"Chrome",11,"Same",1,"Novel140",3,"Novel140",3,1598,"down-right-4sec",3,"exposure",3,TRUE,FALSE,4,TRUE,15,"second","include","social",1,TRUE,1598
"Jan 09 2015","08:35:55",29,"Live","No-socialFirst","Three",4,"Chrome",12,"Switch",0,"Novel112",1,"Novel96",2,665,"up-right-4sec",1,"exposure",3,TRUE,FALSE,4,TRUE,15,"second","include","social",1,TRUE,665
"Jan 09 2015","08:35:55",31,"Live","No-socialFirst","Three",4,"Chrome",14,"Switch",1,"Novel12",0,"Novel119",2,453,"up-left-4sec",0,"exposure",3,TRUE,FALSE,4,TRUE,15,"second","include","social",1,TRUE,453
"Jan 09 2015","08:35:55",32,"Live","No-socialFirst","Three",4,"Chrome",15,"Same",1,"Novel102",0,"Novel102",0,563,"up-left-4sec",0,"exposure",3,TRUE,FALSE,4,TRUE,15,"second","include","social",1,TRUE,563
"Dec 05 2014","14:09:14",6,"Live","SocialFirst","Zero",4,"Chrome",0,"Switch",0,"Novel11",0,"Novel137",0,3799,"straight-ahead",-1,"test",0,TRUE,TRUE,4,FALSE,16,"first","include","social",1,TRUE,1756
"Dec 05 2014","14:09:14",8,"Live","SocialFirst","Zero",4,"Chrome",1,"Same",1,"Novel15",3,"Novel15",3,1354,"straight-ahead",-1,"test",0,TRUE,FALSE,4,TRUE,16,"first","include","social",1,TRUE,2122
"Dec 05 2014","14:09:14",10,"Live","SocialFirst","Zero",4,"Chrome",2,"Switch",1,"Novel106",2,"Novel106",2,2380,"straight-ahead",-1,"test",0,TRUE,FALSE,4,TRUE,16,"first","include","social",1,TRUE,1717
"Dec 05 2014","14:09:14",12,"Live","SocialFirst","Zero",4,"Chrome",3,"Same",0,"Novel20",0,"Novel20",2,1471,"straight-ahead",-1,"test",0,TRUE,FALSE,4,TRUE,16,"first","include","social",1,TRUE,3576
"Dec 05 2014","14:09:14",14,"Live","SocialFirst","Zero",4,"Chrome",4,"Switch",1,"Novel26",3,"Novel73",2,2700,"straight-ahead",-1,"test",0,TRUE,FALSE,4,FALSE,16,"first","include","social",1,TRUE,2351
"Dec 05 2014","14:09:14",16,"Live","SocialFirst","Zero",4,"Chrome",5,"Same",0,"Novel34",2,"Novel34",0,1911,"straight-ahead",-1,"test",0,TRUE,FALSE,4,TRUE,16,"first","include","social",1,TRUE,2159
"Dec 05 2014","14:09:14",18,"Live","SocialFirst","Zero",4,"Chrome",6,"Switch",0,"Novel46",1,"Novel33",0,2903,"straight-ahead",-1,"test",0,TRUE,FALSE,4,FALSE,16,"first","include","social",1,TRUE,2402
"Dec 05 2014","14:09:14",20,"Live","SocialFirst","Zero",4,"Chrome",7,"Same",1,"Novel116",1,"Novel116",1,1640,"straight-ahead",-1,"test",0,TRUE,FALSE,4,TRUE,16,"first","include","social",1,TRUE,1725
"Dec 05 2014","14:09:14",22,"Live","SocialFirst","Zero",4,"Chrome",8,"Switch",0,"Novel91",3,"Novel91",0,3479,"straight-ahead",-1,"test",0,TRUE,FALSE,4,TRUE,16,"second","include","no-social",1,FALSE,5298
"Dec 05 2014","14:09:14",24,"Live","SocialFirst","Zero",4,"Chrome",9,"Same",1,"Novel87",2,"Novel87",2,1930,"straight-ahead",-1,"test",0,TRUE,FALSE,4,TRUE,16,"second","include","no-social",1,FALSE,2601
"Dec 05 2014","14:09:14",26,"Live","SocialFirst","Zero",4,"Chrome",10,"Switch",1,"Novel78",0,"Novel5",3,2909,"straight-ahead",-1,"test",0,TRUE,FALSE,4,FALSE,16,"second","include","no-social",1,FALSE,5767
"Dec 05 2014","14:09:14",28,"Live","SocialFirst","Zero",4,"Chrome",11,"Same",0,"Novel18",0,"Novel18",1,2398,"straight-ahead",-1,"test",0,TRUE,FALSE,4,TRUE,16,"second","include","no-social",1,FALSE,3288
"Dec 05 2014","14:09:14",30,"Live","SocialFirst","Zero",4,"Chrome",12,"Switch",1,"Novel108",2,"Novel76",1,1759,"straight-ahead",-1,"test",0,TRUE,FALSE,4,FALSE,16,"second","include","no-social",1,FALSE,2638
"Dec 05 2014","14:09:14",32,"Live","SocialFirst","Zero",4,"Chrome",13,"Same",0,"Novel99",1,"Novel99",2,1417,"straight-ahead",-1,"test",0,TRUE,FALSE,4,TRUE,16,"second","include","no-social",1,FALSE,2360
"Dec 05 2014","14:09:14",34,"Live","SocialFirst","Zero",4,"Chrome",14,"Switch",0,"Novel31",0,"Novel23",2,1756,"straight-ahead",-1,"test",0,TRUE,FALSE,4,FALSE,16,"second","include","no-social",1,FALSE,3230
"Dec 05 2014","14:09:14",36,"Live","SocialFirst","Zero",4,"Chrome",15,"Same",1,"Novel111",1,"Novel111",1,2334,"straight-ahead",-1,"test",0,TRUE,FALSE,4,TRUE,16,"second","include","no-social",1,FALSE,2551
"Dec 05 2014","14:09:14",5,"Live","SocialFirst","Zero",4,"Chrome",0,"Switch",0,"Novel64",1,"Novel137",0,1756,"up-right-4sec",1,"exposure",0,TRUE,FALSE,4,TRUE,16,"first","include","social",1,TRUE,1756
"Dec 05 2014","14:09:14",7,"Live","SocialFirst","Zero",4,"Chrome",1,"Same",1,"Novel15",3,"Novel15",3,2122,"down-right-4sec",3,"exposure",0,TRUE,FALSE,4,TRUE,16,"first","include","social",1,TRUE,2122
"Dec 05 2014","14:09:14",9,"Live","SocialFirst","Zero",4,"Chrome",2,"Switch",1,"Novel25",3,"Novel106",2,1717,"down-right-4sec",3,"exposure",0,TRUE,FALSE,4,TRUE,16,"first","include","social",1,TRUE,1717
"Dec 05 2014","14:09:14",11,"Live","SocialFirst","Zero",4,"Chrome",3,"Same",0,"Novel20",2,"Novel20",2,3576,"down-left-4sec",2,"exposure",0,TRUE,FALSE,4,TRUE,16,"first","include","social",1,TRUE,3576
"Dec 05 2014","14:09:14",13,"Live","SocialFirst","Zero",4,"Chrome",4,"Switch",1,"Novel21",3,"Novel73",2,2351,"down-right-4sec",3,"exposure",0,TRUE,FALSE,4,TRUE,16,"first","include","social",1,TRUE,2351
"Dec 05 2014","14:09:14",15,"Live","SocialFirst","Zero",4,"Chrome",5,"Same",0,"Novel34",0,"Novel34",0,2159,"up-left-4sec",0,"exposure",0,TRUE,FALSE,4,TRUE,16,"first","include","social",1,TRUE,2159
"Dec 05 2014","14:09:14",17,"Live","SocialFirst","Zero",4,"Chrome",6,"Switch",0,"Novel57",1,"Novel33",0,2402,"up-right-4sec",1,"exposure",0,TRUE,FALSE,4,TRUE,16,"first","include","social",1,TRUE,2402
"Dec 05 2014","14:09:14",19,"Live","SocialFirst","Zero",4,"Chrome",7,"Same",1,"Novel116",1,"Novel116",1,1725,"up-right-4sec",1,"exposure",0,TRUE,FALSE,4,TRUE,16,"first","include","social",1,TRUE,1725
"Dec 05 2014","14:09:14",21,"Live","SocialFirst","Zero",4,"Chrome",8,"Switch",0,"Novel101",1,"Novel91",0,5298,"straight-ahead",-1,"exposure",0,TRUE,FALSE,4,FALSE,16,"second","include","no-social",1,FALSE,5298
"Dec 05 2014","14:09:14",23,"Live","SocialFirst","Zero",4,"Chrome",9,"Same",1,"Novel87",2,"Novel87",2,2601,"straight-ahead",-1,"exposure",0,TRUE,FALSE,4,FALSE,16,"second","include","no-social",1,FALSE,2601
"Dec 05 2014","14:09:14",25,"Live","SocialFirst","Zero",4,"Chrome",10,"Switch",1,"Novel3",2,"Novel5",3,5767,"straight-ahead",-1,"exposure",0,TRUE,FALSE,4,FALSE,16,"second","include","no-social",1,FALSE,5767
"Dec 05 2014","14:09:14",27,"Live","SocialFirst","Zero",4,"Chrome",11,"Same",0,"Novel18",1,"Novel18",1,3288,"straight-ahead",-1,"exposure",0,TRUE,FALSE,4,FALSE,16,"second","include","no-social",1,FALSE,3288
"Dec 05 2014","14:09:14",29,"Live","SocialFirst","Zero",4,"Chrome",12,"Switch",1,"Novel125",3,"Novel76",1,2638,"straight-ahead",-1,"exposure",0,TRUE,FALSE,4,FALSE,16,"second","include","no-social",1,FALSE,2638
"Dec 05 2014","14:09:14",31,"Live","SocialFirst","Zero",4,"Chrome",13,"Same",0,"Novel99",2,"Novel99",2,2360,"straight-ahead",-1,"exposure",0,TRUE,FALSE,4,FALSE,16,"second","include","no-social",1,FALSE,2360
"Dec 05 2014","14:09:14",33,"Live","SocialFirst","Zero",4,"Chrome",14,"Switch",0,"Novel29",3,"Novel23",2,3230,"straight-ahead",-1,"exposure",0,TRUE,FALSE,4,FALSE,16,"second","include","no-social",1,FALSE,3230
"Dec 05 2014","14:09:14",35,"Live","SocialFirst","Zero",4,"Chrome",15,"Same",1,"Novel111",1,"Novel111",1,2551,"straight-ahead",-1,"exposure",0,TRUE,FALSE,4,FALSE,16,"second","include","no-social",1,FALSE,2551
"Dec 06 2014","21:42:30",10,"Live","SocialFirst","Zero",4,"Chrome",2,"Same",0,"Novel137",0,"Novel137",2,5765,"straight-ahead",-1,"test",0,TRUE,FALSE,4,TRUE,17,"first","include","social",0.875,TRUE,5534
"Dec 06 2014","21:42:30",12,"Live","SocialFirst","Zero",4,"Chrome",3,"Switch",0,"Novel36",3,"Novel36",0,7362,"straight-ahead",-1,"test",0,TRUE,FALSE,4,TRUE,17,"first","include","social",0.875,TRUE,7249
"Dec 06 2014","21:42:30",14,"Live","SocialFirst","Zero",4,"Chrome",4,"Same",1,"Novel121",2,"Novel121",2,3976,"straight-ahead",-1,"test",0,TRUE,FALSE,4,TRUE,17,"first","include","social",0.875,TRUE,5378
"Dec 06 2014","21:42:30",16,"Live","SocialFirst","Zero",4,"Chrome",5,"Switch",1,"Novel110",2,"Novel116",0,6456,"straight-ahead",-1,"test",0,TRUE,FALSE,4,FALSE,17,"first","include","social",0.875,TRUE,6149
"Dec 06 2014","21:42:30",18,"Live","SocialFirst","Zero",4,"Chrome",6,"Same",0,"Novel63",2,"Novel63",1,3112,"straight-ahead",-1,"test",0,TRUE,FALSE,4,TRUE,17,"first","include","social",0.875,TRUE,5516
"Dec 06 2014","21:42:30",20,"Live","SocialFirst","Zero",4,"Chrome",7,"Switch",0,"Novel118",0,"Novel43",0,4581,"straight-ahead",-1,"test",0,TRUE,FALSE,4,FALSE,17,"first","include","social",0.875,TRUE,10677
"Dec 06 2014","21:42:30",22,"Live","SocialFirst","Zero",4,"Chrome",8,"Same",1,"Novel79",0,"Novel79",0,2289,"straight-ahead",-1,"test",0,TRUE,FALSE,4,TRUE,17,"second","include","no-social",0.875,FALSE,6949
"Dec 06 2014","21:42:30",24,"Live","SocialFirst","Zero",4,"Chrome",9,"Switch",1,"Novel87",2,"Novel54",1,4422,"straight-ahead",-1,"test",0,TRUE,FALSE,4,FALSE,17,"second","include","no-social",0.875,FALSE,10648
"Dec 06 2014","21:42:30",26,"Live","SocialFirst","Zero",4,"Chrome",10,"Same",0,"Novel65",2,"Novel65",3,2511,"straight-ahead",-1,"test",0,TRUE,FALSE,4,TRUE,17,"second","include","no-social",0.875,FALSE,5398
"Dec 06 2014","21:42:30",28,"Live","SocialFirst","Zero",4,"Chrome",11,"Switch",0,"Novel82",0,"Novel82",1,3297,"straight-ahead",-1,"test",0,TRUE,FALSE,4,TRUE,17,"second","include","no-social",0.875,FALSE,7226
"Dec 06 2014","21:42:30",30,"Live","SocialFirst","Zero",4,"Chrome",12,"Same",1,"Novel80",0,"Novel80",0,2180,"straight-ahead",-1,"test",0,TRUE,FALSE,4,TRUE,17,"second","include","no-social",0.875,FALSE,8227
"Dec 06 2014","21:42:30",32,"Live","SocialFirst","Zero",4,"Chrome",13,"Switch",1,"Novel18",0,"Novel59",2,3276,"straight-ahead",-1,"test",0,TRUE,FALSE,4,FALSE,17,"second","include","no-social",0.875,FALSE,5148
"Dec 06 2014","21:42:30",34,"Live","SocialFirst","Zero",4,"Chrome",14,"Same",0,"Novel81",2,"Novel81",1,2294,"straight-ahead",-1,"test",0,TRUE,FALSE,4,TRUE,17,"second","include","no-social",0.875,FALSE,4474
"Dec 06 2014","21:42:30",36,"Live","SocialFirst","Zero",4,"Chrome",15,"Switch",0,"Novel30",1,"Novel30",2,2360,"straight-ahead",-1,"test",0,TRUE,FALSE,4,TRUE,17,"second","include","no-social",0.875,FALSE,4355
"Dec 06 2014","21:42:30",7,"Live","SocialFirst","Zero",4,"Chrome",1,"Switch",1,"Novel105",1,"Novel112",0,6452,"up-right-4sec",1,"exposure",0,TRUE,FALSE,4,TRUE,17,"first","include","social",0.875,TRUE,6452
"Dec 06 2014","21:42:30",9,"Live","SocialFirst","Zero",4,"Chrome",2,"Same",0,"Novel137",2,"Novel137",2,5534,"down-left-4sec",2,"exposure",0,TRUE,FALSE,4,TRUE,17,"first","include","social",0.875,TRUE,5534
"Dec 06 2014","21:42:30",11,"Live","SocialFirst","Zero",4,"Chrome",3,"Switch",0,"Novel91",2,"Novel36",0,7249,"down-left-4sec",2,"exposure",0,TRUE,FALSE,4,TRUE,17,"first","include","social",0.875,TRUE,7249
"Dec 06 2014","21:42:30",13,"Live","SocialFirst","Zero",4,"Chrome",4,"Same",1,"Novel121",2,"Novel121",2,5378,"down-left-4sec",2,"exposure",0,TRUE,FALSE,4,TRUE,17,"first","include","social",0.875,TRUE,5378
"Dec 06 2014","21:42:30",15,"Live","SocialFirst","Zero",4,"Chrome",5,"Switch",1,"Novel40",1,"Novel116",0,6149,"up-right-4sec",1,"exposure",0,TRUE,FALSE,4,TRUE,17,"first","include","social",0.875,TRUE,6149
"Dec 06 2014","21:42:30",17,"Live","SocialFirst","Zero",4,"Chrome",6,"Same",0,"Novel63",1,"Novel63",1,5516,"up-right-4sec",1,"exposure",0,TRUE,FALSE,4,TRUE,17,"first","include","social",0.875,TRUE,5516
"Dec 06 2014","21:42:30",21,"Live","SocialFirst","Zero",4,"Chrome",8,"Same",1,"Novel79",0,"Novel79",0,6949,"straight-ahead",-1,"exposure",0,TRUE,FALSE,4,FALSE,17,"second","include","no-social",0.875,FALSE,6949
"Dec 06 2014","21:42:30",25,"Live","SocialFirst","Zero",4,"Chrome",10,"Same",0,"Novel65",3,"Novel65",3,5398,"straight-ahead",-1,"exposure",0,TRUE,FALSE,4,FALSE,17,"second","include","no-social",0.875,FALSE,5398
"Dec 06 2014","21:42:30",27,"Live","SocialFirst","Zero",4,"Chrome",11,"Switch",0,"Novel29",0,"Novel82",1,7226,"straight-ahead",-1,"exposure",0,TRUE,FALSE,4,FALSE,17,"second","include","no-social",0.875,FALSE,7226
"Dec 06 2014","21:42:30",29,"Live","SocialFirst","Zero",4,"Chrome",12,"Same",1,"Novel80",0,"Novel80",0,8227,"straight-ahead",-1,"exposure",0,TRUE,FALSE,4,FALSE,17,"second","include","no-social",0.875,FALSE,8227
"Dec 06 2014","21:42:30",31,"Live","SocialFirst","Zero",4,"Chrome",13,"Switch",1,"Novel13",1,"Novel59",2,5148,"straight-ahead",-1,"exposure",0,TRUE,FALSE,4,FALSE,17,"second","include","no-social",0.875,FALSE,5148
"Dec 06 2014","21:42:30",33,"Live","SocialFirst","Zero",4,"Chrome",14,"Same",0,"Novel81",1,"Novel81",1,4474,"straight-ahead",-1,"exposure",0,TRUE,FALSE,4,FALSE,17,"second","include","no-social",0.875,FALSE,4474
"Dec 06 2014","21:42:30",35,"Live","SocialFirst","Zero",4,"Chrome",15,"Switch",0,"Novel38",1,"Novel30",2,4355,"straight-ahead",-1,"exposure",0,TRUE,FALSE,4,FALSE,17,"second","include","no-social",0.875,FALSE,4355
"Dec 05 2014","12:43:54",6,"Live","SocialFirst","Zero",4,"Chrome",0,"Same",0,"Novel93",0,"Novel93",3,3763,"straight-ahead",-1,"test",0,TRUE,TRUE,4,TRUE,18,"first","include","social",1,TRUE,2261
"Dec 05 2014","12:43:54",8,"Live","SocialFirst","Zero",4,"Chrome",1,"Switch",0,"Novel123",1,"Novel122",2,2407,"straight-ahead",-1,"test",0,TRUE,FALSE,4,FALSE,18,"first","include","social",1,TRUE,2360
"Dec 05 2014","12:43:54",10,"Live","SocialFirst","Zero",4,"Chrome",2,"Same",0,"Novel4",2,"Novel139",1,3681,"straight-ahead",-1,"test",0,TRUE,FALSE,4,FALSE,18,"first","include","social",1,TRUE,2799
"Dec 05 2014","12:43:54",12,"Live","SocialFirst","Zero",4,"Chrome",3,"Switch",1,"Novel116",1,"Novel85",2,3054,"straight-ahead",-1,"test",0,TRUE,FALSE,4,FALSE,18,"first","include","social",1,TRUE,9588
"Dec 05 2014","12:43:54",14,"Live","SocialFirst","Zero",4,"Chrome",4,"Same",1,"Novel134",1,"Novel134",1,1317,"straight-ahead",-1,"test",0,TRUE,FALSE,4,TRUE,18,"first","include","social",1,TRUE,1629
"Dec 05 2014","12:43:54",16,"Live","SocialFirst","Zero",4,"Chrome",5,"Switch",0,"Novel69",1,"Novel61",2,2002,"straight-ahead",-1,"test",0,TRUE,FALSE,4,FALSE,18,"first","include","social",1,TRUE,1835
"Dec 05 2014","12:43:54",18,"Live","SocialFirst","Zero",4,"Chrome",6,"Same",1,"Novel102",3,"Novel102",3,2709,"straight-ahead",-1,"test",0,TRUE,FALSE,4,TRUE,18,"first","include","social",1,TRUE,1571
"Dec 05 2014","12:43:54",20,"Live","SocialFirst","Zero",4,"Chrome",7,"Switch",1,"Novel127",2,"Novel127",2,3107,"straight-ahead",-1,"test",0,TRUE,FALSE,4,TRUE,18,"first","include","social",1,TRUE,6016
"Dec 05 2014","12:43:54",22,"Live","SocialFirst","Zero",4,"Chrome",8,"Same",0,"Novel136",3,"Novel28",0,3111,"straight-ahead",-1,"test",0,TRUE,FALSE,4,FALSE,18,"second","include","no-social",1,FALSE,9050
"Dec 05 2014","12:43:54",24,"Live","SocialFirst","Zero",4,"Chrome",9,"Switch",0,"Novel38",0,"Novel38",1,3786,"straight-ahead",-1,"test",0,TRUE,FALSE,4,TRUE,18,"second","include","no-social",1,FALSE,2724
"Dec 05 2014","12:43:54",26,"Live","SocialFirst","Zero",4,"Chrome",10,"Same",0,"Novel23",0,"Novel23",1,1911,"straight-ahead",-1,"test",0,TRUE,FALSE,4,TRUE,18,"second","include","no-social",1,FALSE,3262
"Dec 05 2014","12:43:54",28,"Live","SocialFirst","Zero",4,"Chrome",11,"Switch",1,"Novel39",1,"Novel128",0,1699,"straight-ahead",-1,"test",0,TRUE,FALSE,4,FALSE,18,"second","include","no-social",1,FALSE,3781
"Dec 05 2014","12:43:54",30,"Live","SocialFirst","Zero",4,"Chrome",12,"Same",1,"Novel97",1,"Novel97",1,2328,"straight-ahead",-1,"test",0,TRUE,FALSE,4,TRUE,18,"second","include","no-social",1,FALSE,2770
"Dec 05 2014","12:43:54",32,"Live","SocialFirst","Zero",4,"Chrome",13,"Switch",0,"Novel60",0,"Novel106",0,1785,"straight-ahead",-1,"test",0,TRUE,FALSE,4,FALSE,18,"second","include","no-social",1,FALSE,2833
"Dec 05 2014","12:43:54",34,"Live","SocialFirst","Zero",4,"Chrome",14,"Same",1,"Novel26",1,"Novel26",1,1730,"straight-ahead",-1,"test",0,TRUE,FALSE,4,TRUE,18,"second","include","no-social",1,FALSE,4003
"Dec 05 2014","12:43:54",36,"Live","SocialFirst","Zero",4,"Chrome",15,"Switch",1,"Novel68",0,"Novel68",0,4528,"straight-ahead",-1,"test",0,TRUE,FALSE,4,TRUE,18,"second","include","no-social",1,FALSE,3353
"Dec 05 2014","12:43:54",5,"Live","SocialFirst","Zero",4,"Chrome",0,"Same",0,"Novel93",3,"Novel93",3,2261,"down-right-4sec",3,"exposure",0,TRUE,FALSE,4,TRUE,18,"first","include","social",1,TRUE,2261
"Dec 05 2014","12:43:54",7,"Live","SocialFirst","Zero",4,"Chrome",1,"Switch",0,"Novel90",0,"Novel122",2,2360,"up-left-4sec",0,"exposure",0,TRUE,FALSE,4,TRUE,18,"first","include","social",1,TRUE,2360
"Dec 05 2014","12:43:54",9,"Live","SocialFirst","Zero",4,"Chrome",2,"Same",0,"Novel139",1,"Novel139",1,2799,"up-right-4sec",1,"exposure",0,TRUE,FALSE,4,TRUE,18,"first","include","social",1,TRUE,2799
"Dec 05 2014","12:43:54",11,"Live","SocialFirst","Zero",4,"Chrome",3,"Switch",1,"Novel32",0,"Novel85",2,9588,"up-left-4sec",0,"exposure",0,TRUE,FALSE,4,TRUE,18,"first","include","social",1,TRUE,9588
"Dec 05 2014","12:43:54",13,"Live","SocialFirst","Zero",4,"Chrome",4,"Same",1,"Novel134",1,"Novel134",1,1629,"up-right-4sec",1,"exposure",0,TRUE,FALSE,4,TRUE,18,"first","include","social",1,TRUE,1629
"Dec 05 2014","12:43:54",15,"Live","SocialFirst","Zero",4,"Chrome",5,"Switch",0,"Novel6",3,"Novel61",2,1835,"down-right-4sec",3,"exposure",0,TRUE,FALSE,4,TRUE,18,"first","include","social",1,TRUE,1835
"Dec 05 2014","12:43:54",17,"Live","SocialFirst","Zero",4,"Chrome",6,"Same",1,"Novel102",3,"Novel102",3,1571,"down-right-4sec",3,"exposure",0,TRUE,FALSE,4,TRUE,18,"first","include","social",1,TRUE,1571
"Dec 05 2014","12:43:54",19,"Live","SocialFirst","Zero",4,"Chrome",7,"Switch",1,"Novel76",0,"Novel127",2,6016,"up-left-4sec",0,"exposure",0,TRUE,FALSE,4,TRUE,18,"first","include","social",1,TRUE,6016
"Dec 05 2014","12:43:54",21,"Live","SocialFirst","Zero",4,"Chrome",8,"Same",0,"Novel28",0,"Novel28",0,9050,"straight-ahead",-1,"exposure",0,TRUE,FALSE,4,FALSE,18,"second","include","no-social",1,FALSE,9050
"Dec 05 2014","12:43:54",23,"Live","SocialFirst","Zero",4,"Chrome",9,"Switch",0,"Novel18",2,"Novel38",1,2724,"straight-ahead",-1,"exposure",0,TRUE,FALSE,4,FALSE,18,"second","include","no-social",1,FALSE,2724
"Dec 05 2014","12:43:54",25,"Live","SocialFirst","Zero",4,"Chrome",10,"Same",0,"Novel23",1,"Novel23",1,3262,"straight-ahead",-1,"exposure",0,TRUE,FALSE,4,FALSE,18,"second","include","no-social",1,FALSE,3262
"Dec 05 2014","12:43:54",27,"Live","SocialFirst","Zero",4,"Chrome",11,"Switch",1,"Novel95",3,"Novel128",0,3781,"straight-ahead",-1,"exposure",0,TRUE,FALSE,4,FALSE,18,"second","include","no-social",1,FALSE,3781
"Dec 05 2014","12:43:54",29,"Live","SocialFirst","Zero",4,"Chrome",12,"Same",1,"Novel97",1,"Novel97",1,2770,"straight-ahead",-1,"exposure",0,TRUE,FALSE,4,FALSE,18,"second","include","no-social",1,FALSE,2770
"Dec 05 2014","12:43:54",31,"Live","SocialFirst","Zero",4,"Chrome",13,"Switch",0,"Novel81",2,"Novel106",0,2833,"straight-ahead",-1,"exposure",0,TRUE,FALSE,4,FALSE,18,"second","include","no-social",1,FALSE,2833
"Dec 05 2014","12:43:54",33,"Live","SocialFirst","Zero",4,"Chrome",14,"Same",1,"Novel26",1,"Novel26",1,4003,"straight-ahead",-1,"exposure",0,TRUE,FALSE,4,FALSE,18,"second","include","no-social",1,FALSE,4003
"Dec 05 2014","12:43:54",35,"Live","SocialFirst","Zero",4,"Chrome",15,"Switch",1,"Novel21",3,"Novel68",0,3353,"straight-ahead",-1,"exposure",0,TRUE,FALSE,4,FALSE,18,"second","include","no-social",1,FALSE,3353
"Dec 05 2014","22:21:59",6,"Live","SocialFirst","Zero",4,"Chrome",0,"Same",0,"Novel84",1,"Novel84",0,3706,"straight-ahead",-1,"test",0,TRUE,TRUE,4,TRUE,19,"first","include","social",1,TRUE,3100
"Dec 05 2014","22:21:59",8,"Live","SocialFirst","Zero",4,"Chrome",1,"Switch",1,"Novel6",2,"Novel38",3,3057,"straight-ahead",-1,"test",0,TRUE,FALSE,4,FALSE,19,"first","include","social",1,TRUE,3008
"Dec 05 2014","22:21:59",10,"Live","SocialFirst","Zero",4,"Chrome",2,"Same",1,"Novel82",0,"Novel82",0,1906,"straight-ahead",-1,"test",0,TRUE,FALSE,4,TRUE,19,"first","include","social",1,TRUE,3673
"Dec 05 2014","22:21:59",12,"Live","SocialFirst","Zero",4,"Chrome",3,"Switch",0,"Novel14",0,"Novel75",2,5194,"straight-ahead",-1,"test",0,TRUE,FALSE,4,FALSE,19,"first","include","social",1,TRUE,2993
"Dec 05 2014","22:21:59",14,"Live","SocialFirst","Zero",4,"Chrome",4,"Same",1,"Novel41",1,"Novel41",1,2255,"straight-ahead",-1,"test",0,TRUE,FALSE,4,TRUE,19,"first","include","social",1,TRUE,2170
"Dec 05 2014","22:21:59",16,"Live","SocialFirst","Zero",4,"Chrome",5,"Switch",0,"Novel137",2,"Novel137",3,1824,"straight-ahead",-1,"test",0,TRUE,FALSE,4,TRUE,19,"first","include","social",1,TRUE,1989
"Dec 05 2014","22:21:59",18,"Live","SocialFirst","Zero",4,"Chrome",6,"Same",0,"Novel36",0,"Novel36",1,1703,"straight-ahead",-1,"test",0,TRUE,FALSE,4,TRUE,19,"first","include","social",1,TRUE,3246
"Dec 05 2014","22:21:59",20,"Live","SocialFirst","Zero",4,"Chrome",7,"Switch",1,"Novel53",2,"Novel100",0,1134,"straight-ahead",-1,"test",0,TRUE,FALSE,4,FALSE,19,"first","include","social",1,TRUE,2148
"Dec 05 2014","22:21:59",22,"Live","SocialFirst","Zero",4,"Chrome",8,"Same",0,"Novel87",0,"Novel87",2,2813,"straight-ahead",-1,"test",0,TRUE,FALSE,4,TRUE,19,"second","include","no-social",1,FALSE,5117
"Dec 05 2014","22:21:59",24,"Live","SocialFirst","Zero",4,"Chrome",9,"Switch",1,"Novel83",0,"Novel83",0,1919,"straight-ahead",-1,"test",0,TRUE,FALSE,4,TRUE,19,"second","include","no-social",1,FALSE,4176
"Dec 05 2014","22:21:59",26,"Live","SocialFirst","Zero",4,"Chrome",10,"Same",1,"Novel122",2,"Novel122",2,1587,"straight-ahead",-1,"test",0,TRUE,FALSE,4,TRUE,19,"second","include","no-social",1,FALSE,4570
"Dec 05 2014","22:21:59",28,"Live","SocialFirst","Zero",4,"Chrome",11,"Switch",0,"Novel92",1,"Novel92",0,1523,"straight-ahead",-1,"test",0,TRUE,FALSE,4,TRUE,19,"second","include","no-social",1,FALSE,3620
"Dec 05 2014","22:21:59",30,"Live","SocialFirst","Zero",4,"Chrome",12,"Same",1,"Novel97",2,"Novel97",2,1790,"straight-ahead",-1,"test",0,TRUE,FALSE,4,TRUE,19,"second","include","no-social",1,FALSE,3311
"Dec 05 2014","22:21:59",32,"Live","SocialFirst","Zero",4,"Chrome",13,"Switch",0,"Novel123",1,"Novel123",2,1393,"straight-ahead",-1,"test",0,TRUE,FALSE,4,TRUE,19,"second","include","no-social",1,FALSE,4927
"Dec 05 2014","22:21:59",34,"Live","SocialFirst","Zero",4,"Chrome",14,"Same",0,"Novel18",2,"Novel18",0,1301,"straight-ahead",-1,"test",0,TRUE,FALSE,4,TRUE,19,"second","include","no-social",1,FALSE,3360
"Dec 05 2014","22:21:59",36,"Live","SocialFirst","Zero",4,"Chrome",15,"Switch",1,"Novel106",2,"Novel106",2,1545,"straight-ahead",-1,"test",0,TRUE,FALSE,4,TRUE,19,"second","include","no-social",1,FALSE,2933
"Dec 05 2014","22:21:59",5,"Live","SocialFirst","Zero",4,"Chrome",0,"Same",0,"Novel84",0,"Novel84",0,3100,"up-left-4sec",0,"exposure",0,TRUE,FALSE,4,TRUE,19,"first","include","social",1,TRUE,3100
"Dec 05 2014","22:21:59",7,"Live","SocialFirst","Zero",4,"Chrome",1,"Switch",1,"Novel110",0,"Novel38",3,3008,"up-left-4sec",0,"exposure",0,TRUE,FALSE,4,TRUE,19,"first","include","social",1,TRUE,3008
"Dec 05 2014","22:21:59",9,"Live","SocialFirst","Zero",4,"Chrome",2,"Same",1,"Novel82",0,"Novel82",0,3673,"up-left-4sec",0,"exposure",0,TRUE,FALSE,4,TRUE,19,"first","include","social",1,TRUE,3673
"Dec 05 2014","22:21:59",11,"Live","SocialFirst","Zero",4,"Chrome",3,"Switch",0,"Novel24",1,"Novel75",2,2993,"up-right-4sec",1,"exposure",0,TRUE,FALSE,4,TRUE,19,"first","include","social",1,TRUE,2993
"Dec 05 2014","22:21:59",13,"Live","SocialFirst","Zero",4,"Chrome",4,"Same",1,"Novel41",1,"Novel41",1,2170,"up-right-4sec",1,"exposure",0,TRUE,FALSE,4,TRUE,19,"first","include","social",1,TRUE,2170
"Dec 05 2014","22:21:59",15,"Live","SocialFirst","Zero",4,"Chrome",5,"Switch",0,"Novel60",2,"Novel137",3,1989,"down-left-4sec",2,"exposure",0,TRUE,FALSE,4,TRUE,19,"first","include","social",1,TRUE,1989
"Dec 05 2014","22:21:59",17,"Live","SocialFirst","Zero",4,"Chrome",6,"Same",0,"Novel36",1,"Novel36",1,3246,"up-right-4sec",1,"exposure",0,TRUE,FALSE,4,TRUE,19,"first","include","social",1,TRUE,3246
"Dec 05 2014","22:21:59",19,"Live","SocialFirst","Zero",4,"Chrome",7,"Switch",1,"Novel80",2,"Novel100",0,2148,"down-left-4sec",2,"exposure",0,TRUE,FALSE,4,TRUE,19,"first","include","social",1,TRUE,2148
"Dec 05 2014","22:21:59",21,"Live","SocialFirst","Zero",4,"Chrome",8,"Same",0,"Novel87",2,"Novel87",2,5117,"straight-ahead",-1,"exposure",0,TRUE,FALSE,4,FALSE,19,"second","include","no-social",1,FALSE,5117
"Dec 05 2014","22:21:59",23,"Live","SocialFirst","Zero",4,"Chrome",9,"Switch",1,"Novel125",3,"Novel83",0,4176,"straight-ahead",-1,"exposure",0,TRUE,FALSE,4,FALSE,19,"second","include","no-social",1,FALSE,4176
"Dec 05 2014","22:21:59",25,"Live","SocialFirst","Zero",4,"Chrome",10,"Same",1,"Novel122",2,"Novel122",2,4570,"straight-ahead",-1,"exposure",0,TRUE,FALSE,4,FALSE,19,"second","include","no-social",1,FALSE,4570
"Dec 05 2014","22:21:59",27,"Live","SocialFirst","Zero",4,"Chrome",11,"Switch",0,"Novel40",2,"Novel92",0,3620,"straight-ahead",-1,"exposure",0,TRUE,FALSE,4,FALSE,19,"second","include","no-social",1,FALSE,3620
"Dec 05 2014","22:21:59",29,"Live","SocialFirst","Zero",4,"Chrome",12,"Same",1,"Novel97",2,"Novel97",2,3311,"straight-ahead",-1,"exposure",0,TRUE,FALSE,4,FALSE,19,"second","include","no-social",1,FALSE,3311
"Dec 05 2014","22:21:59",31,"Live","SocialFirst","Zero",4,"Chrome",13,"Switch",0,"Novel4",0,"Novel123",2,4927,"straight-ahead",-1,"exposure",0,TRUE,FALSE,4,FALSE,19,"second","include","no-social",1,FALSE,4927
"Dec 05 2014","22:21:59",33,"Live","SocialFirst","Zero",4,"Chrome",14,"Same",0,"Novel18",0,"Novel18",0,3360,"straight-ahead",-1,"exposure",0,TRUE,FALSE,4,FALSE,19,"second","include","no-social",1,FALSE,3360
"Dec 05 2014","22:21:59",35,"Live","SocialFirst","Zero",4,"Chrome",15,"Switch",1,"Novel50",3,"Novel106",2,2933,"straight-ahead",-1,"exposure",0,TRUE,FALSE,4,FALSE,19,"second","include","no-social",1,FALSE,2933
"Dec 05 2014","22:03:51",6,"Live","No-socialFirst","Zero",4,"Chrome",0,"Same",0,"Novel14",3,"Novel14",1,4616,"straight-ahead",-1,"test",0,TRUE,TRUE,4,TRUE,20,"first","include","no-social",1,FALSE,6666
"Dec 05 2014","22:03:51",8,"Live","No-socialFirst","Zero",4,"Chrome",1,"Switch",0,"Novel111",0,"Novel111",3,5661,"straight-ahead",-1,"test",0,TRUE,FALSE,4,TRUE,20,"first","include","no-social",1,FALSE,6437
"Dec 05 2014","22:03:51",10,"Live","No-socialFirst","Zero",4,"Chrome",2,"Same",1,"Novel83",1,"Novel83",1,3198,"straight-ahead",-1,"test",0,TRUE,FALSE,4,TRUE,20,"first","include","no-social",1,FALSE,4184
"Dec 05 2014","22:03:51",12,"Live","No-socialFirst","Zero",4,"Chrome",3,"Switch",0,"Novel106",1,"Novel106",3,3549,"straight-ahead",-1,"test",0,TRUE,FALSE,4,TRUE,20,"first","include","no-social",1,FALSE,3432
"Dec 05 2014","22:03:51",14,"Live","No-socialFirst","Zero",4,"Chrome",4,"Same",1,"Novel32",2,"Novel32",2,2357,"straight-ahead",-1,"test",0,TRUE,FALSE,4,TRUE,20,"first","include","no-social",1,FALSE,3752
"Dec 05 2014","22:03:51",16,"Live","No-socialFirst","Zero",4,"Chrome",5,"Switch",1,"Novel120",3,"Novel67",2,3941,"straight-ahead",-1,"test",0,TRUE,FALSE,4,FALSE,20,"first","include","no-social",1,FALSE,2409
"Dec 05 2014","22:03:51",18,"Live","No-socialFirst","Zero",4,"Chrome",6,"Same",0,"Novel95",0,"Novel95",3,1687,"straight-ahead",-1,"test",0,TRUE,FALSE,4,TRUE,20,"first","include","no-social",1,FALSE,3635
"Dec 05 2014","22:03:51",20,"Live","No-socialFirst","Zero",4,"Chrome",7,"Switch",1,"Novel19",3,"Novel19",3,1918,"straight-ahead",-1,"test",0,TRUE,FALSE,4,TRUE,20,"first","include","no-social",1,FALSE,3482
"Dec 05 2014","22:03:51",22,"Live","No-socialFirst","Zero",4,"Chrome",8,"Same",0,"Novel73",1,"Novel73",0,2325,"straight-ahead",-1,"test",0,TRUE,FALSE,4,TRUE,20,"second","include","social",1,TRUE,2553
"Dec 05 2014","22:03:51",24,"Live","No-socialFirst","Zero",4,"Chrome",9,"Switch",0,"Novel126",1,"Novel12",2,8478,"straight-ahead",-1,"test",0,TRUE,FALSE,4,FALSE,20,"second","include","social",1,TRUE,3294
"Dec 05 2014","22:03:51",26,"Live","No-socialFirst","Zero",4,"Chrome",10,"Same",1,"Novel75",0,"Novel75",0,1981,"straight-ahead",-1,"test",0,TRUE,FALSE,4,TRUE,20,"second","include","social",1,TRUE,5065
"Dec 05 2014","22:03:51",28,"Live","No-socialFirst","Zero",4,"Chrome",11,"Switch",0,"Novel4",2,"Novel68",2,2830,"straight-ahead",-1,"test",0,TRUE,FALSE,4,FALSE,20,"second","include","social",1,TRUE,3188
"Dec 05 2014","22:03:51",30,"Live","No-socialFirst","Zero",4,"Chrome",12,"Same",1,"Novel100",1,"Novel100",1,1532,"straight-ahead",-1,"test",0,TRUE,FALSE,4,TRUE,20,"second","include","social",1,TRUE,1756
"Dec 05 2014","22:03:51",32,"Live","No-socialFirst","Zero",4,"Chrome",13,"Switch",1,"Novel63",1,"Novel85",0,2318,"straight-ahead",-1,"test",0,TRUE,FALSE,4,FALSE,20,"second","include","social",1,TRUE,3783
"Dec 05 2014","22:03:51",34,"Live","No-socialFirst","Zero",4,"Chrome",14,"Same",0,"Novel136",0,"Novel136",1,1938,"straight-ahead",-1,"test",0,TRUE,FALSE,4,TRUE,20,"second","include","social",1,TRUE,3129
"Dec 05 2014","22:03:51",36,"Live","No-socialFirst","Zero",4,"Chrome",15,"Switch",1,"Novel61",2,"Novel33",3,2627,"straight-ahead",-1,"test",0,TRUE,FALSE,4,FALSE,20,"second","include","social",1,TRUE,2973
"Dec 05 2014","22:03:51",5,"Live","No-socialFirst","Zero",4,"Chrome",0,"Same",0,"Novel14",1,"Novel14",1,6666,"straight-ahead",-1,"exposure",0,TRUE,FALSE,4,FALSE,20,"first","include","no-social",1,FALSE,6666
"Dec 05 2014","22:03:51",7,"Live","No-socialFirst","Zero",4,"Chrome",1,"Switch",0,"Novel138",0,"Novel111",3,6437,"straight-ahead",-1,"exposure",0,TRUE,FALSE,4,FALSE,20,"first","include","no-social",1,FALSE,6437
"Dec 05 2014","22:03:51",9,"Live","No-socialFirst","Zero",4,"Chrome",2,"Same",1,"Novel83",1,"Novel83",1,4184,"straight-ahead",-1,"exposure",0,TRUE,FALSE,4,FALSE,20,"first","include","no-social",1,FALSE,4184
"Dec 05 2014","22:03:51",11,"Live","No-socialFirst","Zero",4,"Chrome",3,"Switch",0,"Novel96",0,"Novel106",3,3432,"straight-ahead",-1,"exposure",0,TRUE,FALSE,4,FALSE,20,"first","include","no-social",1,FALSE,3432
"Dec 05 2014","22:03:51",13,"Live","No-socialFirst","Zero",4,"Chrome",4,"Same",1,"Novel32",2,"Novel32",2,3752,"straight-ahead",-1,"exposure",0,TRUE,FALSE,4,FALSE,20,"first","include","no-social",1,FALSE,3752
"Dec 05 2014","22:03:51",15,"Live","No-socialFirst","Zero",4,"Chrome",5,"Switch",1,"Novel116",3,"Novel67",2,2409,"straight-ahead",-1,"exposure",0,TRUE,FALSE,4,FALSE,20,"first","include","no-social",1,FALSE,2409
"Dec 05 2014","22:03:51",17,"Live","No-socialFirst","Zero",4,"Chrome",6,"Same",0,"Novel95",3,"Novel95",3,3635,"straight-ahead",-1,"exposure",0,TRUE,FALSE,4,FALSE,20,"first","include","no-social",1,FALSE,3635
"Dec 05 2014","22:03:51",19,"Live","No-socialFirst","Zero",4,"Chrome",7,"Switch",1,"Novel41",1,"Novel19",3,3482,"straight-ahead",-1,"exposure",0,TRUE,FALSE,4,FALSE,20,"first","include","no-social",1,FALSE,3482
"Dec 05 2014","22:03:51",21,"Live","No-socialFirst","Zero",4,"Chrome",8,"Same",0,"Novel73",0,"Novel73",0,2553,"up-left-4sec",0,"exposure",0,TRUE,FALSE,4,TRUE,20,"second","include","social",1,TRUE,2553
"Dec 05 2014","22:03:51",23,"Live","No-socialFirst","Zero",4,"Chrome",9,"Switch",0,"Novel13",1,"Novel12",2,3294,"up-right-4sec",1,"exposure",0,TRUE,FALSE,4,TRUE,20,"second","include","social",1,TRUE,3294
"Dec 05 2014","22:03:51",25,"Live","No-socialFirst","Zero",4,"Chrome",10,"Same",1,"Novel75",0,"Novel75",0,5065,"up-left-4sec",0,"exposure",0,TRUE,FALSE,4,TRUE,20,"second","include","social",1,TRUE,5065
"Dec 05 2014","22:03:51",27,"Live","No-socialFirst","Zero",4,"Chrome",11,"Switch",0,"Novel104",1,"Novel68",2,3188,"up-right-4sec",1,"exposure",0,TRUE,FALSE,4,TRUE,20,"second","include","social",1,TRUE,3188
"Dec 05 2014","22:03:51",29,"Live","No-socialFirst","Zero",4,"Chrome",12,"Same",1,"Novel100",1,"Novel100",1,1756,"up-right-4sec",1,"exposure",0,TRUE,FALSE,4,TRUE,20,"second","include","social",1,TRUE,1756
"Dec 05 2014","22:03:51",31,"Live","No-socialFirst","Zero",4,"Chrome",13,"Switch",1,"Novel127",3,"Novel85",0,3783,"down-right-4sec",3,"exposure",0,TRUE,FALSE,4,TRUE,20,"second","include","social",1,TRUE,3783
"Dec 05 2014","22:03:51",33,"Live","No-socialFirst","Zero",4,"Chrome",14,"Same",0,"Novel136",1,"Novel136",1,3129,"up-right-4sec",1,"exposure",0,TRUE,FALSE,4,TRUE,20,"second","include","social",1,TRUE,3129
"Dec 05 2014","22:03:51",35,"Live","No-socialFirst","Zero",4,"Chrome",15,"Switch",1,"Novel18",2,"Novel33",3,2973,"down-left-4sec",2,"exposure",0,TRUE,FALSE,4,TRUE,20,"second","include","social",1,TRUE,2973
"Jan 08 2015","18:30:34",9,"Live","No-socialFirst","Three",4,"Safari",0,"Same",1,"Novel50",3,"Novel50",3,859,"straight-ahead",-1,"test",3,TRUE,TRUE,4,TRUE,21,"first","include","no-social",0.5,FALSE,3693
"Jan 08 2015","18:30:34",10,"Live","No-socialFirst","Three",4,"Safari",1,"Switch",0,"Novel17",3,"Novel17",2,1173,"straight-ahead",-1,"test",3,TRUE,FALSE,4,TRUE,21,"first","include","no-social",0.5,FALSE,1562
"Jan 08 2015","18:30:34",12,"Live","No-socialFirst","Three",4,"Safari",3,"Switch",1,"Novel64",3,"Novel64",3,735,"straight-ahead",-1,"test",3,TRUE,FALSE,4,TRUE,21,"first","include","no-social",0.5,FALSE,1920
"Jan 08 2015","18:30:34",17,"Live","No-socialFirst","Three",4,"Safari",4,"Same",0,"Novel102",3,"Novel102",0,444,"straight-ahead",-1,"test",3,TRUE,FALSE,4,TRUE,21,"first","include","no-social",0.5,FALSE,999
"Jan 08 2015","18:30:34",18,"Live","No-socialFirst","Three",4,"Safari",5,"Switch",0,"Novel63",2,"Novel119",2,1037,"straight-ahead",-1,"test",3,TRUE,FALSE,4,FALSE,21,"first","include","no-social",0.5,FALSE,1764
"Jan 08 2015","18:30:34",20,"Live","No-socialFirst","Three",4,"Safari",7,"Switch",1,"Novel55",3,"Novel135",0,2286,"straight-ahead",-1,"test",3,TRUE,FALSE,4,FALSE,21,"first","include","no-social",0.5,FALSE,1607
"Jan 08 2015","18:30:34",26,"Live","No-socialFirst","Three",4,"Safari",9,"Switch",0,"Novel117",0,"Novel117",3,461,"straight-ahead",-1,"test",3,TRUE,FALSE,4,TRUE,21,"second","include","social",0.5,TRUE,1965
"Jan 08 2015","18:30:34",33,"Live","No-socialFirst","Three",4,"Safari",12,"Same",0,"Novel48",3,"Novel48",1,1632,"straight-ahead",-1,"test",3,TRUE,FALSE,4,TRUE,21,"second","include","social",0.5,TRUE,1825
"Jan 08 2015","18:30:34",5,"Live","No-socialFirst","Three",4,"Safari",0,"Same",1,"Novel50",3,"Novel50",3,3693,"straight-ahead",-1,"exposure",3,TRUE,FALSE,4,FALSE,21,"first","include","no-social",0.5,FALSE,3693
