"","subid","submit.date","submit.time","trial.num","itemNum","trialType","samePos","chosen","chosenIdx","kept","keptIdx","rt","face","numPic","interval","test","exposure","day.and.time","faceIdx","choseSocial"
"85","A164RBTU9AO3G7","Dec 05 2013","03:19:34",5,0,"Switch",0,"Novel32",3,"Novel27",0,3337,"eyesdownrightarrow","4","0",0,1,(Dec 05 2013 03:19:34),"2",FALSE
"87","A164RBTU9AO3G7","Dec 05 2013","03:19:34",7,1,"Same",1,"Novel76",1,"Novel76",1,2177,"eyesrightarrow","4","0",0,1,(Dec 05 2013 03:19:34),"3",FALSE
"89","A164RBTU9AO3G7","Dec 05 2013","03:19:34",9,2,"Switch",1,"Novel46",3,"Novel79",2,2283,"eyesrightarrow","4","0",0,1,(Dec 05 2013 03:19:34),"3",TRUE
"91","A164RBTU9AO3G7","Dec 05 2013","03:19:34",11,3,"Same",0,"Novel135",1,"Novel135",1,4101,"eyesdownrightarrow","4","0",0,1,(Dec 05 2013 03:19:34),"2",FALSE
"93","A164RBTU9AO3G7","Dec 05 2013","03:19:34",13,4,"Switch",1,"Novel58",2,"Novel140",0,1847,"eyesdownrightarrow","4","0",0,1,(Dec 05 2013 03:19:34),"2",TRUE
"95","A164RBTU9AO3G7","Dec 05 2013","03:19:34",15,5,"Same",0,"Novel39",1,"Novel39",1,3017,"eyesdownleftarrow","4","0",0,1,(Dec 05 2013 03:19:34),"1",TRUE
"97","A164RBTU9AO3G7","Dec 05 2013","03:19:34",17,6,"Switch",0,"Novel37",2,"Novel81",1,1832,"eyesdownleftarrow","4","0",0,1,(Dec 05 2013 03:19:34),"1",FALSE
"99","A164RBTU9AO3G7","Dec 05 2013","03:19:34",19,7,"Same",1,"Novel82",3,"Novel82",3,3000,"eyesleftarrow","4","0",0,1,(Dec 05 2013 03:19:34),"0",FALSE
"545","A18O959BLI9ZMM","Dec 05 2013","04:36:12",5,0,"Same",1,"Novel93",1,"Novel93",1,2168,"eyesdownleftarrow","4","0",0,1,(Dec 05 2013 04:36:12),"1",TRUE
"547","A18O959BLI9ZMM","Dec 05 2013","04:36:12",7,1,"Switch",0,"Novel80",0,"Novel26",3,812,"eyesleftarrow","4","0",0,1,(Dec 05 2013 04:36:12),"0",TRUE
"549","A18O959BLI9ZMM","Dec 05 2013","04:36:12",9,2,"Same",0,"Novel47",3,"Novel47",3,2412,"eyesrightarrow","4","0",0,1,(Dec 05 2013 04:36:12),"3",TRUE
"551","A18O959BLI9ZMM","Dec 05 2013","04:36:12",11,3,"Switch",1,"Novel54",1,"Novel46",3,1201,"eyesdownleftarrow","4","0",0,1,(Dec 05 2013 04:36:12),"1",TRUE
"553","A18O959BLI9ZMM","Dec 05 2013","04:36:12",13,4,"Same",1,"Novel75",0,"Novel75",0,952,"eyesleftarrow","4","0",0,1,(Dec 05 2013 04:36:12),"0",TRUE
"555","A18O959BLI9ZMM","Dec 05 2013","04:36:12",15,5,"Switch",1,"Novel1",0,"Novel59",1,1560,"eyesleftarrow","4","0",0,1,(Dec 05 2013 04:36:12),"0",TRUE
"557","A18O959BLI9ZMM","Dec 05 2013","04:36:12",17,6,"Same",0,"Novel127",1,"Novel127",1,1513,"eyesdownleftarrow","4","0",0,1,(Dec 05 2013 04:36:12),"1",TRUE
"559","A18O959BLI9ZMM","Dec 05 2013","04:36:12",19,7,"Switch",0,"Novel9",2,"Novel17",0,1825,"eyesdownrightarrow","4","0",0,1,(Dec 05 2013 04:36:12),"2",TRUE
"165","A1BM57TUNAQIXM","Dec 05 2013","03:34:48",5,0,"Switch",0,"Novel138",3,"Novel2",1,2203,"eyesrightarrow","4","0",0,1,(Dec 05 2013 03:34:48),"3",TRUE
"167","A1BM57TUNAQIXM","Dec 05 2013","03:34:48",7,1,"Same",0,"Novel56",3,"Novel56",3,2560,"eyesrightarrow","4","0",0,1,(Dec 05 2013 03:34:48),"3",TRUE
"169","A1BM57TUNAQIXM","Dec 05 2013","03:34:48",9,2,"Switch",1,"Novel69",1,"Novel97",2,1953,"eyesdownleftarrow","4","0",0,1,(Dec 05 2013 03:34:48),"1",TRUE
"171","A1BM57TUNAQIXM","Dec 05 2013","03:34:48",11,3,"Same",0,"Novel110",0,"Novel110",0,1244,"eyesleftarrow","4","0",0,1,(Dec 05 2013 03:34:48),"0",TRUE
"173","A1BM57TUNAQIXM","Dec 05 2013","03:34:48",13,4,"Switch",1,"Novel114",3,"Novel34",1,1325,"eyesrightarrow","4","0",0,1,(Dec 05 2013 03:34:48),"3",TRUE
"175","A1BM57TUNAQIXM","Dec 05 2013","03:34:48",15,5,"Same",1,"Novel50",0,"Novel50",0,1400,"eyesleftarrow","4","0",0,1,(Dec 05 2013 03:34:48),"0",TRUE
"177","A1BM57TUNAQIXM","Dec 05 2013","03:34:48",17,6,"Switch",0,"Novel44",1,"Novel55",2,1208,"eyesdownleftarrow","4","0",0,1,(Dec 05 2013 03:34:48),"1",TRUE
"179","A1BM57TUNAQIXM","Dec 05 2013","03:34:48",19,7,"Same",1,"Novel10",3,"Novel10",3,1066,"eyesrightarrow","4","0",0,1,(Dec 05 2013 03:34:48),"3",TRUE
"405","A1DVCUCOTAC0JQ","Dec 05 2013","04:28:42",5,0,"Switch",0,"Novel107",1,"Novel111",2,1520,"eyesleftarrow","4","0",0,1,(Dec 05 2013 04:28:42),"0",FALSE
"407","A1DVCUCOTAC0JQ","Dec 05 2013","04:28:42",7,1,"Same",0,"Novel35",3,"Novel35",3,2738,"eyesrightarrow","4","0",0,1,(Dec 05 2013 04:28:42),"3",TRUE
"409","A1DVCUCOTAC0JQ","Dec 05 2013","04:28:42",9,2,"Switch",1,"Novel38",3,"Novel16",2,3371,"eyesrightarrow","4","0",0,1,(Dec 05 2013 04:28:42),"3",TRUE
"411","A1DVCUCOTAC0JQ","Dec 05 2013","04:28:42",11,3,"Same",1,"Novel105",3,"Novel105",3,1494,"eyesrightarrow","4","0",0,1,(Dec 05 2013 04:28:42),"3",TRUE
"413","A1DVCUCOTAC0JQ","Dec 05 2013","04:28:42",13,4,"Switch",1,"Novel124",1,"Novel6",0,2714,"eyesdownrightarrow","4","0",0,1,(Dec 05 2013 04:28:42),"2",FALSE
"415","A1DVCUCOTAC0JQ","Dec 05 2013","04:28:42",15,5,"Same",1,"Novel43",0,"Novel43",0,1634,"eyesleftarrow","4","0",0,1,(Dec 05 2013 04:28:42),"0",TRUE
"417","A1DVCUCOTAC0JQ","Dec 05 2013","04:28:42",17,6,"Switch",0,"Novel102",3,"Novel100",1,1322,"eyesdownleftarrow","4","0",0,1,(Dec 05 2013 04:28:42),"1",FALSE
"419","A1DVCUCOTAC0JQ","Dec 05 2013","04:28:42",19,7,"Same",0,"Novel93",2,"Novel93",2,1916,"eyesrightarrow","4","0",0,1,(Dec 05 2013 04:28:42),"3",FALSE
"65","A1S32HIBNP3ZK6","Dec 05 2013","03:16:54",5,0,"Same",0,"Novel129",1,"Novel129",1,20015,"eyesdownleftarrow","4","0",0,1,(Dec 05 2013 03:16:54),"1",TRUE
"67","A1S32HIBNP3ZK6","Dec 05 2013","03:16:54",7,1,"Switch",0,"Novel84",2,"Novel135",0,7909,"eyesdownrightarrow","4","0",0,1,(Dec 05 2013 03:16:54),"2",TRUE
"69","A1S32HIBNP3ZK6","Dec 05 2013","03:16:54",9,2,"Same",0,"Novel49",2,"Novel49",2,3152,"eyesdownrightarrow","4","0",0,1,(Dec 05 2013 03:16:54),"2",TRUE
"71","A1S32HIBNP3ZK6","Dec 05 2013","03:16:54",11,3,"Switch",1,"Novel17",1,"Novel21",3,3260,"eyesdownleftarrow","4","0",0,1,(Dec 05 2013 03:16:54),"1",TRUE
"73","A1S32HIBNP3ZK6","Dec 05 2013","03:16:54",13,4,"Same",1,"Novel91",3,"Novel91",3,2590,"eyesrightarrow","4","0",0,1,(Dec 05 2013 03:16:54),"3",TRUE
"75","A1S32HIBNP3ZK6","Dec 05 2013","03:16:54",15,5,"Switch",0,"Novel73",1,"Novel116",2,1560,"eyesdownleftarrow","4","0",0,1,(Dec 05 2013 03:16:54),"1",TRUE
"77","A1S32HIBNP3ZK6","Dec 05 2013","03:16:54",17,6,"Same",1,"Novel138",2,"Novel138",2,4087,"eyesdownrightarrow","4","0",0,1,(Dec 05 2013 03:16:54),"2",TRUE
"79","A1S32HIBNP3ZK6","Dec 05 2013","03:16:54",19,7,"Switch",1,"Novel32",2,"Novel114",1,2636,"eyesdownrightarrow","4","0",0,1,(Dec 05 2013 03:16:54),"2",TRUE
"305","A1SSBN3C7NEPEO","Dec 05 2013","04:12:56",5,0,"Same",1,"Novel69",1,"Novel69",1,5070,"eyesleftarrow","4","0",0,1,(Dec 05 2013 04:12:56),"0",FALSE
"307","A1SSBN3C7NEPEO","Dec 05 2013","04:12:56",7,1,"Switch",1,"Novel59",3,"Novel84",2,1919,"eyesdownrightarrow","4","0",0,1,(Dec 05 2013 04:12:56),"2",FALSE
"309","A1SSBN3C7NEPEO","Dec 05 2013","04:12:56",9,2,"Same",0,"Novel25",2,"Novel25",2,1264,"eyesdownrightarrow","4","0",0,1,(Dec 05 2013 04:12:56),"2",TRUE
"311","A1SSBN3C7NEPEO","Dec 05 2013","04:12:56",11,3,"Switch",0,"Novel43",3,"Novel60",2,1466,"eyesrightarrow","4","0",0,1,(Dec 05 2013 04:12:56),"3",TRUE
"313","A1SSBN3C7NEPEO","Dec 05 2013","04:12:56",13,4,"Same",1,"Novel68",3,"Novel68",3,1607,"eyesrightarrow","4","0",0,1,(Dec 05 2013 04:12:56),"3",TRUE
"315","A1SSBN3C7NEPEO","Dec 05 2013","04:12:56",15,5,"Switch",1,"Novel85",2,"Novel23",0,1124,"eyesleftarrow","4","0",0,1,(Dec 05 2013 04:12:56),"0",FALSE
"317","A1SSBN3C7NEPEO","Dec 05 2013","04:12:56",17,6,"Same",0,"Novel138",2,"Novel138",2,1670,"eyesrightarrow","4","0",0,1,(Dec 05 2013 04:12:56),"3",FALSE
"319","A1SSBN3C7NEPEO","Dec 05 2013","04:12:56",19,7,"Switch",0,"Novel136",1,"Novel123",3,1419,"eyesleftarrow","4","0",0,1,(Dec 05 2013 04:12:56),"0",FALSE
"105","A1USDMJVT10CE4","Dec 05 2013","03:21:14",5,0,"Switch",1,"Novel27",3,"Novel112",1,2121,"eyesrightarrow","4","0",0,1,(Dec 05 2013 03:21:14),"3",TRUE
"107","A1USDMJVT10CE4","Dec 05 2013","03:21:14",7,1,"Same",1,"Novel17",2,"Novel17",2,2184,"eyesdownrightarrow","4","0",0,1,(Dec 05 2013 03:21:14),"2",TRUE
"109","A1USDMJVT10CE4","Dec 05 2013","03:21:14",9,2,"Switch",0,"Novel15",3,"Novel6",0,1810,"eyesdownrightarrow","4","0",0,1,(Dec 05 2013 03:21:14),"2",FALSE
"111","A1USDMJVT10CE4","Dec 05 2013","03:21:14",11,3,"Same",0,"Novel78",3,"Novel78",3,2886,"eyesrightarrow","4","0",0,1,(Dec 05 2013 03:21:14),"3",TRUE
"113","A1USDMJVT10CE4","Dec 05 2013","03:21:14",13,4,"Switch",1,"Novel25",1,"Novel91",2,1045,"eyesdownleftarrow","4","0",0,1,(Dec 05 2013 03:21:14),"1",TRUE
"115","A1USDMJVT10CE4","Dec 05 2013","03:21:14",15,5,"Same",1,"Novel108",1,"Novel108",1,1310,"eyesdownrightarrow","4","0",0,1,(Dec 05 2013 03:21:14),"2",FALSE
"117","A1USDMJVT10CE4","Dec 05 2013","03:21:14",17,6,"Switch",0,"Novel47",3,"Novel29",2,2949,"eyesdownleftarrow","4","0",0,1,(Dec 05 2013 03:21:14),"1",FALSE
"119","A1USDMJVT10CE4","Dec 05 2013","03:21:14",19,7,"Same",0,"Novel66",0,"Novel66",0,4883,"eyesdownleftarrow","4","0",0,1,(Dec 05 2013 03:21:14),"1",FALSE
"225","A1Z7QTDFX7ZM2O","Dec 05 2013","04:06:34",5,0,"Switch",1,"Novel60",1,"Novel74",0,5315,"eyesdownleftarrow","4","0",0,1,(Dec 05 2013 04:06:34),"1",TRUE
"227","A1Z7QTDFX7ZM2O","Dec 05 2013","04:06:34",7,1,"Same",0,"Novel66",2,"Novel66",2,2574,"eyesdownrightarrow","4","0",0,1,(Dec 05 2013 04:06:34),"2",TRUE
"229","A1Z7QTDFX7ZM2O","Dec 05 2013","04:06:34",9,2,"Switch",0,"Novel3",3,"Novel61",2,2069,"eyesrightarrow","4","0",0,1,(Dec 05 2013 04:06:34),"3",TRUE
"231","A1Z7QTDFX7ZM2O","Dec 05 2013","04:06:34",11,3,"Same",0,"Novel135",2,"Novel135",2,1872,"eyesdownrightarrow","4","0",0,1,(Dec 05 2013 04:06:34),"2",TRUE
"233","A1Z7QTDFX7ZM2O","Dec 05 2013","04:06:34",13,4,"Switch",0,"Novel71",0,"Novel23",2,1896,"eyesleftarrow","4","0",0,1,(Dec 05 2013 04:06:34),"0",TRUE
"235","A1Z7QTDFX7ZM2O","Dec 05 2013","04:06:34",15,5,"Same",1,"Novel29",2,"Novel29",2,1556,"eyesdownrightarrow","4","0",0,1,(Dec 05 2013 04:06:34),"2",TRUE
"237","A1Z7QTDFX7ZM2O","Dec 05 2013","04:06:34",17,6,"Switch",1,"Novel21",0,"Novel57",1,1326,"eyesleftarrow","4","0",0,1,(Dec 05 2013 04:06:34),"0",TRUE
"239","A1Z7QTDFX7ZM2O","Dec 05 2013","04:06:34",19,7,"Same",1,"Novel9",3,"Novel9",3,1776,"eyesrightarrow","4","0",0,1,(Dec 05 2013 04:06:34),"3",TRUE
"585","A26NQQXUTRUFYP","Dec 05 2013","04:39:26",5,0,"Switch",1,"Novel36",0,"Novel138",2,4922,"eyesleftarrow","4","0",0,1,(Dec 05 2013 04:39:26),"0",TRUE
"587","A26NQQXUTRUFYP","Dec 05 2013","04:39:26",7,1,"Same",1,"Novel140",1,"Novel140",1,1719,"eyesdownleftarrow","4","0",0,1,(Dec 05 2013 04:39:26),"1",TRUE
"589","A26NQQXUTRUFYP","Dec 05 2013","04:39:26",9,2,"Switch",1,"Novel26",0,"Novel33",2,2250,"eyesleftarrow","4","0",0,1,(Dec 05 2013 04:39:26),"0",TRUE
"591","A26NQQXUTRUFYP","Dec 05 2013","04:39:26",11,3,"Same",1,"Novel56",3,"Novel56",3,2641,"eyesrightarrow","4","0",0,1,(Dec 05 2013 04:39:26),"3",TRUE
"593","A26NQQXUTRUFYP","Dec 05 2013","04:39:26",13,4,"Switch",0,"Novel139",2,"Novel91",1,1812,"eyesdownrightarrow","4","0",0,1,(Dec 05 2013 04:39:26),"2",TRUE
"595","A26NQQXUTRUFYP","Dec 05 2013","04:39:26",15,5,"Same",0,"Novel115",1,"Novel115",1,1781,"eyesdownleftarrow","4","0",0,1,(Dec 05 2013 04:39:26),"1",TRUE
"597","A26NQQXUTRUFYP","Dec 05 2013","04:39:26",17,6,"Switch",0,"Novel99",0,"Novel127",1,1188,"eyesleftarrow","4","0",0,1,(Dec 05 2013 04:39:26),"0",TRUE
"599","A26NQQXUTRUFYP","Dec 05 2013","04:39:26",19,7,"Same",0,"Novel131",0,"Novel131",0,1438,"eyesleftarrow","4","0",0,1,(Dec 05 2013 04:39:26),"0",TRUE
"565","A2CJT7PKQEHO39","Dec 05 2013","04:37:56",5,0,"Switch",1,"Novel96",2,"Novel4",1,1466,"eyesdownrightarrow","4","0",0,1,(Dec 05 2013 04:37:56),"2",TRUE
"567","A2CJT7PKQEHO39","Dec 05 2013","04:37:56",7,1,"Same",1,"Novel121",1,"Novel121",1,3780,"eyesdownleftarrow","4","0",0,1,(Dec 05 2013 04:37:56),"1",TRUE
"569","A2CJT7PKQEHO39","Dec 05 2013","04:37:56",9,2,"Switch",1,"Novel77",0,"Novel122",3,1485,"eyesleftarrow","4","0",0,1,(Dec 05 2013 04:37:56),"0",TRUE
"571","A2CJT7PKQEHO39","Dec 05 2013","04:37:56",11,3,"Same",1,"Novel26",0,"Novel26",0,3089,"eyesleftarrow","4","0",0,1,(Dec 05 2013 04:37:56),"0",TRUE
"573","A2CJT7PKQEHO39","Dec 05 2013","04:37:56",13,4,"Switch",0,"Novel139",3,"Novel3",1,5361,"eyesrightarrow","4","0",0,1,(Dec 05 2013 04:37:56),"3",TRUE
"575","A2CJT7PKQEHO39","Dec 05 2013","04:37:56",15,5,"Same",0,"Novel5",3,"Novel5",3,2224,"eyesrightarrow","4","0",0,1,(Dec 05 2013 04:37:56),"3",TRUE
"577","A2CJT7PKQEHO39","Dec 05 2013","04:37:56",17,6,"Switch",0,"Novel6",2,"Novel98",3,1262,"eyesdownrightarrow","4","0",0,1,(Dec 05 2013 04:37:56),"2",TRUE
"579","A2CJT7PKQEHO39","Dec 05 2013","04:37:56",19,7,"Same",0,"Novel13",1,"Novel13",1,2509,"eyesdownleftarrow","4","0",0,1,(Dec 05 2013 04:37:56),"1",TRUE
"185","A2EDBZH2TRUB6T","Dec 05 2013","03:39:18",5,0,"Switch",1,"Novel94",2,"Novel33",1,5287,"eyesdownleftarrow","4","0",0,1,(Dec 05 2013 03:39:18),"1",FALSE
"187","A2EDBZH2TRUB6T","Dec 05 2013","03:39:18",7,1,"Same",0,"Novel136",1,"Novel136",1,3197,"eyesdownrightarrow","4","0",0,1,(Dec 05 2013 03:39:18),"2",FALSE
"189","A2EDBZH2TRUB6T","Dec 05 2013","03:39:18",9,2,"Switch",1,"Novel128",1,"Novel73",2,2655,"eyesdownleftarrow","4","0",0,1,(Dec 05 2013 03:39:18),"1",TRUE
"191","A2EDBZH2TRUB6T","Dec 05 2013","03:39:18",11,3,"Same",0,"Novel70",0,"Novel70",0,3275,"eyesleftarrow","4","0",0,1,(Dec 05 2013 03:39:18),"0",TRUE
"193","A2EDBZH2TRUB6T","Dec 05 2013","03:39:18",13,4,"Switch",0,"Novel56",3,"Novel36",0,2727,"eyesleftarrow","4","0",0,1,(Dec 05 2013 03:39:18),"0",FALSE
"195","A2EDBZH2TRUB6T","Dec 05 2013","03:39:18",15,5,"Same",1,"Novel2",3,"Novel2",3,3643,"eyesdownrightarrow","4","0",0,1,(Dec 05 2013 03:39:18),"2",FALSE
"197","A2EDBZH2TRUB6T","Dec 05 2013","03:39:18",17,6,"Switch",0,"Novel52",3,"Novel89",0,2269,"eyesdownleftarrow","4","0",0,1,(Dec 05 2013 03:39:18),"1",FALSE
"199","A2EDBZH2TRUB6T","Dec 05 2013","03:39:18",19,7,"Same",1,"Novel87",1,"Novel87",1,3862,"eyesrightarrow","4","0",0,1,(Dec 05 2013 03:39:18),"3",FALSE
"505","A2EEUQ0YY2XIU","Dec 05 2013","04:30:54",5,0,"Same",0,"Novel28",3,"Novel28",3,1836,"eyesrightarrow","4","0",0,1,(Dec 05 2013 04:30:54),"3",TRUE
"507","A2EEUQ0YY2XIU","Dec 05 2013","04:30:54",7,1,"Switch",1,"Novel9",1,"Novel129",0,2893,"eyesdownleftarrow","4","0",0,1,(Dec 05 2013 04:30:54),"1",TRUE
"509","A2EEUQ0YY2XIU","Dec 05 2013","04:30:54",9,2,"Same",1,"Novel67",0,"Novel67",0,1024,"eyesleftarrow","4","0",0,1,(Dec 05 2013 04:30:54),"0",TRUE
"511","A2EEUQ0YY2XIU","Dec 05 2013","04:30:54",11,3,"Switch",0,"Novel83",1,"Novel62",0,1964,"eyesdownleftarrow","4","0",0,1,(Dec 05 2013 04:30:54),"1",TRUE
"513","A2EEUQ0YY2XIU","Dec 05 2013","04:30:54",13,4,"Same",0,"Novel81",2,"Novel81",2,1010,"eyesdownrightarrow","4","0",0,1,(Dec 05 2013 04:30:54),"2",TRUE
"515","A2EEUQ0YY2XIU","Dec 05 2013","04:30:54",15,5,"Switch",1,"Novel136",2,"Novel72",0,1098,"eyesdownrightarrow","4","0",0,1,(Dec 05 2013 04:30:54),"2",TRUE
"517","A2EEUQ0YY2XIU","Dec 05 2013","04:30:54",17,6,"Same",1,"Novel120",3,"Novel120",3,3681,"eyesrightarrow","4","0",0,1,(Dec 05 2013 04:30:54),"3",TRUE
"519","A2EEUQ0YY2XIU","Dec 05 2013","04:30:54",19,7,"Switch",0,"Novel31",1,"Novel19",0,1070,"eyesdownleftarrow","4","0",0,1,(Dec 05 2013 04:30:54),"1",TRUE
"205","A2LBQGPOJJIUKE","Dec 05 2013","04:02:36",5,0,"Same",0,"Novel70",1,"Novel70",1,2651,"eyesdownrightarrow","4","0",0,1,(Dec 05 2013 04:02:36),"2",FALSE
"207","A2LBQGPOJJIUKE","Dec 05 2013","04:02:36",7,1,"Switch",1,"Novel35",2,"Novel112",3,2188,"eyesdownrightarrow","4","0",0,1,(Dec 05 2013 04:02:36),"2",TRUE
"209","A2LBQGPOJJIUKE","Dec 05 2013","04:02:36",9,2,"Same",0,"Novel83",2,"Novel83",2,3821,"eyesdownrightarrow","4","0",0,1,(Dec 05 2013 04:02:36),"2",TRUE
"211","A2LBQGPOJJIUKE","Dec 05 2013","04:02:36",11,3,"Switch",0,"Novel50",1,"Novel60",0,3210,"eyesdownleftarrow","4","0",0,1,(Dec 05 2013 04:02:36),"1",TRUE
"213","A2LBQGPOJJIUKE","Dec 05 2013","04:02:36",13,4,"Same",1,"Novel94",0,"Novel94",0,4032,"eyesrightarrow","4","0",0,1,(Dec 05 2013 04:02:36),"3",FALSE
"215","A2LBQGPOJJIUKE","Dec 05 2013","04:02:36",15,5,"Switch",1,"Novel91",1,"Novel90",0,2222,"eyesrightarrow","4","0",0,1,(Dec 05 2013 04:02:36),"3",FALSE
"217","A2LBQGPOJJIUKE","Dec 05 2013","04:02:36",17,6,"Same",1,"Novel22",2,"Novel22",2,1431,"eyesdownrightarrow","4","0",0,1,(Dec 05 2013 04:02:36),"2",TRUE
"219","A2LBQGPOJJIUKE","Dec 05 2013","04:02:36",19,7,"Switch",0,"Novel79",2,"Novel105",1,5290,"eyesdownrightarrow","4","0",0,1,(Dec 05 2013 04:02:36),"2",TRUE
"285","A2LSIJBN4V7WX1","Dec 05 2013","04:12:12",5,0,"Same",1,"Novel62",2,"Novel62",2,1391,"eyesdownrightarrow","4","0",0,1,(Dec 05 2013 04:12:12),"2",TRUE
"287","A2LSIJBN4V7WX1","Dec 05 2013","04:12:12",7,1,"Switch",0,"Novel77",0,"Novel48",2,1328,"eyesleftarrow","4","0",0,1,(Dec 05 2013 04:12:12),"0",TRUE
"289","A2LSIJBN4V7WX1","Dec 05 2013","04:12:12",9,2,"Same",1,"Novel97",0,"Novel97",0,1719,"eyesleftarrow","4","0",0,1,(Dec 05 2013 04:12:12),"0",TRUE
"291","A2LSIJBN4V7WX1","Dec 05 2013","04:12:12",11,3,"Switch",1,"Novel42",1,"Novel118",3,1063,"eyesdownleftarrow","4","0",0,1,(Dec 05 2013 04:12:12),"1",TRUE
"293","A2LSIJBN4V7WX1","Dec 05 2013","04:12:12",13,4,"Same",0,"Novel99",3,"Novel99",3,1578,"eyesrightarrow","4","0",0,1,(Dec 05 2013 04:12:12),"3",TRUE
"295","A2LSIJBN4V7WX1","Dec 05 2013","04:12:12",15,5,"Switch",1,"Novel13",3,"Novel53",2,1016,"eyesrightarrow","4","0",0,1,(Dec 05 2013 04:12:12),"3",TRUE
"297","A2LSIJBN4V7WX1","Dec 05 2013","04:12:12",17,6,"Same",0,"Novel124",1,"Novel124",1,985,"eyesdownleftarrow","4","0",0,1,(Dec 05 2013 04:12:12),"1",TRUE
"299","A2LSIJBN4V7WX1","Dec 05 2013","04:12:12",19,7,"Switch",0,"Novel54",2,"Novel16",3,2297,"eyesdownrightarrow","4","0",0,1,(Dec 05 2013 04:12:12),"2",TRUE
"145","A2VX8B1CJXRN2","Dec 05 2013","03:28:26",5,0,"Switch",1,"Novel17",1,"Novel51",0,4484,"eyesrightarrow","4","0",0,1,(Dec 05 2013 03:28:26),"3",FALSE
"147","A2VX8B1CJXRN2","Dec 05 2013","03:28:26",7,1,"Same",0,"Novel123",1,"Novel123",1,3921,"eyesdownleftarrow","4","0",0,1,(Dec 05 2013 03:28:26),"1",TRUE
"149","A2VX8B1CJXRN2","Dec 05 2013","03:28:26",9,2,"Switch",0,"Novel41",0,"Novel73",2,2843,"eyesleftarrow","4","0",0,1,(Dec 05 2013 03:28:26),"0",TRUE
"151","A2VX8B1CJXRN2","Dec 05 2013","03:28:26",11,3,"Same",1,"Novel21",3,"Novel21",3,1876,"eyesrightarrow","4","0",0,1,(Dec 05 2013 03:28:26),"3",TRUE
"153","A2VX8B1CJXRN2","Dec 05 2013","03:28:26",13,4,"Switch",1,"Novel65",0,"Novel125",2,1618,"eyesleftarrow","4","0",0,1,(Dec 05 2013 03:28:26),"0",TRUE
"155","A2VX8B1CJXRN2","Dec 05 2013","03:28:26",15,5,"Same",0,"Novel120",2,"Novel120",2,2410,"eyesdownrightarrow","4","0",0,1,(Dec 05 2013 03:28:26),"2",TRUE
"157","A2VX8B1CJXRN2","Dec 05 2013","03:28:26",17,6,"Switch",0,"Novel76",3,"Novel115",0,1964,"eyesrightarrow","4","0",0,1,(Dec 05 2013 03:28:26),"3",TRUE
"159","A2VX8B1CJXRN2","Dec 05 2013","03:28:26",19,7,"Same",1,"Novel134",3,"Novel134",3,2147,"eyesrightarrow","4","0",0,1,(Dec 05 2013 03:28:26),"3",TRUE
"5","A2YPZF41N7BFA2","Dec 05 2013","03:09:44",5,0,"Same",0,"Novel93",3,"Novel93",3,2933,"eyesrightarrow","4","0",0,1,(Dec 05 2013 03:09:44),"3",TRUE
"7","A2YPZF41N7BFA2","Dec 05 2013","03:09:44",7,1,"Switch",0,"Novel113",0,"Novel57",3,1542,"eyesleftarrow","4","0",0,1,(Dec 05 2013 03:09:44),"0",TRUE
"9","A2YPZF41N7BFA2","Dec 05 2013","03:09:44",9,2,"Same",1,"Novel75",1,"Novel75",1,1732,"eyesdownleftarrow","4","0",0,1,(Dec 05 2013 03:09:44),"1",TRUE
"11","A2YPZF41N7BFA2","Dec 05 2013","03:09:44",11,3,"Switch",1,"Novel99",2,"Novel134",0,1669,"eyesdownrightarrow","4","0",0,1,(Dec 05 2013 03:09:44),"2",TRUE
"13","A2YPZF41N7BFA2","Dec 05 2013","03:09:44",13,4,"Same",0,"Novel130",2,"Novel130",2,1903,"eyesdownrightarrow","4","0",0,1,(Dec 05 2013 03:09:44),"2",TRUE
"15","A2YPZF41N7BFA2","Dec 05 2013","03:09:44",15,5,"Switch",1,"Novel139",0,"Novel51",2,1840,"eyesleftarrow","4","0",0,1,(Dec 05 2013 03:09:44),"0",TRUE
"17","A2YPZF41N7BFA2","Dec 05 2013","03:09:44",17,6,"Same",1,"Novel76",1,"Novel76",1,1560,"eyesdownleftarrow","4","0",0,1,(Dec 05 2013 03:09:44),"1",TRUE
"19","A2YPZF41N7BFA2","Dec 05 2013","03:09:44",19,7,"Switch",0,"Novel78",3,"Novel45",2,1825,"eyesrightarrow","4","0",0,1,(Dec 05 2013 03:09:44),"3",TRUE
"125","A34ZHROFSVEF6V","Dec 05 2013","03:26:05",5,0,"Switch",0,"Novel124",0,"Novel118",2,2045,"eyesleftarrow","4","0",0,1,(Dec 05 2013 03:26:05),"0",TRUE
"127","A34ZHROFSVEF6V","Dec 05 2013","03:26:05",7,1,"Same",0,"Novel106",3,"Novel106",3,2323,"eyesrightarrow","4","0",0,1,(Dec 05 2013 03:26:05),"3",TRUE
"129","A34ZHROFSVEF6V","Dec 05 2013","03:26:05",9,2,"Switch",1,"Novel39",2,"Novel37",3,1532,"eyesdownrightarrow","4","0",0,1,(Dec 05 2013 03:26:05),"2",TRUE
"131","A34ZHROFSVEF6V","Dec 05 2013","03:26:05",11,3,"Same",1,"Novel102",1,"Novel102",1,2912,"eyesdownleftarrow","4","0",0,1,(Dec 05 2013 03:26:05),"1",TRUE
"133","A34ZHROFSVEF6V","Dec 05 2013","03:26:05",13,4,"Switch",1,"Novel95",1,"Novel136",3,1385,"eyesdownleftarrow","4","0",0,1,(Dec 05 2013 03:26:05),"1",TRUE
"135","A34ZHROFSVEF6V","Dec 05 2013","03:26:05",15,5,"Same",0,"Novel68",3,"Novel68",3,1334,"eyesrightarrow","4","0",0,1,(Dec 05 2013 03:26:05),"3",TRUE
"137","A34ZHROFSVEF6V","Dec 05 2013","03:26:05",17,6,"Switch",0,"Novel130",3,"Novel35",0,1816,"eyesrightarrow","4","0",0,1,(Dec 05 2013 03:26:05),"3",TRUE
"139","A34ZHROFSVEF6V","Dec 05 2013","03:26:05",19,7,"Same",1,"Novel107",0,"Novel107",0,2214,"eyesleftarrow","4","0",0,1,(Dec 05 2013 03:26:05),"0",TRUE
"245","A37PTN17UH3H1","Dec 05 2013","04:09:24",5,0,"Switch",0,"Novel108",1,"Novel80",2,8314,"eyesleftarrow","4","0",0,1,(Dec 05 2013 04:09:24),"0",FALSE
"247","A37PTN17UH3H1","Dec 05 2013","04:09:24",7,1,"Same",1,"Novel94",0,"Novel94",0,7301,"eyesdownleftarrow","4","0",0,1,(Dec 05 2013 04:09:24),"1",FALSE
"249","A37PTN17UH3H1","Dec 05 2013","04:09:24",9,2,"Switch",1,"Novel26",3,"Novel102",0,3853,"eyesdownleftarrow","4","0",0,1,(Dec 05 2013 04:09:24),"1",FALSE
"251","A37PTN17UH3H1","Dec 05 2013","04:09:24",11,3,"Same",1,"Novel21",1,"Novel21",1,4633,"eyesdownleftarrow","4","0",0,1,(Dec 05 2013 04:09:24),"1",TRUE
"253","A37PTN17UH3H1","Dec 05 2013","04:09:24",13,4,"Switch",0,"Novel60",3,"Novel16",0,7706,"eyesleftarrow","4","0",0,1,(Dec 05 2013 04:09:24),"0",FALSE
"255","A37PTN17UH3H1","Dec 05 2013","04:09:24",15,5,"Same",0,"Novel74",3,"Novel74",3,5273,"eyesdownrightarrow","4","0",0,1,(Dec 05 2013 04:09:24),"2",FALSE
"257","A37PTN17UH3H1","Dec 05 2013","04:09:24",17,6,"Switch",1,"Novel28",2,"Novel55",1,3152,"eyesdownleftarrow","4","0",0,1,(Dec 05 2013 04:09:24),"1",FALSE
"259","A37PTN17UH3H1","Dec 05 2013","04:09:24",19,7,"Same",0,"Novel111",3,"Novel111",3,3682,"eyesdownrightarrow","4","0",0,1,(Dec 05 2013 04:09:24),"2",FALSE
"45","A38PDFJ9KGQGLV","Dec 05 2013","03:16:31",5,0,"Switch",0,"Novel19",3,"Novel51",0,2203,"eyesleftarrow","4","0",0,1,(Dec 05 2013 03:16:31),"0",FALSE
"47","A38PDFJ9KGQGLV","Dec 05 2013","03:16:31",7,1,"Same",0,"Novel70",2,"Novel70",2,1922,"eyesdownrightarrow","4","0",0,1,(Dec 05 2013 03:16:31),"2",TRUE
"49","A38PDFJ9KGQGLV","Dec 05 2013","03:16:31",9,2,"Switch",1,"Novel102",3,"Novel55",2,2412,"eyesrightarrow","4","0",0,1,(Dec 05 2013 03:16:31),"3",TRUE
"51","A38PDFJ9KGQGLV","Dec 05 2013","03:16:31",11,3,"Same",0,"Novel54",0,"Novel54",0,2360,"eyesleftarrow","4","0",0,1,(Dec 05 2013 03:16:31),"0",TRUE
"53","A38PDFJ9KGQGLV","Dec 05 2013","03:16:31",13,4,"Switch",1,"Novel38",2,"Novel83",3,1109,"eyesdownrightarrow","4","0",0,1,(Dec 05 2013 03:16:31),"2",TRUE
"55","A38PDFJ9KGQGLV","Dec 05 2013","03:16:31",15,5,"Same",1,"Novel6",1,"Novel6",1,3266,"eyesdownleftarrow","4","0",0,1,(Dec 05 2013 03:16:31),"1",TRUE
"57","A38PDFJ9KGQGLV","Dec 05 2013","03:16:31",17,6,"Switch",0,"Novel77",2,"Novel16",0,1875,"eyesleftarrow","4","0",0,1,(Dec 05 2013 03:16:31),"0",FALSE
"59","A38PDFJ9KGQGLV","Dec 05 2013","03:16:31",19,7,"Same",1,"Novel130",2,"Novel130",2,1390,"eyesdownrightarrow","4","0",0,1,(Dec 05 2013 03:16:31),"2",TRUE
"485","A3D4U1VY8VSDI6","Dec 05 2013","04:30:17",5,0,"Same",1,"Novel134",2,"Novel134",2,16453,"eyesdownrightarrow","4","0",0,1,(Dec 05 2013 04:30:17),"2",TRUE
"487","A3D4U1VY8VSDI6","Dec 05 2013","04:30:17",7,1,"Switch",1,"Novel34",3,"Novel2",2,3859,"eyesdownleftarrow","4","0",0,1,(Dec 05 2013 04:30:17),"1",FALSE
"489","A3D4U1VY8VSDI6","Dec 05 2013","04:30:17",9,2,"Same",0,"Novel61",3,"Novel61",3,4622,"eyesdownrightarrow","4","0",0,1,(Dec 05 2013 04:30:17),"2",FALSE
"491","A3D4U1VY8VSDI6","Dec 05 2013","04:30:17",11,3,"Switch",0,"Novel73",1,"Novel41",0,2750,"eyesdownrightarrow","4","0",0,1,(Dec 05 2013 04:30:17),"2",FALSE
"493","A3D4U1VY8VSDI6","Dec 05 2013","04:30:17",13,4,"Same",0,"Novel103",1,"Novel103",1,2032,"eyesrightarrow","4","0",0,1,(Dec 05 2013 04:30:17),"3",FALSE
"495","A3D4U1VY8VSDI6","Dec 05 2013","04:30:17",15,5,"Switch",0,"Novel9",1,"Novel21",2,5562,"eyesdownleftarrow","4","0",0,1,(Dec 05 2013 04:30:17),"1",TRUE
"497","A3D4U1VY8VSDI6","Dec 05 2013","04:30:17",17,6,"Same",1,"Novel108",0,"Novel108",0,4938,"eyesdownleftarrow","4","0",0,1,(Dec 05 2013 04:30:17),"1",FALSE
"499","A3D4U1VY8VSDI6","Dec 05 2013","04:30:17",19,7,"Switch",1,"Novel27",2,"Novel127",0,2359,"eyesdownrightarrow","4","0",0,1,(Dec 05 2013 04:30:17),"2",TRUE
"385","A3JNV32JQW4DTC","Dec 05 2013","04:21:13",5,0,"Switch",1,"Novel78",2,"Novel90",1,4805,"eyesrightarrow","4","0",0,1,(Dec 05 2013 04:21:13),"3",FALSE
"387","A3JNV32JQW4DTC","Dec 05 2013","04:21:13",7,1,"Same",1,"Novel139",2,"Novel139",2,7940,"eyesleftarrow","4","0",0,1,(Dec 05 2013 04:21:13),"0",FALSE
"389","A3JNV32JQW4DTC","Dec 05 2013","04:21:13",9,2,"Switch",0,"Novel61",1,"Novel106",3,3541,"eyesdownleftarrow","4","0",0,1,(Dec 05 2013 04:21:13),"1",TRUE
"391","A3JNV32JQW4DTC","Dec 05 2013","04:21:13",11,3,"Same",0,"Novel85",0,"Novel85",0,2904,"eyesleftarrow","4","0",0,1,(Dec 05 2013 04:21:13),"0",TRUE
"393","A3JNV32JQW4DTC","Dec 05 2013","04:21:13",13,4,"Switch",1,"Novel59",1,"Novel27",2,1404,"eyesdownleftarrow","4","0",0,1,(Dec 05 2013 04:21:13),"1",TRUE
"395","A3JNV32JQW4DTC","Dec 05 2013","04:21:13",15,5,"Same",0,"Novel65",3,"Novel65",3,1279,"eyesrightarrow","4","0",0,1,(Dec 05 2013 04:21:13),"3",TRUE
"397","A3JNV32JQW4DTC","Dec 05 2013","04:21:13",17,6,"Switch",0,"Novel21",1,"Novel110",3,530,"eyesdownleftarrow","4","0",0,1,(Dec 05 2013 04:21:13),"1",TRUE
"399","A3JNV32JQW4DTC","Dec 05 2013","04:21:13",19,7,"Same",1,"Novel31",0,"Novel31",0,873,"eyesleftarrow","4","0",0,1,(Dec 05 2013 04:21:13),"0",TRUE
"445","A3K1UZBNGXZ7X5","Dec 05 2013","04:29:26",5,0,"Same",1,"Novel138",1,"Novel138",1,2309,"eyesdownleftarrow","4","0",0,1,(Dec 05 2013 04:29:26),"1",TRUE
"447","A3K1UZBNGXZ7X5","Dec 05 2013","04:29:26",7,1,"Switch",0,"Novel45",3,"Novel115",2,1731,"eyesrightarrow","4","0",0,1,(Dec 05 2013 04:29:26),"3",TRUE
"449","A3K1UZBNGXZ7X5","Dec 05 2013","04:29:26",9,2,"Same",0,"Novel101",0,"Novel101",0,1700,"eyesleftarrow","4","0",0,1,(Dec 05 2013 04:29:26),"0",TRUE
"451","A3K1UZBNGXZ7X5","Dec 05 2013","04:29:26",11,3,"Switch",1,"Novel112",1,"Novel28",2,1060,"eyesdownleftarrow","4","0",0,1,(Dec 05 2013 04:29:26),"1",TRUE
"453","A3K1UZBNGXZ7X5","Dec 05 2013","04:29:26",13,4,"Same",0,"Novel108",3,"Novel108",3,1326,"eyesrightarrow","4","0",0,1,(Dec 05 2013 04:29:26),"3",TRUE
"455","A3K1UZBNGXZ7X5","Dec 05 2013","04:29:26",15,5,"Switch",1,"Novel107",3,"Novel64",2,1295,"eyesrightarrow","4","0",0,1,(Dec 05 2013 04:29:26),"3",TRUE
"457","A3K1UZBNGXZ7X5","Dec 05 2013","04:29:26",17,6,"Same",1,"Novel109",2,"Novel109",2,1294,"eyesdownrightarrow","4","0",0,1,(Dec 05 2013 04:29:26),"2",TRUE
"459","A3K1UZBNGXZ7X5","Dec 05 2013","04:29:26",19,7,"Switch",0,"Novel82",2,"Novel42",1,908,"eyesdownrightarrow","4","0",0,1,(Dec 05 2013 04:29:26),"2",TRUE
"325","ABHKIR4MLWULZ","Dec 05 2013","04:16:05",5,0,"Same",1,"Novel134",0,"Novel134",0,3510,"eyesdownrightarrow","4","0",0,1,(Dec 05 2013 04:16:05),"2",FALSE
"327","ABHKIR4MLWULZ","Dec 05 2013","04:16:05",7,1,"Switch",1,"Novel101",2,"Novel78",3,2621,"eyesrightarrow","4","0",0,1,(Dec 05 2013 04:16:05),"3",FALSE
"329","ABHKIR4MLWULZ","Dec 05 2013","04:16:05",9,2,"Same",0,"Novel125",1,"Novel125",1,2013,"eyesleftarrow","4","0",0,1,(Dec 05 2013 04:16:05),"0",FALSE
"331","ABHKIR4MLWULZ","Dec 05 2013","04:16:05",11,3,"Switch",0,"Novel1",3,"Novel107",1,3198,"eyesdownrightarrow","4","0",0,1,(Dec 05 2013 04:16:05),"2",FALSE
"333","ABHKIR4MLWULZ","Dec 05 2013","04:16:05",13,4,"Same",0,"Novel70",3,"Novel70",3,9033,"eyesrightarrow","4","0",0,1,(Dec 05 2013 04:16:05),"3",TRUE
"335","ABHKIR4MLWULZ","Dec 05 2013","04:16:05",15,5,"Switch",1,"Novel82",0,"Novel99",1,2184,"eyesrightarrow","4","0",0,1,(Dec 05 2013 04:16:05),"3",FALSE
"337","ABHKIR4MLWULZ","Dec 05 2013","04:16:05",17,6,"Same",1,"Novel29",3,"Novel29",3,4040,"eyesleftarrow","4","0",0,1,(Dec 05 2013 04:16:05),"0",FALSE
"339","ABHKIR4MLWULZ","Dec 05 2013","04:16:05",19,7,"Switch",0,"Novel74",0,"Novel50",2,2278,"eyesdownleftarrow","4","0",0,1,(Dec 05 2013 04:16:05),"1",FALSE
"265","AEKCK3L7OKCY9","Dec 05 2013","04:11:37",5,0,"Same",1,"Novel71",2,"Novel71",2,1606,"eyesdownrightarrow","4","0",0,1,(Dec 05 2013 04:11:37),"2",TRUE
"267","AEKCK3L7OKCY9","Dec 05 2013","04:11:37",7,1,"Switch",1,"Novel86",2,"Novel22",1,967,"eyesdownrightarrow","4","0",0,1,(Dec 05 2013 04:11:37),"2",TRUE
"269","AEKCK3L7OKCY9","Dec 05 2013","04:11:37",9,2,"Same",0,"Novel92",0,"Novel92",0,1482,"eyesleftarrow","4","0",0,1,(Dec 05 2013 04:11:37),"0",TRUE
"271","AEKCK3L7OKCY9","Dec 05 2013","04:11:37",11,3,"Switch",0,"Novel108",0,"Novel48",2,1809,"eyesleftarrow","4","0",0,1,(Dec 05 2013 04:11:37),"0",TRUE
"273","AEKCK3L7OKCY9","Dec 05 2013","04:11:37",13,4,"Same",1,"Novel55",0,"Novel55",0,1170,"eyesleftarrow","4","0",0,1,(Dec 05 2013 04:11:37),"0",TRUE
"275","AEKCK3L7OKCY9","Dec 05 2013","04:11:37",15,5,"Switch",1,"Novel12",2,"Novel90",1,1467,"eyesdownrightarrow","4","0",0,1,(Dec 05 2013 04:11:37),"2",TRUE
"277","AEKCK3L7OKCY9","Dec 05 2013","04:11:37",17,6,"Same",0,"Novel85",2,"Novel85",2,1575,"eyesdownrightarrow","4","0",0,1,(Dec 05 2013 04:11:37),"2",TRUE
"279","AEKCK3L7OKCY9","Dec 05 2013","04:11:37",19,7,"Switch",0,"Novel105",0,"Novel89",3,873,"eyesleftarrow","4","0",0,1,(Dec 05 2013 04:11:37),"0",TRUE
"365","AGU3P5LLHVI5X","Dec 05 2013","04:21:06",5,0,"Switch",0,"Novel131",2,"Novel91",1,9235,"eyesdownrightarrow","4","0",0,1,(Dec 05 2013 04:21:06),"2",TRUE
"367","AGU3P5LLHVI5X","Dec 05 2013","04:21:06",7,1,"Same",0,"Novel93",3,"Novel93",3,1747,"eyesrightarrow","4","0",0,1,(Dec 05 2013 04:21:06),"3",TRUE
"369","AGU3P5LLHVI5X","Dec 05 2013","04:21:06",9,2,"Switch",1,"Novel19",2,"Novel13",0,998,"eyesdownrightarrow","4","0",0,1,(Dec 05 2013 04:21:06),"2",TRUE
"371","AGU3P5LLHVI5X","Dec 05 2013","04:21:06",11,3,"Same",1,"Novel57",1,"Novel57",1,2527,"eyesdownleftarrow","4","0",0,1,(Dec 05 2013 04:21:06),"1",TRUE
"373","AGU3P5LLHVI5X","Dec 05 2013","04:21:06",13,4,"Switch",1,"Novel84",0,"Novel1",2,1560,"eyesleftarrow","4","0",0,1,(Dec 05 2013 04:21:06),"0",TRUE
"375","AGU3P5LLHVI5X","Dec 05 2013","04:21:06",15,5,"Same",0,"Novel116",1,"Novel116",1,1357,"eyesdownleftarrow","4","0",0,1,(Dec 05 2013 04:21:06),"1",TRUE
"377","AGU3P5LLHVI5X","Dec 05 2013","04:21:06",17,6,"Switch",0,"Novel128",3,"Novel82",0,1264,"eyesrightarrow","4","0",0,1,(Dec 05 2013 04:21:06),"3",TRUE
"379","AGU3P5LLHVI5X","Dec 05 2013","04:21:06",19,7,"Same",1,"Novel115",2,"Novel115",2,1919,"eyesdownrightarrow","4","0",0,1,(Dec 05 2013 04:21:06),"2",TRUE
"465","AK96E3Z3RFYU3","Dec 05 2013","04:30:14",5,0,"Same",0,"Novel91",2,"Novel91",2,7805,"eyesdownrightarrow","4","0",0,1,(Dec 05 2013 04:30:14),"2",TRUE
"467","AK96E3Z3RFYU3","Dec 05 2013","04:30:14",7,1,"Switch",0,"Novel73",2,"Novel128",1,5305,"eyesdownrightarrow","4","0",0,1,(Dec 05 2013 04:30:14),"2",TRUE
"469","AK96E3Z3RFYU3","Dec 05 2013","04:30:14",9,2,"Same",0,"Novel49",3,"Novel49",3,4799,"eyesrightarrow","4","0",0,1,(Dec 05 2013 04:30:14),"3",TRUE
"471","AK96E3Z3RFYU3","Dec 05 2013","04:30:14",11,3,"Switch",0,"Novel90",0,"Novel122",3,1409,"eyesleftarrow","4","0",0,1,(Dec 05 2013 04:30:14),"0",TRUE
"473","AK96E3Z3RFYU3","Dec 05 2013","04:30:14",13,4,"Same",1,"Novel64",2,"Novel64",2,4593,"eyesdownrightarrow","4","0",0,1,(Dec 05 2013 04:30:14),"2",TRUE
"475","AK96E3Z3RFYU3","Dec 05 2013","04:30:14",15,5,"Switch",1,"Novel72",2,"Novel74",3,3484,"eyesdownrightarrow","4","0",0,1,(Dec 05 2013 04:30:14),"2",TRUE
"477","AK96E3Z3RFYU3","Dec 05 2013","04:30:14",17,6,"Same",1,"Novel43",1,"Novel43",1,4430,"eyesdownleftarrow","4","0",0,1,(Dec 05 2013 04:30:14),"1",TRUE
"479","AK96E3Z3RFYU3","Dec 05 2013","04:30:14",19,7,"Switch",1,"Novel4",2,"Novel112",3,3143,"eyesdownleftarrow","4","0",0,1,(Dec 05 2013 04:30:14),"1",FALSE
"25","AM3E6SVW2M0X3","Dec 05 2013","03:15:31",5,0,"Switch",1,"Novel11",2,"Novel58",0,2399,"eyesdownrightarrow","4","0",0,1,(Dec 05 2013 03:15:31),"2",TRUE
"27","AM3E6SVW2M0X3","Dec 05 2013","03:15:31",7,1,"Same",1,"Novel88",1,"Novel88",1,2198,"eyesdownleftarrow","4","0",0,1,(Dec 05 2013 03:15:31),"1",TRUE
"29","AM3E6SVW2M0X3","Dec 05 2013","03:15:31",9,2,"Switch",1,"Novel114",2,"Novel5",3,14133,"eyesdownrightarrow","4","0",0,1,(Dec 05 2013 03:15:31),"2",TRUE
"31","AM3E6SVW2M0X3","Dec 05 2013","03:15:31",11,3,"Same",0,"Novel17",1,"Novel17",1,2654,"eyesdownleftarrow","4","0",0,1,(Dec 05 2013 03:15:31),"1",TRUE
"33","AM3E6SVW2M0X3","Dec 05 2013","03:15:31",13,4,"Switch",0,"Novel41",1,"Novel53",0,8894,"eyesdownleftarrow","4","0",0,1,(Dec 05 2013 03:15:31),"1",TRUE
"35","AM3E6SVW2M0X3","Dec 05 2013","03:15:31",15,5,"Same",1,"Novel94",0,"Novel94",0,6321,"eyesleftarrow","4","0",0,1,(Dec 05 2013 03:15:31),"0",TRUE
"37","AM3E6SVW2M0X3","Dec 05 2013","03:15:31",17,6,"Switch",0,"Novel4",1,"Novel121",3,2640,"eyesdownleftarrow","4","0",0,1,(Dec 05 2013 03:15:31),"1",TRUE
"39","AM3E6SVW2M0X3","Dec 05 2013","03:15:31",19,7,"Same",0,"Novel125",2,"Novel125",2,2620,"eyesdownrightarrow","4","0",0,1,(Dec 05 2013 03:15:31),"2",TRUE
"525","AN5MSKMMSUXGQ","Dec 05 2013","04:32:56",5,0,"Same",0,"Novel131",1,"Novel131",1,2988,"eyesdownleftarrow","4","0",0,1,(Dec 05 2013 04:32:56),"1",TRUE
"527","AN5MSKMMSUXGQ","Dec 05 2013","04:32:56",7,1,"Switch",1,"Novel89",3,"Novel97",0,1508,"eyesrightarrow","4","0",0,1,(Dec 05 2013 04:32:56),"3",TRUE
"529","AN5MSKMMSUXGQ","Dec 05 2013","04:32:56",9,2,"Same",1,"Novel14",2,"Novel14",2,2806,"eyesdownrightarrow","4","0",0,1,(Dec 05 2013 04:32:56),"2",TRUE
"531","AN5MSKMMSUXGQ","Dec 05 2013","04:32:56",11,3,"Switch",0,"Novel71",1,"Novel15",3,1915,"eyesdownleftarrow","4","0",0,1,(Dec 05 2013 04:32:56),"1",TRUE
"533","AN5MSKMMSUXGQ","Dec 05 2013","04:32:56",13,4,"Same",0,"Novel67",2,"Novel67",2,2215,"eyesdownrightarrow","4","0",0,1,(Dec 05 2013 04:32:56),"2",TRUE
"535","AN5MSKMMSUXGQ","Dec 05 2013","04:32:56",15,5,"Switch",0,"Novel50",2,"Novel129",0,1783,"eyesdownrightarrow","4","0",0,1,(Dec 05 2013 04:32:56),"2",TRUE
"537","AN5MSKMMSUXGQ","Dec 05 2013","04:32:56",17,6,"Same",1,"Novel48",2,"Novel48",2,4673,"eyesdownrightarrow","4","0",0,1,(Dec 05 2013 04:32:56),"2",TRUE
"539","AN5MSKMMSUXGQ","Dec 05 2013","04:32:56",19,7,"Switch",1,"Novel130",1,"Novel105",0,6658,"eyesdownleftarrow","4","0",0,1,(Dec 05 2013 04:32:56),"1",TRUE
"345","APUDEHJUFAFZV","Dec 05 2013","04:17:53",5,0,"Same",1,"Novel68",0,"Novel68",0,6318,"eyesleftarrow","4","0",0,1,(Dec 05 2013 04:17:53),"0",TRUE
"347","APUDEHJUFAFZV","Dec 05 2013","04:17:53",7,1,"Switch",0,"Novel67",2,"Novel53",1,4649,"eyesdownleftarrow","4","0",0,1,(Dec 05 2013 04:17:53),"1",FALSE
"349","APUDEHJUFAFZV","Dec 05 2013","04:17:53",9,2,"Same",1,"Novel111",1,"Novel111",1,1919,"eyesdownrightarrow","4","0",0,1,(Dec 05 2013 04:17:53),"2",FALSE
"351","APUDEHJUFAFZV","Dec 05 2013","04:17:53",11,3,"Switch",1,"Novel92",2,"Novel30",3,2293,"eyesrightarrow","4","0",0,1,(Dec 05 2013 04:17:53),"3",FALSE
"353","APUDEHJUFAFZV","Dec 05 2013","04:17:53",13,4,"Same",0,"Novel89",0,"Novel89",0,3232,"eyesleftarrow","4","0",0,1,(Dec 05 2013 04:17:53),"0",TRUE
"355","APUDEHJUFAFZV","Dec 05 2013","04:17:53",15,5,"Switch",1,"Novel101",2,"Novel65",3,1982,"eyesdownleftarrow","4","0",0,1,(Dec 05 2013 04:17:53),"1",FALSE
"357","APUDEHJUFAFZV","Dec 05 2013","04:17:53",17,6,"Same",0,"Novel24",0,"Novel24",0,2418,"eyesdownleftarrow","4","0",0,1,(Dec 05 2013 04:17:53),"1",FALSE
"359","APUDEHJUFAFZV","Dec 05 2013","04:17:53",19,7,"Switch",0,"Novel112",0,"Novel120",2,7082,"eyesdownrightarrow","4","0",0,1,(Dec 05 2013 04:17:53),"2",FALSE
"425","ARQQHT1JIRORV","Dec 05 2013","04:28:46",5,0,"Switch",0,"Novel22",2,"Novel38",3,3775,"eyesrightarrow","4","0",0,1,(Dec 05 2013 04:28:46),"3",FALSE
"427","ARQQHT1JIRORV","Dec 05 2013","04:28:46",7,1,"Same",0,"Novel70",0,"Novel70",0,3432,"eyesdownrightarrow","4","0",0,1,(Dec 05 2013 04:28:46),"2",FALSE
"429","ARQQHT1JIRORV","Dec 05 2013","04:28:46",9,2,"Switch",1,"Novel60",3,"Novel134",1,4696,"eyesdownleftarrow","4","0",0,1,(Dec 05 2013 04:28:46),"1",FALSE
"431","ARQQHT1JIRORV","Dec 05 2013","04:28:46",11,3,"Same",1,"Novel17",1,"Novel17",1,2933,"eyesdownleftarrow","4","0",0,1,(Dec 05 2013 04:28:46),"1",TRUE
"433","ARQQHT1JIRORV","Dec 05 2013","04:28:46",13,4,"Switch",0,"Novel24",2,"Novel56",0,1885,"eyesleftarrow","4","0",0,1,(Dec 05 2013 04:28:46),"0",FALSE
"435","ARQQHT1JIRORV","Dec 05 2013","04:28:46",15,5,"Same",0,"Novel80",0,"Novel80",0,1997,"eyesleftarrow","4","0",0,1,(Dec 05 2013 04:28:46),"0",TRUE
"437","ARQQHT1JIRORV","Dec 05 2013","04:28:46",17,6,"Switch",1,"Novel40",1,"Novel129",2,2730,"eyesrightarrow","4","0",0,1,(Dec 05 2013 04:28:46),"3",FALSE
"439","ARQQHT1JIRORV","Dec 05 2013","04:28:46",19,7,"Same",1,"Novel3",0,"Novel3",0,1997,"eyesrightarrow","4","0",0,1,(Dec 05 2013 04:28:46),"3",FALSE
