"","subid","submit.date","submit.time","trial.num","itemNum","trialType","samePos","chosen","chosenIdx","kept","keptIdx","rt","face","numPic","interval","test","exposure","day.and.time","correct","include","first.trial","numPicN","intervalN"
"1","A1BT5I6JC2U1L4","Jan 19 2014","10:11:34",9,0,"Same",1,"Novel12",1,"Novel12",1,1347,"eyescenter","4","3",1,0,(Jan 19 2014 10:11:34),TRUE,TRUE,TRUE,4,3
"2","A1BT5I6JC2U1L4","Jan 19 2014","10:11:34",10,1,"Switch",1,"Novel27",1,"Novel91",2,5673,"eyescenter","4","3",1,0,(Jan 19 2014 10:11:34),FALSE,TRUE,FALSE,4,3
"3","A1BT5I6JC2U1L4","Jan 19 2014","10:11:34",11,2,"Same",1,"Novel88",1,"Novel88",1,1450,"eyescenter","4","3",1,0,(Jan 19 2014 10:11:34),TRUE,TRUE,FALSE,4,3
"4","A1BT5I6JC2U1L4","Jan 19 2014","10:11:34",12,3,"Switch",0,"Novel115",1,"Novel130",3,6220,"eyescenter","4","3",1,0,(Jan 19 2014 10:11:34),FALSE,TRUE,FALSE,4,3
"5","A1BT5I6JC2U1L4","Jan 19 2014","10:11:34",17,4,"Same",0,"Novel44",0,"Novel44",1,1952,"eyescenter","4","3",1,0,(Jan 19 2014 10:11:34),TRUE,TRUE,FALSE,4,3
"6","A1BT5I6JC2U1L4","Jan 19 2014","10:11:34",18,5,"Switch",0,"Novel59",1,"Novel38",3,9764,"eyescenter","4","3",1,0,(Jan 19 2014 10:11:34),FALSE,TRUE,FALSE,4,3
"7","A1BT5I6JC2U1L4","Jan 19 2014","10:11:34",19,6,"Same",0,"Novel53",3,"Novel53",1,2118,"eyescenter","4","3",1,0,(Jan 19 2014 10:11:34),TRUE,TRUE,FALSE,4,3
"8","A1BT5I6JC2U1L4","Jan 19 2014","10:11:34",20,7,"Switch",1,"Novel50",1,"Novel58",2,5001,"eyescenter","4","3",1,0,(Jan 19 2014 10:11:34),FALSE,TRUE,FALSE,4,3
"9","A1FKCYWMD3HCXU","Jan 19 2014","10:10:46",9,0,"Switch",1,"Novel55",0,"Novel55",0,1345,"eyescenter","4","3",1,0,(Jan 19 2014 10:10:46),TRUE,TRUE,TRUE,4,3
"10","A1FKCYWMD3HCXU","Jan 19 2014","10:10:46",10,1,"Same",1,"Novel69",2,"Novel69",2,840,"eyescenter","4","3",1,0,(Jan 19 2014 10:10:46),TRUE,TRUE,FALSE,4,3
"11","A1FKCYWMD3HCXU","Jan 19 2014","10:10:46",11,2,"Switch",0,"Novel137",3,"Novel137",1,1349,"eyescenter","4","3",1,0,(Jan 19 2014 10:10:46),TRUE,TRUE,FALSE,4,3
"12","A1FKCYWMD3HCXU","Jan 19 2014","10:10:46",12,3,"Same",0,"Novel22",1,"Novel22",0,979,"eyescenter","4","3",1,0,(Jan 19 2014 10:10:46),TRUE,TRUE,FALSE,4,3
"13","A1FKCYWMD3HCXU","Jan 19 2014","10:10:46",17,4,"Switch",1,"Novel103",3,"Novel133",1,2074,"eyescenter","4","3",1,0,(Jan 19 2014 10:10:46),FALSE,TRUE,FALSE,4,3
"14","A1FKCYWMD3HCXU","Jan 19 2014","10:10:46",18,5,"Same",0,"Novel45",0,"Novel38",0,1316,"eyescenter","4","3",1,0,(Jan 19 2014 10:10:46),FALSE,TRUE,FALSE,4,3
"15","A1FKCYWMD3HCXU","Jan 19 2014","10:10:46",19,6,"Switch",0,"Novel56",1,"Novel62",2,1971,"eyescenter","4","3",1,0,(Jan 19 2014 10:10:46),FALSE,TRUE,FALSE,4,3
"16","A1FKCYWMD3HCXU","Jan 19 2014","10:10:46",20,7,"Same",1,"Novel107",0,"Novel107",0,771,"eyescenter","4","3",1,0,(Jan 19 2014 10:10:46),TRUE,TRUE,FALSE,4,3
"17","A1OV86I0FAFAM1","Jan 19 2014","10:03:40",9,0,"Same",0,"Novel116",2,"Novel116",0,6138,"eyescenter","4","3",1,0,(Jan 19 2014 10:03:40),TRUE,TRUE,TRUE,4,3
"18","A1OV86I0FAFAM1","Jan 19 2014","10:03:40",10,1,"Switch",0,"Novel120",1,"Novel120",2,9517,"eyescenter","4","3",1,0,(Jan 19 2014 10:03:40),TRUE,TRUE,FALSE,4,3
"19","A1OV86I0FAFAM1","Jan 19 2014","10:03:40",11,2,"Same",1,"Novel23",3,"Novel23",3,6199,"eyescenter","4","3",1,0,(Jan 19 2014 10:03:40),TRUE,TRUE,FALSE,4,3
"20","A1OV86I0FAFAM1","Jan 19 2014","10:03:40",12,3,"Switch",1,"Novel77",3,"Novel77",3,4289,"eyescenter","4","3",1,0,(Jan 19 2014 10:03:40),TRUE,TRUE,FALSE,4,3
"21","A1OV86I0FAFAM1","Jan 19 2014","10:03:40",17,4,"Same",0,"Novel86",2,"Novel12",1,6677,"eyescenter","4","3",1,0,(Jan 19 2014 10:03:40),FALSE,TRUE,FALSE,4,3
"22","A1OV86I0FAFAM1","Jan 19 2014","10:03:40",18,5,"Switch",1,"Novel41",0,"Novel64",1,7358,"eyescenter","4","3",1,0,(Jan 19 2014 10:03:40),FALSE,TRUE,FALSE,4,3
"23","A1OV86I0FAFAM1","Jan 19 2014","10:03:40",19,6,"Same",1,"Novel43",3,"Novel43",3,7643,"eyescenter","4","3",1,0,(Jan 19 2014 10:03:40),TRUE,TRUE,FALSE,4,3
"24","A1OV86I0FAFAM1","Jan 19 2014","10:03:40",20,7,"Switch",0,"Novel63",3,"Novel63",1,3794,"eyescenter","4","3",1,0,(Jan 19 2014 10:03:40),TRUE,TRUE,FALSE,4,3
"25","A1W3OTNMCSEJ2D","Jan 19 2014","10:08:14",9,0,"Switch",1,"Novel73",1,"Novel73",1,2308,"eyescenter","4","3",1,0,(Jan 19 2014 10:08:14),TRUE,TRUE,TRUE,4,3
"26","A1W3OTNMCSEJ2D","Jan 19 2014","10:08:14",10,1,"Same",0,"Novel2",1,"Novel2",0,1331,"eyescenter","4","3",1,0,(Jan 19 2014 10:08:14),TRUE,TRUE,FALSE,4,3
"27","A1W3OTNMCSEJ2D","Jan 19 2014","10:08:14",11,2,"Switch",0,"Novel4",3,"Novel4",2,1387,"eyescenter","4","3",1,0,(Jan 19 2014 10:08:14),TRUE,TRUE,FALSE,4,3
"28","A1W3OTNMCSEJ2D","Jan 19 2014","10:08:14",12,3,"Same",1,"Novel11",1,"Novel11",1,1878,"eyescenter","4","3",1,0,(Jan 19 2014 10:08:14),TRUE,TRUE,FALSE,4,3
"29","A1W3OTNMCSEJ2D","Jan 19 2014","10:08:14",17,4,"Switch",0,"Novel30",2,"Novel6",3,3690,"eyescenter","4","3",1,0,(Jan 19 2014 10:08:14),FALSE,TRUE,FALSE,4,3
"30","A1W3OTNMCSEJ2D","Jan 19 2014","10:08:14",18,5,"Same",0,"Novel37",1,"Novel123",1,2218,"eyescenter","4","3",1,0,(Jan 19 2014 10:08:14),FALSE,TRUE,FALSE,4,3
"31","A1W3OTNMCSEJ2D","Jan 19 2014","10:08:14",19,6,"Switch",1,"Novel100",3,"Novel52",0,3187,"eyescenter","4","3",1,0,(Jan 19 2014 10:08:14),FALSE,TRUE,FALSE,4,3
"32","A1W3OTNMCSEJ2D","Jan 19 2014","10:08:14",20,7,"Same",1,"Novel98",2,"Novel98",2,1089,"eyescenter","4","3",1,0,(Jan 19 2014 10:08:14),TRUE,TRUE,FALSE,4,3
"33","A1XS8RTDRQQI1E","Jan 19 2014","10:09:20",9,0,"Switch",0,"Novel16",3,"Novel16",1,7401,"eyescenter","4","3",1,0,(Jan 19 2014 10:09:20),TRUE,TRUE,TRUE,4,3
"34","A1XS8RTDRQQI1E","Jan 19 2014","10:09:20",10,1,"Same",0,"Novel21",3,"Novel21",2,3900,"eyescenter","4","3",1,0,(Jan 19 2014 10:09:20),TRUE,TRUE,FALSE,4,3
"35","A1XS8RTDRQQI1E","Jan 19 2014","10:09:20",11,2,"Switch",1,"Novel139",1,"Novel139",1,2996,"eyescenter","4","3",1,0,(Jan 19 2014 10:09:20),TRUE,TRUE,FALSE,4,3
"36","A1XS8RTDRQQI1E","Jan 19 2014","10:09:20",12,3,"Same",0,"Novel46",1,"Novel46",2,4022,"eyescenter","4","3",1,0,(Jan 19 2014 10:09:20),TRUE,TRUE,FALSE,4,3
"37","A1XS8RTDRQQI1E","Jan 19 2014","10:09:20",17,4,"Switch",1,"Novel57",1,"Novel57",1,3755,"eyescenter","4","3",1,0,(Jan 19 2014 10:09:20),TRUE,TRUE,FALSE,4,3
"38","A1XS8RTDRQQI1E","Jan 19 2014","10:09:20",18,5,"Same",1,"Novel9",3,"Novel9",3,4934,"eyescenter","4","3",1,0,(Jan 19 2014 10:09:20),TRUE,TRUE,FALSE,4,3
"39","A1XS8RTDRQQI1E","Jan 19 2014","10:09:20",19,6,"Switch",0,"Novel65",2,"Novel28",3,3343,"eyescenter","4","3",1,0,(Jan 19 2014 10:09:20),FALSE,TRUE,FALSE,4,3
"40","A1XS8RTDRQQI1E","Jan 19 2014","10:09:20",20,7,"Same",1,"Novel132",2,"Novel58",1,9141,"eyescenter","4","3",1,0,(Jan 19 2014 10:09:20),FALSE,TRUE,FALSE,4,3
"41","A207PCIH6CMDY6","Jan 19 2014","10:05:43",9,0,"Switch",1,"Novel12",0,"Novel12",0,4319,"eyescenter","4","3",1,0,(Jan 19 2014 10:05:43),TRUE,TRUE,TRUE,4,3
"42","A207PCIH6CMDY6","Jan 19 2014","10:05:43",10,1,"Same",1,"Novel111",1,"Novel111",1,2230,"eyescenter","4","3",1,0,(Jan 19 2014 10:05:43),TRUE,TRUE,FALSE,4,3
"43","A207PCIH6CMDY6","Jan 19 2014","10:05:43",11,2,"Switch",0,"Novel114",0,"Novel114",2,5422,"eyescenter","4","3",1,0,(Jan 19 2014 10:05:43),TRUE,TRUE,FALSE,4,3
"44","A207PCIH6CMDY6","Jan 19 2014","10:05:43",12,3,"Same",1,"Novel11",0,"Novel11",0,2602,"eyescenter","4","3",1,0,(Jan 19 2014 10:05:43),TRUE,TRUE,FALSE,4,3
"45","A207PCIH6CMDY6","Jan 19 2014","10:05:43",17,4,"Switch",0,"Novel121",3,"Novel121",0,4399,"eyescenter","4","3",1,0,(Jan 19 2014 10:05:43),TRUE,TRUE,FALSE,4,3
"46","A207PCIH6CMDY6","Jan 19 2014","10:05:43",18,5,"Same",0,"Novel108",2,"Novel108",0,3801,"eyescenter","4","3",1,0,(Jan 19 2014 10:05:43),TRUE,TRUE,FALSE,4,3
"47","A207PCIH6CMDY6","Jan 19 2014","10:05:43",19,6,"Switch",1,"Novel58",0,"Novel58",0,1897,"eyescenter","4","3",1,0,(Jan 19 2014 10:05:43),TRUE,TRUE,FALSE,4,3
"48","A207PCIH6CMDY6","Jan 19 2014","10:05:43",20,7,"Same",0,"Novel24",3,"Novel24",1,2114,"eyescenter","4","3",1,0,(Jan 19 2014 10:05:43),TRUE,TRUE,FALSE,4,3
"49","A22XK2FSFIAAFG","Jan 19 2014","10:09:36",9,0,"Same",0,"Novel6",2,"Novel6",1,1595,"eyescenter","4","3",1,0,(Jan 19 2014 10:09:36),TRUE,TRUE,TRUE,4,3
"50","A22XK2FSFIAAFG","Jan 19 2014","10:09:36",10,1,"Switch",1,"Novel97",0,"Novel97",0,1887,"eyescenter","4","3",1,0,(Jan 19 2014 10:09:36),TRUE,TRUE,FALSE,4,3
"51","A22XK2FSFIAAFG","Jan 19 2014","10:09:36",11,2,"Same",0,"Novel110",1,"Novel110",0,1315,"eyescenter","4","3",1,0,(Jan 19 2014 10:09:36),TRUE,TRUE,FALSE,4,3
"52","A22XK2FSFIAAFG","Jan 19 2014","10:09:36",12,3,"Switch",0,"Novel46",0,"Novel46",1,2753,"eyescenter","4","3",1,0,(Jan 19 2014 10:09:36),TRUE,TRUE,FALSE,4,3
"53","A22XK2FSFIAAFG","Jan 19 2014","10:09:36",17,4,"Same",1,"Novel105",0,"Novel105",0,3037,"eyescenter","4","3",1,0,(Jan 19 2014 10:09:36),TRUE,TRUE,FALSE,4,3
"54","A22XK2FSFIAAFG","Jan 19 2014","10:09:36",18,5,"Switch",0,"Novel21",2,"Novel43",1,2198,"eyescenter","4","3",1,0,(Jan 19 2014 10:09:36),FALSE,TRUE,FALSE,4,3
"55","A22XK2FSFIAAFG","Jan 19 2014","10:09:36",19,6,"Same",1,"Novel77",3,"Novel77",3,1853,"eyescenter","4","3",1,0,(Jan 19 2014 10:09:36),TRUE,TRUE,FALSE,4,3
"56","A22XK2FSFIAAFG","Jan 19 2014","10:09:36",20,7,"Switch",1,"Novel115",1,"Novel17",0,1967,"eyescenter","4","3",1,0,(Jan 19 2014 10:09:36),FALSE,TRUE,FALSE,4,3
"57","A23PRCJGBK3AEP","Jan 19 2014","10:10:35",9,0,"Switch",0,"Novel108",2,"Novel73",2,5379,"eyescenter","4","3",1,0,(Jan 19 2014 10:10:35),FALSE,TRUE,TRUE,4,3
"58","A23PRCJGBK3AEP","Jan 19 2014","10:10:35",10,1,"Same",0,"Novel23",0,"Novel23",1,1474,"eyescenter","4","3",1,0,(Jan 19 2014 10:10:35),TRUE,TRUE,FALSE,4,3
"59","A23PRCJGBK3AEP","Jan 19 2014","10:10:35",11,2,"Switch",1,"Novel16",0,"Novel16",0,4099,"eyescenter","4","3",1,0,(Jan 19 2014 10:10:35),TRUE,TRUE,FALSE,4,3
"60","A23PRCJGBK3AEP","Jan 19 2014","10:10:35",12,3,"Same",1,"Novel69",2,"Novel69",2,2315,"eyescenter","4","3",1,0,(Jan 19 2014 10:10:35),TRUE,TRUE,FALSE,4,3
"61","A23PRCJGBK3AEP","Jan 19 2014","10:10:35",17,4,"Switch",1,"Novel10",2,"Novel61",0,2133,"eyescenter","4","3",1,0,(Jan 19 2014 10:10:35),FALSE,TRUE,FALSE,4,3
"62","A23PRCJGBK3AEP","Jan 19 2014","10:10:35",18,5,"Same",0,"Novel116",3,"Novel116",1,1548,"eyescenter","4","3",1,0,(Jan 19 2014 10:10:35),TRUE,TRUE,FALSE,4,3
"63","A23PRCJGBK3AEP","Jan 19 2014","10:10:35",19,6,"Switch",0,"Novel88",2,"Novel88",1,1445,"eyescenter","4","3",1,0,(Jan 19 2014 10:10:35),TRUE,TRUE,FALSE,4,3
"64","A23PRCJGBK3AEP","Jan 19 2014","10:10:35",20,7,"Same",1,"Novel22",2,"Novel22",2,2996,"eyescenter","4","3",1,0,(Jan 19 2014 10:10:35),TRUE,TRUE,FALSE,4,3
"65","A25GRAPL6NLMYL","Jan 19 2014","10:12:33",9,0,"Same",0,"Novel3",2,"Novel3",1,3031,"eyescenter","4","3",1,0,(Jan 19 2014 10:12:33),TRUE,TRUE,TRUE,4,3
"66","A25GRAPL6NLMYL","Jan 19 2014","10:12:33",10,1,"Switch",1,"Novel50",3,"Novel50",3,6439,"eyescenter","4","3",1,0,(Jan 19 2014 10:12:33),TRUE,TRUE,FALSE,4,3
"67","A25GRAPL6NLMYL","Jan 19 2014","10:12:33",11,2,"Same",1,"Novel92",3,"Novel92",3,3334,"eyescenter","4","3",1,0,(Jan 19 2014 10:12:33),TRUE,TRUE,FALSE,4,3
"68","A25GRAPL6NLMYL","Jan 19 2014","10:12:33",12,3,"Switch",0,"Novel77",0,"Novel77",2,6331,"eyescenter","4","3",1,0,(Jan 19 2014 10:12:33),TRUE,TRUE,FALSE,4,3
"69","A25GRAPL6NLMYL","Jan 19 2014","10:12:33",17,4,"Same",1,"Novel113",3,"Novel113",3,4251,"eyescenter","4","3",1,0,(Jan 19 2014 10:12:33),TRUE,TRUE,FALSE,4,3
"70","A25GRAPL6NLMYL","Jan 19 2014","10:12:33",18,5,"Switch",0,"Novel79",1,"Novel43",2,10471,"eyescenter","4","3",1,0,(Jan 19 2014 10:12:33),FALSE,TRUE,FALSE,4,3
"71","A25GRAPL6NLMYL","Jan 19 2014","10:12:33",19,6,"Same",0,"Novel138",0,"Novel138",2,2319,"eyescenter","4","3",1,0,(Jan 19 2014 10:12:33),TRUE,TRUE,FALSE,4,3
"72","A25GRAPL6NLMYL","Jan 19 2014","10:12:33",20,7,"Switch",1,"Novel111",1,"Novel111",1,5287,"eyescenter","4","3",1,0,(Jan 19 2014 10:12:33),TRUE,TRUE,FALSE,4,3
"73","A2E3TO92MCQ9XU","Jan 19 2014","09:59:58",9,0,"Switch",1,"Novel12",1,"Novel106",3,2137,"eyescenter","4","3",1,0,(Jan 19 2014 09:59:58),FALSE,TRUE,TRUE,4,3
"74","A2E3TO92MCQ9XU","Jan 19 2014","09:59:58",10,1,"Same",0,"Novel71",0,"Novel71",3,868,"eyescenter","4","3",1,0,(Jan 19 2014 09:59:58),TRUE,TRUE,FALSE,4,3
"75","A2E3TO92MCQ9XU","Jan 19 2014","09:59:58",11,2,"Switch",0,"Novel127",1,"Novel127",2,2148,"eyescenter","4","3",1,0,(Jan 19 2014 09:59:58),TRUE,TRUE,FALSE,4,3
"76","A2E3TO92MCQ9XU","Jan 19 2014","09:59:58",12,3,"Same",0,"Novel40",0,"Novel40",1,2261,"eyescenter","4","3",1,0,(Jan 19 2014 09:59:58),TRUE,TRUE,FALSE,4,3
"77","A2E3TO92MCQ9XU","Jan 19 2014","09:59:58",17,4,"Switch",1,"Novel126",1,"Novel119",3,2220,"eyescenter","4","3",1,0,(Jan 19 2014 09:59:58),FALSE,TRUE,FALSE,4,3
"78","A2E3TO92MCQ9XU","Jan 19 2014","09:59:58",18,5,"Same",1,"Novel3",0,"Novel47",3,1774,"eyescenter","4","3",1,0,(Jan 19 2014 09:59:58),FALSE,TRUE,FALSE,4,3
"79","A2E3TO92MCQ9XU","Jan 19 2014","09:59:58",19,6,"Switch",0,"Novel41",1,"Novel114",3,2224,"eyescenter","4","3",1,0,(Jan 19 2014 09:59:58),FALSE,TRUE,FALSE,4,3
"80","A2E3TO92MCQ9XU","Jan 19 2014","09:59:58",20,7,"Same",1,"Novel92",2,"Novel16",3,1347,"eyescenter","4","3",1,0,(Jan 19 2014 09:59:58),FALSE,TRUE,FALSE,4,3
"81","A2FYF8ZL5UB00C","Jan 19 2014","10:01:33",9,0,"Switch",0,"Novel27",0,"Novel27",3,2331,"eyescenter","4","3",1,0,(Jan 19 2014 10:01:33),TRUE,TRUE,TRUE,4,3
"82","A2FYF8ZL5UB00C","Jan 19 2014","10:01:33",10,1,"Same",1,"Novel34",0,"Novel34",0,2507,"eyescenter","4","3",1,0,(Jan 19 2014 10:01:33),TRUE,TRUE,FALSE,4,3
"83","A2FYF8ZL5UB00C","Jan 19 2014","10:01:33",11,2,"Switch",1,"Novel132",3,"Novel132",3,1160,"eyescenter","4","3",1,0,(Jan 19 2014 10:01:33),TRUE,TRUE,FALSE,4,3
"84","A2FYF8ZL5UB00C","Jan 19 2014","10:01:33",12,3,"Same",1,"Novel109",2,"Novel109",2,1458,"eyescenter","4","3",1,0,(Jan 19 2014 10:01:33),TRUE,TRUE,FALSE,4,3
"85","A2FYF8ZL5UB00C","Jan 19 2014","10:01:33",17,4,"Switch",1,"Novel88",3,"Novel88",3,1384,"eyescenter","4","3",1,0,(Jan 19 2014 10:01:33),TRUE,TRUE,FALSE,4,3
"86","A2FYF8ZL5UB00C","Jan 19 2014","10:01:33",18,5,"Same",0,"Novel105",2,"Novel105",0,1336,"eyescenter","4","3",1,0,(Jan 19 2014 10:01:33),TRUE,TRUE,FALSE,4,3
"87","A2FYF8ZL5UB00C","Jan 19 2014","10:01:33",19,6,"Switch",0,"Novel114",3,"Novel114",2,1415,"eyescenter","4","3",1,0,(Jan 19 2014 10:01:33),TRUE,TRUE,FALSE,4,3
"88","A2FYF8ZL5UB00C","Jan 19 2014","10:01:33",20,7,"Same",0,"Novel74",0,"Novel74",2,1169,"eyescenter","4","3",1,0,(Jan 19 2014 10:01:33),TRUE,TRUE,FALSE,4,3
"89","A2LIR3SZAE8W1R","Jan 19 2014","10:03:22",9,0,"Switch",1,"Novel117",3,"Novel22",0,3979,"eyescenter","4","3",1,0,(Jan 19 2014 10:03:22),FALSE,TRUE,TRUE,4,3
"90","A2LIR3SZAE8W1R","Jan 19 2014","10:03:22",10,1,"Same",0,"Novel84",2,"Novel63",0,4777,"eyescenter","4","3",1,0,(Jan 19 2014 10:03:22),FALSE,TRUE,FALSE,4,3
"91","A2LIR3SZAE8W1R","Jan 19 2014","10:03:22",11,2,"Switch",1,"Novel68",0,"Novel68",0,3292,"eyescenter","4","3",1,0,(Jan 19 2014 10:03:22),TRUE,TRUE,FALSE,4,3
"92","A2LIR3SZAE8W1R","Jan 19 2014","10:03:22",12,3,"Same",1,"Novel32",3,"Novel32",3,2802,"eyescenter","4","3",1,0,(Jan 19 2014 10:03:22),TRUE,TRUE,FALSE,4,3
"93","A2LIR3SZAE8W1R","Jan 19 2014","10:03:22",17,4,"Switch",0,"Novel120",0,"Novel111",3,4053,"eyescenter","4","3",1,0,(Jan 19 2014 10:03:22),FALSE,TRUE,FALSE,4,3
"94","A2LIR3SZAE8W1R","Jan 19 2014","10:03:22",18,5,"Same",1,"Novel38",3,"Novel11",1,3826,"eyescenter","4","3",1,0,(Jan 19 2014 10:03:22),FALSE,TRUE,FALSE,4,3
"95","A2LIR3SZAE8W1R","Jan 19 2014","10:03:22",19,6,"Switch",0,"Novel70",1,"Novel5",1,4619,"eyescenter","4","3",1,0,(Jan 19 2014 10:03:22),FALSE,TRUE,FALSE,4,3
"96","A2LIR3SZAE8W1R","Jan 19 2014","10:03:22",20,7,"Same",0,"Novel20",1,"Novel17",1,3097,"eyescenter","4","3",1,0,(Jan 19 2014 10:03:22),FALSE,TRUE,FALSE,4,3
"97","A2P1XOJQMC6UGD","Jan 19 2014","10:10:21",9,0,"Same",1,"Novel60",3,"Novel108",1,2865,"eyescenter","4","3",1,0,(Jan 19 2014 10:10:21),FALSE,TRUE,TRUE,4,3
"98","A2P1XOJQMC6UGD","Jan 19 2014","10:10:21",10,1,"Switch",0,"Novel130",3,"Novel39",0,2730,"eyescenter","4","3",1,0,(Jan 19 2014 10:10:21),FALSE,TRUE,FALSE,4,3
"99","A2P1XOJQMC6UGD","Jan 19 2014","10:10:21",11,2,"Same",1,"Novel134",2,"Novel134",2,1227,"eyescenter","4","3",1,0,(Jan 19 2014 10:10:21),TRUE,TRUE,FALSE,4,3
"100","A2P1XOJQMC6UGD","Jan 19 2014","10:10:21",12,3,"Switch",0,"Novel97",2,"Novel126",2,2559,"eyescenter","4","3",1,0,(Jan 19 2014 10:10:21),FALSE,TRUE,FALSE,4,3
"101","A2P1XOJQMC6UGD","Jan 19 2014","10:10:21",17,4,"Same",0,"Novel112",2,"Novel112",1,1754,"eyescenter","4","3",1,0,(Jan 19 2014 10:10:21),TRUE,TRUE,FALSE,4,3
"102","A2P1XOJQMC6UGD","Jan 19 2014","10:10:21",18,5,"Switch",1,"Novel95",2,"Novel54",3,1818,"eyescenter","4","3",1,0,(Jan 19 2014 10:10:21),FALSE,TRUE,FALSE,4,3
"103","A2P1XOJQMC6UGD","Jan 19 2014","10:10:21",19,6,"Same",0,"Novel94",0,"Novel94",3,2694,"eyescenter","4","3",1,0,(Jan 19 2014 10:10:21),TRUE,TRUE,FALSE,4,3
"104","A2P1XOJQMC6UGD","Jan 19 2014","10:10:21",20,7,"Switch",1,"Novel103",1,"Novel131",2,2287,"eyescenter","4","3",1,0,(Jan 19 2014 10:10:21),FALSE,TRUE,FALSE,4,3
"105","A2SL8R5B6QX4Q0","Jan 19 2014","10:09:50",9,0,"Switch",1,"Novel125",1,"Novel104",3,5709,"eyescenter","4","3",1,0,(Jan 19 2014 10:09:50),FALSE,TRUE,TRUE,4,3
"106","A2SL8R5B6QX4Q0","Jan 19 2014","10:09:50",10,1,"Same",0,"Novel27",3,"Novel27",1,2000,"eyescenter","4","3",1,0,(Jan 19 2014 10:09:50),TRUE,TRUE,FALSE,4,3
"107","A2SL8R5B6QX4Q0","Jan 19 2014","10:09:50",11,2,"Switch",1,"Novel107",3,"Novel107",3,5511,"eyescenter","4","3",1,0,(Jan 19 2014 10:09:50),TRUE,TRUE,FALSE,4,3
"108","A2SL8R5B6QX4Q0","Jan 19 2014","10:09:50",12,3,"Same",0,"Novel26",3,"Novel26",1,2006,"eyescenter","4","3",1,0,(Jan 19 2014 10:09:50),TRUE,TRUE,FALSE,4,3
"109","A2SL8R5B6QX4Q0","Jan 19 2014","10:09:50",17,4,"Switch",0,"Novel34",1,"Novel34",2,5335,"eyescenter","4","3",1,0,(Jan 19 2014 10:09:50),TRUE,TRUE,FALSE,4,3
"110","A2SL8R5B6QX4Q0","Jan 19 2014","10:09:50",18,5,"Same",1,"Novel45",2,"Novel45",2,1691,"eyescenter","4","3",1,0,(Jan 19 2014 10:09:50),TRUE,TRUE,FALSE,4,3
"111","A2SL8R5B6QX4Q0","Jan 19 2014","10:09:50",19,6,"Switch",0,"Novel62",3,"Novel62",2,3410,"eyescenter","4","3",1,0,(Jan 19 2014 10:09:50),TRUE,TRUE,FALSE,4,3
"112","A2SL8R5B6QX4Q0","Jan 19 2014","10:09:50",20,7,"Same",1,"Novel44",0,"Novel51",2,2570,"eyescenter","4","3",1,0,(Jan 19 2014 10:09:50),FALSE,TRUE,FALSE,4,3
"113","A2YUSU1QVNIEA8","Jan 19 2014","10:08:56",9,0,"Switch",0,"Novel76",0,"Novel76",2,2816,"eyescenter","4","3",1,0,(Jan 19 2014 10:08:56),TRUE,TRUE,TRUE,4,3
"114","A2YUSU1QVNIEA8","Jan 19 2014","10:08:56",10,1,"Same",1,"Novel19",2,"Novel19",2,3099,"eyescenter","4","3",1,0,(Jan 19 2014 10:08:56),TRUE,TRUE,FALSE,4,3
"115","A2YUSU1QVNIEA8","Jan 19 2014","10:08:56",11,2,"Switch",1,"Novel44",3,"Novel80",0,2605,"eyescenter","4","3",1,0,(Jan 19 2014 10:08:56),FALSE,TRUE,FALSE,4,3
"116","A2YUSU1QVNIEA8","Jan 19 2014","10:08:56",12,3,"Same",1,"Novel47",1,"Novel47",1,4748,"eyescenter","4","3",1,0,(Jan 19 2014 10:08:56),TRUE,TRUE,FALSE,4,3
"117","A2YUSU1QVNIEA8","Jan 19 2014","10:08:56",17,4,"Switch",0,"Novel136",1,"Novel136",0,3434,"eyescenter","4","3",1,0,(Jan 19 2014 10:08:56),TRUE,TRUE,FALSE,4,3
"118","A2YUSU1QVNIEA8","Jan 19 2014","10:08:56",18,5,"Same",0,"Novel38",0,"Novel63",2,1428,"eyescenter","4","3",1,0,(Jan 19 2014 10:08:56),FALSE,TRUE,FALSE,4,3
"119","A2YUSU1QVNIEA8","Jan 19 2014","10:08:56",19,6,"Switch",1,"Novel137",3,"Novel54",2,855,"eyescenter","4","3",1,0,(Jan 19 2014 10:08:56),FALSE,TRUE,FALSE,4,3
"120","A2YUSU1QVNIEA8","Jan 19 2014","10:08:56",20,7,"Same",0,"Novel103",1,"Novel97",2,1049,"eyescenter","4","3",1,0,(Jan 19 2014 10:08:56),FALSE,TRUE,FALSE,4,3
"121","A31A20Z5P0UJBH","Jan 19 2014","10:05:48",9,0,"Switch",0,"Novel41",2,"Novel41",0,1536,"eyescenter","4","3",1,0,(Jan 19 2014 10:05:48),TRUE,TRUE,TRUE,4,3
"122","A31A20Z5P0UJBH","Jan 19 2014","10:05:48",10,1,"Same",1,"Novel10",3,"Novel139",0,1936,"eyescenter","4","3",1,0,(Jan 19 2014 10:05:48),FALSE,TRUE,FALSE,4,3
"123","A31A20Z5P0UJBH","Jan 19 2014","10:05:48",11,2,"Switch",0,"Novel27",1,"Novel39",0,1495,"eyescenter","4","3",1,0,(Jan 19 2014 10:05:48),FALSE,TRUE,FALSE,4,3
"124","A31A20Z5P0UJBH","Jan 19 2014","10:05:48",12,3,"Same",0,"Novel1",1,"Novel50",1,1869,"eyescenter","4","3",1,0,(Jan 19 2014 10:05:48),FALSE,TRUE,FALSE,4,3
"125","A31A20Z5P0UJBH","Jan 19 2014","10:05:48",17,4,"Switch",1,"Novel60",1,"Novel113",2,1355,"eyescenter","4","3",1,0,(Jan 19 2014 10:05:48),FALSE,TRUE,FALSE,4,3
"126","A31A20Z5P0UJBH","Jan 19 2014","10:05:48",18,5,"Same",1,"Novel109",2,"Novel109",2,1647,"eyescenter","4","3",1,0,(Jan 19 2014 10:05:48),TRUE,TRUE,FALSE,4,3
"127","A31A20Z5P0UJBH","Jan 19 2014","10:05:48",19,6,"Switch",1,"Novel48",1,"Novel46",2,2414,"eyescenter","4","3",1,0,(Jan 19 2014 10:05:48),FALSE,TRUE,FALSE,4,3
"128","A31A20Z5P0UJBH","Jan 19 2014","10:05:48",20,7,"Same",0,"Novel89",0,"Novel89",3,1553,"eyescenter","4","3",1,0,(Jan 19 2014 10:05:48),TRUE,TRUE,FALSE,4,3
"129","A3C4FJZQDK2SZX","Jan 19 2014","10:10:20",9,0,"Switch",1,"Novel140",2,"Novel105",0,3820,"eyescenter","4","3",1,0,(Jan 19 2014 10:10:20),FALSE,TRUE,TRUE,4,3
"130","A3C4FJZQDK2SZX","Jan 19 2014","10:10:20",10,1,"Same",0,"Novel120",3,"Novel19",3,3005,"eyescenter","4","3",1,0,(Jan 19 2014 10:10:20),FALSE,TRUE,FALSE,4,3
"131","A3C4FJZQDK2SZX","Jan 19 2014","10:10:20",11,2,"Switch",0,"Novel82",0,"Novel21",0,3118,"eyescenter","4","3",1,0,(Jan 19 2014 10:10:20),FALSE,TRUE,FALSE,4,3
"132","A3C4FJZQDK2SZX","Jan 19 2014","10:10:20",12,3,"Same",1,"Novel51",1,"Novel15",0,2552,"eyescenter","4","3",1,0,(Jan 19 2014 10:10:20),FALSE,TRUE,FALSE,4,3
"133","A3C4FJZQDK2SZX","Jan 19 2014","10:10:20",17,4,"Switch",0,"Novel102",1,"Novel85",1,2451,"eyescenter","4","3",1,0,(Jan 19 2014 10:10:20),FALSE,TRUE,FALSE,4,3
"134","A3C4FJZQDK2SZX","Jan 19 2014","10:10:20",18,5,"Same",1,"Novel126",0,"Novel53",1,2114,"eyescenter","4","3",1,0,(Jan 19 2014 10:10:20),FALSE,TRUE,FALSE,4,3
"135","A3C4FJZQDK2SZX","Jan 19 2014","10:10:20",19,6,"Switch",1,"Novel130",1,"Novel130",1,2042,"eyescenter","4","3",1,0,(Jan 19 2014 10:10:20),TRUE,TRUE,FALSE,4,3
"136","A3C4FJZQDK2SZX","Jan 19 2014","10:10:20",20,7,"Same",0,"Novel44",2,"Novel35",0,1496,"eyescenter","4","3",1,0,(Jan 19 2014 10:10:20),FALSE,TRUE,FALSE,4,3
"137","A3DZ46U9XRLVBI","Jan 19 2014","10:02:56",9,0,"Switch",1,"Novel27",2,"Novel61",0,4709,"eyescenter","4","3",1,0,(Jan 19 2014 10:02:56),FALSE,TRUE,TRUE,4,3
"138","A3DZ46U9XRLVBI","Jan 19 2014","10:02:56",10,1,"Same",0,"Novel131",0,"Novel130",1,3978,"eyescenter","4","3",1,0,(Jan 19 2014 10:02:56),FALSE,TRUE,FALSE,4,3
"139","A3DZ46U9XRLVBI","Jan 19 2014","10:02:56",11,2,"Switch",1,"Novel18",0,"Novel85",2,4593,"eyescenter","4","3",1,0,(Jan 19 2014 10:02:56),FALSE,TRUE,FALSE,4,3
"140","A3DZ46U9XRLVBI","Jan 19 2014","10:02:56",12,3,"Same",1,"Novel60",0,"Novel117",2,2861,"eyescenter","4","3",1,0,(Jan 19 2014 10:02:56),FALSE,TRUE,FALSE,4,3
"141","A3DZ46U9XRLVBI","Jan 19 2014","10:02:56",17,4,"Switch",0,"Novel82",0,"Novel82",2,4050,"eyescenter","4","3",1,0,(Jan 19 2014 10:02:56),TRUE,TRUE,FALSE,4,3
"142","A3DZ46U9XRLVBI","Jan 19 2014","10:02:56",18,5,"Same",0,"Novel71",0,"Novel15",2,3836,"eyescenter","4","3",1,0,(Jan 19 2014 10:02:56),FALSE,TRUE,FALSE,4,3
"143","A3DZ46U9XRLVBI","Jan 19 2014","10:02:56",19,6,"Switch",0,"Novel138",2,"Novel103",2,3274,"eyescenter","4","3",1,0,(Jan 19 2014 10:02:56),FALSE,TRUE,FALSE,4,3
"144","A3DZ46U9XRLVBI","Jan 19 2014","10:02:56",20,7,"Same",1,"Novel53",2,"Novel53",2,2667,"eyescenter","4","3",1,0,(Jan 19 2014 10:02:56),TRUE,TRUE,FALSE,4,3
"145","A3M88KA3AW07B3","Jan 19 2014","10:03:47",9,0,"Same",0,"Novel62",3,"Novel86",3,2263,"eyescenter","4","3",1,0,(Jan 19 2014 10:03:47),FALSE,TRUE,TRUE,4,3
"146","A3M88KA3AW07B3","Jan 19 2014","10:03:47",10,1,"Switch",1,"Novel93",0,"Novel9",3,4229,"eyescenter","4","3",1,0,(Jan 19 2014 10:03:47),FALSE,TRUE,FALSE,4,3
"147","A3M88KA3AW07B3","Jan 19 2014","10:03:47",11,2,"Same",1,"Novel8",3,"Novel8",3,2085,"eyescenter","4","3",1,0,(Jan 19 2014 10:03:47),TRUE,TRUE,FALSE,4,3
"148","A3M88KA3AW07B3","Jan 19 2014","10:03:47",12,3,"Switch",0,"Novel63",0,"Novel124",3,3433,"eyescenter","4","3",1,0,(Jan 19 2014 10:03:47),FALSE,TRUE,FALSE,4,3
"149","A3M88KA3AW07B3","Jan 19 2014","10:03:47",17,4,"Same",0,"Novel29",3,"Novel29",1,2537,"eyescenter","4","3",1,0,(Jan 19 2014 10:03:47),TRUE,TRUE,FALSE,4,3
"150","A3M88KA3AW07B3","Jan 19 2014","10:03:47",18,5,"Switch",1,"Novel3",1,"Novel90",2,2967,"eyescenter","4","3",1,0,(Jan 19 2014 10:03:47),FALSE,TRUE,FALSE,4,3
"151","A3M88KA3AW07B3","Jan 19 2014","10:03:47",19,6,"Same",1,"Novel127",0,"Novel127",0,1582,"eyescenter","4","3",1,0,(Jan 19 2014 10:03:47),TRUE,TRUE,FALSE,4,3
"152","A3M88KA3AW07B3","Jan 19 2014","10:03:47",20,7,"Switch",0,"Novel6",1,"Novel1",1,2082,"eyescenter","4","3",1,0,(Jan 19 2014 10:03:47),FALSE,TRUE,FALSE,4,3
"153","A3ML7X12VHUVUN","Jan 19 2014","10:16:39",9,0,"Same",1,"Novel133",1,"Novel133",1,3003,"eyescenter","4","3",1,0,(Jan 19 2014 10:16:39),TRUE,TRUE,TRUE,4,3
"154","A3ML7X12VHUVUN","Jan 19 2014","10:16:39",10,1,"Switch",0,"Novel21",0,"Novel21",1,2507,"eyescenter","4","3",1,0,(Jan 19 2014 10:16:39),TRUE,TRUE,FALSE,4,3
"155","A3ML7X12VHUVUN","Jan 19 2014","10:16:39",11,2,"Same",0,"Novel49",1,"Novel49",0,2975,"eyescenter","4","3",1,0,(Jan 19 2014 10:16:39),TRUE,TRUE,FALSE,4,3
"156","A3ML7X12VHUVUN","Jan 19 2014","10:16:39",12,3,"Switch",1,"Novel43",0,"Novel43",0,4072,"eyescenter","4","3",1,0,(Jan 19 2014 10:16:39),TRUE,TRUE,FALSE,4,3
"157","A3ML7X12VHUVUN","Jan 19 2014","10:16:39",17,4,"Same",0,"Novel70",3,"Novel70",1,4379,"eyescenter","4","3",1,0,(Jan 19 2014 10:16:39),TRUE,TRUE,FALSE,4,3
"158","A3ML7X12VHUVUN","Jan 19 2014","10:16:39",18,5,"Switch",1,"Novel72",3,"Novel131",0,4529,"eyescenter","4","3",1,0,(Jan 19 2014 10:16:39),FALSE,TRUE,FALSE,4,3
"159","A3ML7X12VHUVUN","Jan 19 2014","10:16:39",19,6,"Same",1,"Novel12",3,"Novel99",2,2344,"eyescenter","4","3",1,0,(Jan 19 2014 10:16:39),FALSE,TRUE,FALSE,4,3
"160","A3ML7X12VHUVUN","Jan 19 2014","10:16:39",20,7,"Switch",0,"Novel7",0,"Novel7",2,3722,"eyescenter","4","3",1,0,(Jan 19 2014 10:16:39),TRUE,TRUE,FALSE,4,3
"161","A3QJPB0NZU5PY1","Jan 19 2014","10:10:16",9,0,"Switch",1,"Novel126",2,"Novel126",2,4655,"eyescenter","4","3",1,0,(Jan 19 2014 10:10:16),TRUE,TRUE,TRUE,4,3
"162","A3QJPB0NZU5PY1","Jan 19 2014","10:10:16",10,1,"Same",0,"Novel5",3,"Novel5",2,3963,"eyescenter","4","3",1,0,(Jan 19 2014 10:10:16),TRUE,TRUE,FALSE,4,3
"163","A3QJPB0NZU5PY1","Jan 19 2014","10:10:16",11,2,"Switch",0,"Novel26",2,"Novel26",0,3771,"eyescenter","4","3",1,0,(Jan 19 2014 10:10:16),TRUE,TRUE,FALSE,4,3
"164","A3QJPB0NZU5PY1","Jan 19 2014","10:10:16",12,3,"Same",0,"Novel22",2,"Novel22",0,2597,"eyescenter","4","3",1,0,(Jan 19 2014 10:10:16),TRUE,TRUE,FALSE,4,3
"165","A3QJPB0NZU5PY1","Jan 19 2014","10:10:16",17,4,"Switch",1,"Novel11",1,"Novel11",1,4223,"eyescenter","4","3",1,0,(Jan 19 2014 10:10:16),TRUE,TRUE,FALSE,4,3
"166","A3QJPB0NZU5PY1","Jan 19 2014","10:10:16",18,5,"Same",1,"Novel54",3,"Novel54",3,2865,"eyescenter","4","3",1,0,(Jan 19 2014 10:10:16),TRUE,TRUE,FALSE,4,3
"167","A3QJPB0NZU5PY1","Jan 19 2014","10:10:16",19,6,"Switch",0,"Novel27",1,"Novel27",0,2070,"eyescenter","4","3",1,0,(Jan 19 2014 10:10:16),TRUE,TRUE,FALSE,4,3
"168","A3QJPB0NZU5PY1","Jan 19 2014","10:10:16",20,7,"Same",1,"Novel100",2,"Novel100",2,3221,"eyescenter","4","3",1,0,(Jan 19 2014 10:10:16),TRUE,TRUE,FALSE,4,3
"169","A3SMTP08PPXDWA","Jan 19 2014","10:09:49",9,0,"Switch",1,"Novel56",1,"Novel56",1,5104,"eyescenter","4","3",1,0,(Jan 19 2014 10:09:49),TRUE,TRUE,TRUE,4,3
"170","A3SMTP08PPXDWA","Jan 19 2014","10:09:49",10,1,"Same",0,"Novel60",3,"Novel60",2,2030,"eyescenter","4","3",1,0,(Jan 19 2014 10:09:49),TRUE,TRUE,FALSE,4,3
"171","A3SMTP08PPXDWA","Jan 19 2014","10:09:49",11,2,"Switch",1,"Novel63",0,"Novel63",0,3183,"eyescenter","4","3",1,0,(Jan 19 2014 10:09:49),TRUE,TRUE,FALSE,4,3
"172","A3SMTP08PPXDWA","Jan 19 2014","10:09:49",12,3,"Same",1,"Novel22",3,"Novel22",3,2279,"eyescenter","4","3",1,0,(Jan 19 2014 10:09:49),TRUE,TRUE,FALSE,4,3
"173","A3SMTP08PPXDWA","Jan 19 2014","10:09:49",17,4,"Switch",0,"Novel69",2,"Novel140",2,2525,"eyescenter","4","3",1,0,(Jan 19 2014 10:09:49),FALSE,TRUE,FALSE,4,3
"174","A3SMTP08PPXDWA","Jan 19 2014","10:09:49",18,5,"Same",1,"Novel4",2,"Novel108",3,5809,"eyescenter","4","3",1,0,(Jan 19 2014 10:09:49),FALSE,TRUE,FALSE,4,3
"175","A3SMTP08PPXDWA","Jan 19 2014","10:09:49",19,6,"Switch",0,"Novel5",0,"Novel76",2,1822,"eyescenter","4","3",1,0,(Jan 19 2014 10:09:49),FALSE,TRUE,FALSE,4,3
"176","A3SMTP08PPXDWA","Jan 19 2014","10:09:49",20,7,"Same",0,"Novel39",1,"Novel42",2,1743,"eyescenter","4","3",1,0,(Jan 19 2014 10:09:49),FALSE,TRUE,FALSE,4,3
"177","A79RJ1TUG4K52","Jan 19 2014","10:03:19",9,0,"Switch",1,"Novel5",0,"Novel38",3,1132,"eyescenter","4","3",1,0,(Jan 19 2014 10:03:19),FALSE,TRUE,TRUE,4,3
"178","A79RJ1TUG4K52","Jan 19 2014","10:03:19",10,1,"Same",1,"Novel27",1,"Novel27",1,1959,"eyescenter","4","3",1,0,(Jan 19 2014 10:03:19),TRUE,TRUE,FALSE,4,3
"179","A79RJ1TUG4K52","Jan 19 2014","10:03:19",11,2,"Switch",1,"Novel111",2,"Novel53",0,4053,"eyescenter","4","3",1,0,(Jan 19 2014 10:03:19),FALSE,TRUE,FALSE,4,3
"180","A79RJ1TUG4K52","Jan 19 2014","10:03:19",12,3,"Same",0,"Novel72",3,"Novel82",1,2343,"eyescenter","4","3",1,0,(Jan 19 2014 10:03:19),FALSE,TRUE,FALSE,4,3
"181","A79RJ1TUG4K52","Jan 19 2014","10:03:19",17,4,"Switch",0,"Novel103",0,"Novel125",3,1458,"eyescenter","4","3",1,0,(Jan 19 2014 10:03:19),FALSE,TRUE,FALSE,4,3
"182","A79RJ1TUG4K52","Jan 19 2014","10:03:19",18,5,"Same",0,"Novel55",2,"Novel131",2,1433,"eyescenter","4","3",1,0,(Jan 19 2014 10:03:19),FALSE,TRUE,FALSE,4,3
"183","A79RJ1TUG4K52","Jan 19 2014","10:03:19",19,6,"Switch",0,"Novel87",2,"Novel87",3,1862,"eyescenter","4","3",1,0,(Jan 19 2014 10:03:19),TRUE,TRUE,FALSE,4,3
"184","A79RJ1TUG4K52","Jan 19 2014","10:03:19",20,7,"Same",1,"Novel101",2,"Novel101",2,734,"eyescenter","4","3",1,0,(Jan 19 2014 10:03:19),TRUE,TRUE,FALSE,4,3
"185","A9HFZID537EXA","Jan 19 2014","10:09:10",9,0,"Same",0,"Novel52",0,"Novel52",1,3042,"eyescenter","4","3",1,0,(Jan 19 2014 10:09:10),TRUE,TRUE,TRUE,4,3
"186","A9HFZID537EXA","Jan 19 2014","10:09:10",10,1,"Switch",1,"Novel21",1,"Novel21",1,2855,"eyescenter","4","3",1,0,(Jan 19 2014 10:09:10),TRUE,TRUE,FALSE,4,3
"187","A9HFZID537EXA","Jan 19 2014","10:09:10",11,2,"Same",0,"Novel41",0,"Novel41",3,1778,"eyescenter","4","3",1,0,(Jan 19 2014 10:09:10),TRUE,TRUE,FALSE,4,3
"188","A9HFZID537EXA","Jan 19 2014","10:09:10",12,3,"Switch",1,"Novel9",1,"Novel9",1,1435,"eyescenter","4","3",1,0,(Jan 19 2014 10:09:10),TRUE,TRUE,FALSE,4,3
"189","A9HFZID537EXA","Jan 19 2014","10:09:10",17,4,"Same",1,"Novel48",1,"Novel98",0,998,"eyescenter","4","3",1,0,(Jan 19 2014 10:09:10),FALSE,TRUE,FALSE,4,3
"190","A9HFZID537EXA","Jan 19 2014","10:09:10",18,5,"Switch",0,"Novel120",3,"Novel133",0,1217,"eyescenter","4","3",1,0,(Jan 19 2014 10:09:10),FALSE,TRUE,FALSE,4,3
"191","A9HFZID537EXA","Jan 19 2014","10:09:10",19,6,"Same",1,"Novel58",0,"Novel58",0,1014,"eyescenter","4","3",1,0,(Jan 19 2014 10:09:10),TRUE,TRUE,FALSE,4,3
"192","A9HFZID537EXA","Jan 19 2014","10:09:10",20,7,"Switch",0,"Novel63",1,"Novel100",3,1794,"eyescenter","4","3",1,0,(Jan 19 2014 10:09:10),FALSE,TRUE,FALSE,4,3
"193","AA0QXH6Y5WN5F","Jan 19 2014","10:12:51",9,0,"Same",0,"Novel1",3,"Novel1",2,3288,"eyescenter","4","3",1,0,(Jan 19 2014 10:12:51),TRUE,TRUE,TRUE,4,3
"194","AA0QXH6Y5WN5F","Jan 19 2014","10:12:51",10,1,"Switch",1,"Novel58",1,"Novel21",0,3670,"eyescenter","4","3",1,0,(Jan 19 2014 10:12:51),FALSE,TRUE,FALSE,4,3
"195","AA0QXH6Y5WN5F","Jan 19 2014","10:12:51",11,2,"Same",1,"Novel123",0,"Novel123",0,2481,"eyescenter","4","3",1,0,(Jan 19 2014 10:12:51),TRUE,TRUE,FALSE,4,3
"196","AA0QXH6Y5WN5F","Jan 19 2014","10:12:51",12,3,"Switch",1,"Novel37",3,"Novel37",3,1534,"eyescenter","4","3",1,0,(Jan 19 2014 10:12:51),TRUE,TRUE,FALSE,4,3
"197","AA0QXH6Y5WN5F","Jan 19 2014","10:12:51",17,4,"Same",0,"Novel70",2,"Novel133",1,2289,"eyescenter","4","3",1,0,(Jan 19 2014 10:12:51),FALSE,TRUE,FALSE,4,3
"198","AA0QXH6Y5WN5F","Jan 19 2014","10:12:51",18,5,"Switch",0,"Novel130",3,"Novel130",1,1284,"eyescenter","4","3",1,0,(Jan 19 2014 10:12:51),TRUE,TRUE,FALSE,4,3
"199","AA0QXH6Y5WN5F","Jan 19 2014","10:12:51",19,6,"Same",1,"Novel140",3,"Novel98",1,1881,"eyescenter","4","3",1,0,(Jan 19 2014 10:12:51),FALSE,TRUE,FALSE,4,3
"200","AA0QXH6Y5WN5F","Jan 19 2014","10:12:51",20,7,"Switch",0,"Novel23",1,"Novel4",0,4235,"eyescenter","4","3",1,0,(Jan 19 2014 10:12:51),FALSE,TRUE,FALSE,4,3
"201","AMSN7LTQJSO07","Jan 19 2014","10:05:07",9,0,"Switch",0,"Novel20",1,"Novel20",0,2296,"eyescenter","4","3",1,0,(Jan 19 2014 10:05:07),TRUE,TRUE,TRUE,4,3
"202","AMSN7LTQJSO07","Jan 19 2014","10:05:07",10,1,"Same",0,"Novel75",0,"Novel75",2,1530,"eyescenter","4","3",1,0,(Jan 19 2014 10:05:07),TRUE,TRUE,FALSE,4,3
"203","AMSN7LTQJSO07","Jan 19 2014","10:05:07",11,2,"Switch",1,"Novel36",1,"Novel36",1,3479,"eyescenter","4","3",1,0,(Jan 19 2014 10:05:07),TRUE,TRUE,FALSE,4,3
"204","AMSN7LTQJSO07","Jan 19 2014","10:05:07",12,3,"Same",1,"Novel88",3,"Novel88",3,1545,"eyescenter","4","3",1,0,(Jan 19 2014 10:05:07),TRUE,TRUE,FALSE,4,3
"205","AMSN7LTQJSO07","Jan 19 2014","10:05:07",17,4,"Switch",1,"Novel33",0,"Novel33",0,3615,"eyescenter","4","3",1,0,(Jan 19 2014 10:05:07),TRUE,TRUE,FALSE,4,3
"206","AMSN7LTQJSO07","Jan 19 2014","10:05:07",18,5,"Same",0,"Novel66",0,"Novel66",1,2927,"eyescenter","4","3",1,0,(Jan 19 2014 10:05:07),TRUE,TRUE,FALSE,4,3
"207","AMSN7LTQJSO07","Jan 19 2014","10:05:07",19,6,"Switch",0,"Novel77",0,"Novel61",0,3713,"eyescenter","4","3",1,0,(Jan 19 2014 10:05:07),FALSE,TRUE,FALSE,4,3
"208","AMSN7LTQJSO07","Jan 19 2014","10:05:07",20,7,"Same",1,"Novel138",2,"Novel138",2,1592,"eyescenter","4","3",1,0,(Jan 19 2014 10:05:07),TRUE,TRUE,FALSE,4,3
"209","AN5EHWR72ELRA","Jan 19 2014","10:10:47",9,0,"Switch",1,"Novel132",3,"Novel54",0,1280,"eyescenter","4","3",1,0,(Jan 19 2014 10:10:47),FALSE,TRUE,TRUE,4,3
"210","AN5EHWR72ELRA","Jan 19 2014","10:10:47",10,1,"Same",1,"Novel129",0,"Novel44",3,3430,"eyescenter","4","3",1,0,(Jan 19 2014 10:10:47),FALSE,TRUE,FALSE,4,3
"211","AN5EHWR72ELRA","Jan 19 2014","10:10:47",11,2,"Switch",1,"Novel51",0,"Novel35",1,975,"eyescenter","4","3",1,0,(Jan 19 2014 10:10:47),FALSE,TRUE,FALSE,4,3
"212","AN5EHWR72ELRA","Jan 19 2014","10:10:47",12,3,"Same",0,"Novel46",1,"Novel60",1,1275,"eyescenter","4","3",1,0,(Jan 19 2014 10:10:47),FALSE,TRUE,FALSE,4,3
"213","AN5EHWR72ELRA","Jan 19 2014","10:10:47",17,4,"Switch",0,"Novel31",1,"Novel74",1,1248,"eyescenter","4","3",1,0,(Jan 19 2014 10:10:47),FALSE,TRUE,FALSE,4,3
"214","AN5EHWR72ELRA","Jan 19 2014","10:10:47",18,5,"Same",1,"Novel63",2,"Novel63",2,1177,"eyescenter","4","3",1,0,(Jan 19 2014 10:10:47),TRUE,TRUE,FALSE,4,3
"215","AN5EHWR72ELRA","Jan 19 2014","10:10:47",19,6,"Switch",0,"Novel39",1,"Novel133",2,1175,"eyescenter","4","3",1,0,(Jan 19 2014 10:10:47),FALSE,TRUE,FALSE,4,3
"216","AN5EHWR72ELRA","Jan 19 2014","10:10:47",20,7,"Same",0,"Novel71",1,"Novel2",3,1466,"eyescenter","4","3",1,0,(Jan 19 2014 10:10:47),FALSE,TRUE,FALSE,4,3
"217","APB2WO5F0WKDH","Jan 19 2014","10:08:55",9,0,"Switch",0,"Novel134",2,"Novel134",3,2090,"eyescenter","4","3",1,0,(Jan 19 2014 10:08:55),TRUE,TRUE,TRUE,4,3
"218","APB2WO5F0WKDH","Jan 19 2014","10:08:55",10,1,"Same",0,"Novel102",1,"Novel102",0,3399,"eyescenter","4","3",1,0,(Jan 19 2014 10:08:55),TRUE,TRUE,FALSE,4,3
"219","APB2WO5F0WKDH","Jan 19 2014","10:08:55",11,2,"Switch",1,"Novel83",2,"Novel83",2,2745,"eyescenter","4","3",1,0,(Jan 19 2014 10:08:55),TRUE,TRUE,FALSE,4,3
"220","APB2WO5F0WKDH","Jan 19 2014","10:08:55",12,3,"Same",1,"Novel116",1,"Novel116",1,3328,"eyescenter","4","3",1,0,(Jan 19 2014 10:08:55),TRUE,TRUE,FALSE,4,3
"221","APB2WO5F0WKDH","Jan 19 2014","10:08:55",17,4,"Switch",1,"Novel68",2,"Novel74",3,2261,"eyescenter","4","3",1,0,(Jan 19 2014 10:08:55),FALSE,TRUE,FALSE,4,3
"222","APB2WO5F0WKDH","Jan 19 2014","10:08:55",18,5,"Same",0,"Novel71",0,"Novel71",3,2023,"eyescenter","4","3",1,0,(Jan 19 2014 10:08:55),TRUE,TRUE,FALSE,4,3
"223","APB2WO5F0WKDH","Jan 19 2014","10:08:55",19,6,"Switch",0,"Novel3",1,"Novel135",3,3413,"eyescenter","4","3",1,0,(Jan 19 2014 10:08:55),FALSE,TRUE,FALSE,4,3
"224","APB2WO5F0WKDH","Jan 19 2014","10:08:55",20,7,"Same",1,"Novel63",0,"Novel63",0,3333,"eyescenter","4","3",1,0,(Jan 19 2014 10:08:55),TRUE,TRUE,FALSE,4,3
"225","AUBUEQNWDNJIH","Jan 19 2014","10:09:08",9,0,"Same",1,"Novel82",1,"Novel82",1,2012,"eyescenter","4","3",1,0,(Jan 19 2014 10:09:08),TRUE,TRUE,TRUE,4,3
"226","AUBUEQNWDNJIH","Jan 19 2014","10:09:08",10,1,"Switch",0,"Novel25",2,"Novel74",0,2162,"eyescenter","4","3",1,0,(Jan 19 2014 10:09:08),FALSE,TRUE,FALSE,4,3
"227","AUBUEQNWDNJIH","Jan 19 2014","10:09:08",11,2,"Same",0,"Novel10",1,"Novel10",2,1276,"eyescenter","4","3",1,0,(Jan 19 2014 10:09:08),TRUE,TRUE,FALSE,4,3
"228","AUBUEQNWDNJIH","Jan 19 2014","10:09:08",12,3,"Switch",1,"Novel45",2,"Novel45",2,2835,"eyescenter","4","3",1,0,(Jan 19 2014 10:09:08),TRUE,TRUE,FALSE,4,3
"229","AUBUEQNWDNJIH","Jan 19 2014","10:09:08",17,4,"Same",0,"Novel8",1,"Novel8",3,1438,"eyescenter","4","3",1,0,(Jan 19 2014 10:09:08),TRUE,TRUE,FALSE,4,3
"230","AUBUEQNWDNJIH","Jan 19 2014","10:09:08",18,5,"Switch",0,"Novel4",3,"Novel58",3,3366,"eyescenter","4","3",1,0,(Jan 19 2014 10:09:08),FALSE,TRUE,FALSE,4,3
"231","AUBUEQNWDNJIH","Jan 19 2014","10:09:08",19,6,"Same",1,"Novel69",0,"Novel69",0,2304,"eyescenter","4","3",1,0,(Jan 19 2014 10:09:08),TRUE,TRUE,FALSE,4,3
"232","AUBUEQNWDNJIH","Jan 19 2014","10:09:08",20,7,"Switch",1,"Novel117",0,"Novel118",2,2262,"eyescenter","4","3",1,0,(Jan 19 2014 10:09:08),FALSE,TRUE,FALSE,4,3
"233","AVFB4H1LXE6XR","Jan 19 2014","10:10:40",9,0,"Same",0,"Novel14",3,"Novel52",2,4532,"eyescenter","4","3",1,0,(Jan 19 2014 10:10:40),FALSE,TRUE,TRUE,4,3
"234","AVFB4H1LXE6XR","Jan 19 2014","10:10:40",10,1,"Switch",1,"Novel112",3,"Novel112",3,3559,"eyescenter","4","3",1,0,(Jan 19 2014 10:10:40),TRUE,TRUE,FALSE,4,3
"235","AVFB4H1LXE6XR","Jan 19 2014","10:10:40",11,2,"Same",0,"Novel115",2,"Novel115",0,1835,"eyescenter","4","3",1,0,(Jan 19 2014 10:10:40),TRUE,TRUE,FALSE,4,3
"236","AVFB4H1LXE6XR","Jan 19 2014","10:10:40",12,3,"Switch",0,"Novel6",1,"Novel6",2,3995,"eyescenter","4","3",1,0,(Jan 19 2014 10:10:40),TRUE,TRUE,FALSE,4,3
"237","AVFB4H1LXE6XR","Jan 19 2014","10:10:40",17,4,"Same",1,"Novel33",1,"Novel4",3,1358,"eyescenter","4","3",1,0,(Jan 19 2014 10:10:40),FALSE,TRUE,FALSE,4,3
"238","AVFB4H1LXE6XR","Jan 19 2014","10:10:40",18,5,"Switch",1,"Novel93",2,"Novel93",2,2605,"eyescenter","4","3",1,0,(Jan 19 2014 10:10:40),TRUE,TRUE,FALSE,4,3
"239","AVFB4H1LXE6XR","Jan 19 2014","10:10:40",19,6,"Same",1,"Novel35",1,"Novel62",3,2417,"eyescenter","4","3",1,0,(Jan 19 2014 10:10:40),FALSE,TRUE,FALSE,4,3
"240","AVFB4H1LXE6XR","Jan 19 2014","10:10:40",20,7,"Switch",0,"Novel67",2,"Novel85",0,2396,"eyescenter","4","3",1,0,(Jan 19 2014 10:10:40),FALSE,TRUE,FALSE,4,3
