subid,gender,age,age_group,condition,trial,itemNum,trialType,samePos,chosen,chosen_idx,kept,kept_idx,rt,faceVid,faceIdx,trial_cat,correct,include,version_expt,condition_expt,faceVid_expo,faceVid_expo_idx1,f,4.1,4,Social,1,0,1,0,flower,1,,0,3805,straightaheadlonger,-1,example,TRUE,0,pilot,social,NA,NA1,f,4.1,4,Social,2,0,1,0,truck,0,,0,1035,straightaheadlonger,-1,example,TRUE,0,pilot,social,NA,NA1,f,4.1,4,Social,3,0,1,0,Novel2,0,Novel2,0,3459,LDkidslonger,0,exposure,TRUE,0,pilot,social,NA,NA1,f,4.1,4,Social,4,0,1,0,Novel2,1,Novel2,0,1897,LDkidslonger,0,test,TRUE,0,pilot,social,NA,NA1,f,4.1,4,Social,5,1,1,1,Novel11,1,Novel5,0,5559,RDkidslonger,1,exposure,TRUE,0,pilot,social,NA,NA1,f,4.1,4,Social,6,1,1,1,Novel13,1,Novel5,0,2076,RDkidslonger,1,test,FALSE,0,pilot,social,NA,NA1,f,4.1,4,Social,7,2,2,1,Novel23,1,Novel6,0,7078,LDkidslonger,0,exposure,FALSE,0,pilot,social,NA,NA1,f,4.1,4,Social,8,2,2,1,Novel6,0,Novel6,0,2398,LDkidslonger,0,test,TRUE,0,pilot,social,NA,NA1,f,4.1,4,Social,9,3,2,0,Novel22,1,Novel4,0,1720,LDkidslonger,0,exposure,FALSE,0,pilot,social,NA,NA1,f,4.1,4,Social,10,3,2,0,Novel7,0,Novel4,0,1803,LDkidslonger,0,test,FALSE,0,pilot,social,NA,NA1,f,4.1,4,Social,11,4,1,[undefined],Novel27,0,Novel27,0,2090,LDkidslonger,0,exposure,TRUE,0,pilot,social,NA,NA1,f,4.1,4,Social,12,4,1,[undefined],Novel25,0,Novel27,0,2192,LDkidslonger,0,test,FALSE,0,pilot,social,NA,NA1,f,4.1,4,Social,13,5,2,[undefined],Novel20,0,Novel20,0,3107,RDkidslonger,1,exposure,FALSE,0,pilot,social,NA,NA1,f,4.1,4,Social,14,5,2,[undefined],Novel8,0,Novel20,0,1568,RDkidslonger,1,test,FALSE,0,pilot,social,NA,NA2,m,3.04,3,Social,1,0,1,1,flower,1,,0,9309,straightaheadlonger,-1,example,TRUE,0,pilot,social,NA,NA2,m,3.04,3,Social,2,0,1,1,truck,0,,0,6663,straightaheadlonger,-1,example,TRUE,0,pilot,social,NA,NA2,m,3.04,3,Social,3,0,1,1,Novel6,1,Novel15,0,27080,RDkidslonger,1,exposure,TRUE,0,pilot,social,NA,NA2,m,3.04,3,Social,4,0,1,1,Novel9,1,Novel15,0,8708,RDkidslonger,1,test,FALSE,0,pilot,social,NA,NA2,m,3.04,3,Social,5,1,1,0,Novel13,0,Novel13,0,10414,LDkidslonger,0,exposure,TRUE,0,pilot,social,NA,NA2,m,3.04,3,Social,6,1,1,0,Novel13,1,Novel13,0,2801,LDkidslonger,0,test,TRUE,0,pilot,social,NA,NA2,m,3.04,3,Social,7,2,2,1,Novel22,0,Novel11,1,9783,RDkidslonger,1,exposure,FALSE,0,pilot,social,NA,NA2,m,3.04,3,Social,8,2,2,1,Novel23,0,Novel11,1,3714,RDkidslonger,1,test,FALSE,0,pilot,social,NA,NA2,m,3.04,3,Social,9,3,2,0,Novel21,0,Novel12,1,9327,LDkidslonger,0,exposure,TRUE,0,pilot,social,NA,NA2,m,3.04,3,Social,10,3,2,0,Novel12,0,Novel12,1,4856,LDkidslonger,0,test,TRUE,0,pilot,social,NA,NA2,m,3.04,3,Social,11,4,1,[undefined],Novel17,0,Novel17,0,10555,RDkidslonger,1,exposure,FALSE,0,pilot,social,NA,NA2,m,3.04,3,Social,12,4,1,[undefined],Novel19,0,Novel17,0,21426,RDkidslonger,1,test,FALSE,0,pilot,social,NA,NA2,m,3.04,3,Social,13,5,2,[undefined],Novel8,0,Novel18,1,7611,LDkidslonger,0,exposure,TRUE,0,pilot,social,NA,NA2,m,3.04,3,Social,14,5,2,[undefined],Novel7,1,Novel18,1,23307,LDkidslonger,0,test,FALSE,0,pilot,social,NA,NA3,f,5.08,5,Social,1,0,1,0,flower,1,,0,8908,straightaheadlonger,-1,example,TRUE,0,pilot,social,NA,NA3,f,5.08,5,Social,2,0,1,0,truck,0,,0,7502,straightaheadlonger,-1,example,TRUE,0,pilot,social,NA,NA3,f,5.08,5,Social,3,0,1,0,Novel24,1,Novel28,0,4402,LDkidslonger,0,exposure,FALSE,0,pilot,social,NA,NA3,f,5.08,5,Social,4,0,1,0,Novel21,0,Novel28,0,8497,LDkidslonger,0,test,FALSE,0,pilot,social,NA,NA3,f,5.08,5,Social,5,1,1,1,Novel27,0,Novel27,0,4382,LDkidslonger,0,exposure,TRUE,0,pilot,social,NA,NA3,f,5.08,5,Social,6,1,1,1,Novel6,1,Novel27,0,2789,LDkidslonger,0,test,FALSE,0,pilot,social,NA,NA3,f,5.08,5,Social,7,2,2,0,Novel23,0,Novel23,0,1875,RDkidslonger,1,exposure,FALSE,0,pilot,social,NA,NA3,f,5.08,5,Social,8,2,2,0,Novel25,0,Novel23,0,4436,RDkidslonger,1,test,FALSE,0,pilot,social,NA,NA3,f,5.08,5,Social,9,3,2,1,Novel9,1,Novel26,0,9164,LDkidslonger,0,exposure,FALSE,0,pilot,social,NA,NA3,f,5.08,5,Social,10,3,2,1,Novel26,0,Novel26,0,2127,LDkidslonger,0,test,TRUE,0,pilot,social,NA,NA3,f,5.08,5,Social,11,4,1,[undefined],Novel7,1,Novel4,0,8135,LDkidslonger,0,exposure,FALSE,0,pilot,social,NA,NA3,f,5.08,5,Social,12,4,1,[undefined],Novel19,0,Novel4,0,7676,LDkidslonger,0,test,FALSE,0,pilot,social,NA,NA3,f,5.08,5,Social,13,5,2,[undefined],Novel22,0,Novel22,0,3420,LDkidslonger,0,exposure,TRUE,0,pilot,social,NA,NA3,f,5.08,5,Social,14,5,2,[undefined],Novel11,0,Novel22,0,8400,LDkidslonger,0,test,FALSE,0,pilot,social,NA,NA4,f,4.09,4,Social,1,0,1,1,flower,1,,0,2147,straightaheadlonger,-1,example,TRUE,0,pilot,social,NA,NA4,f,4.09,4,Social,2,0,1,1,truck,0,,0,1751,straightaheadlonger,-1,example,TRUE,0,pilot,social,NA,NA4,f,4.09,4,Social,3,0,1,1,Novel19,0,Novel19,0,4553,LDkidslonger,0,exposure,TRUE,0,pilot,social,NA,NA4,f,4.09,4,Social,4,0,1,1,Novel19,0,Novel19,0,3707,LDkidslonger,0,test,TRUE,0,pilot,social,NA,NA4,f,4.09,4,Social,5,1,1,0,Novel26,0,Novel26,0,2103,RDkidslonger,1,exposure,FALSE,0,pilot,social,NA,NA4,f,4.09,4,Social,6,1,1,0,Novel26,1,Novel26,0,1165,RDkidslonger,1,test,TRUE,0,pilot,social,NA,NA4,f,4.09,4,Social,7,2,2,0,Novel21,1,Novel21,1,5354,RDkidslonger,1,exposure,TRUE,0,pilot,social,NA,NA4,f,4.09,4,Social,8,2,2,0,Novel21,0,Novel21,1,1166,RDkidslonger,1,test,TRUE,0,pilot,social,NA,NA4,f,4.09,4,Social,9,3,2,1,Novel24,1,Novel24,1,2067,LDkidslonger,0,exposure,FALSE,0,pilot,social,NA,NA4,f,4.09,4,Social,10,3,2,1,Novel24,1,Novel24,1,2029,LDkidslonger,0,test,TRUE,0,pilot,social,NA,NA4,f,4.09,4,Social,11,4,1,[undefined],Novel17,1,Novel23,0,1702,RDkidslonger,1,exposure,TRUE,0,pilot,social,NA,NA4,f,4.09,4,Social,12,4,1,[undefined],Novel23,1,Novel23,0,7442,RDkidslonger,1,test,TRUE,0,pilot,social,NA,NA4,f,4.09,4,Social,13,5,2,[undefined],Novel18,0,Novel18,0,4781,RDkidslonger,1,exposure,FALSE,0,pilot,social,NA,NA4,f,4.09,4,Social,14,5,2,[undefined],Novel18,1,Novel18,0,1341,RDkidslonger,1,test,TRUE,0,pilot,social,NA,NA5,f,5.02,5,Social,1,0,1,1,flower,1,,0,2422,straightaheadlonger,-1,example,TRUE,1,v1,social,NA,NA5,f,5.02,5,Social,2,0,1,1,truck,0,,0,5608,straightaheadlonger,-1,example,TRUE,1,v1,social,NA,NA5,f,5.02,5,Social,3,0,1,1,Novel26,1,Novel28,0,4342,RDkidslonger,1,exposure,TRUE,1,v1,social,NA,NA5,f,5.02,5,Social,4,0,1,1,Novel12,1,Novel28,0,13488,RDkidslonger,1,test,FALSE,1,v1,social,NA,NA5,f,5.02,5,Social,5,1,1,0,Novel17,0,Novel17,0,4359,LDkidslonger,0,exposure,TRUE,1,v1,social,NA,NA5,f,5.02,5,Social,6,1,1,0,Novel17,1,Novel17,0,2751,LDkidslonger,0,test,TRUE,1,v1,social,NA,NA5,f,5.02,5,Social,7,2,2,1,Novel13,1,Novel23,0,1508,RDkidslonger,1,exposure,TRUE,1,v1,social,NA,NA5,f,5.02,5,Social,8,2,2,1,Novel14,1,Novel23,0,1472,RDkidslonger,1,test,FALSE,1,v1,social,NA,NA5,f,5.02,5,Social,9,3,2,0,Novel9,0,Novel24,1,1553,LDkidslonger,0,exposure,TRUE,1,v1,social,NA,NA5,f,5.02,5,Social,10,3,2,0,Novel24,0,Novel24,1,1047,LDkidslonger,0,test,TRUE,1,v1,social,NA,NA5,f,5.02,5,Social,11,4,1,1,Novel16,1,Novel18,0,986,RDkidslonger,1,exposure,TRUE,1,v1,social,NA,NA5,f,5.02,5,Social,12,4,1,1,Novel15,1,Novel18,0,1341,RDkidslonger,1,test,FALSE,1,v1,social,NA,NA5,f,5.02,5,Social,13,5,2,0,Novel22,0,Novel5,1,1758,LDkidslonger,0,exposure,TRUE,1,v1,social,NA,NA5,f,5.02,5,Social,14,5,2,0,Novel5,0,Novel5,1,7918,LDkidslonger,0,test,TRUE,1,v1,social,NA,NA6,m,5.01,5,Social,1,0,1,1,flower,1,,0,5343,straightaheadlonger,-1,example,TRUE,1,v1,social,NA,NA6,m,5.01,5,Social,2,0,1,1,truck,0,,0,1890,straightaheadlonger,-1,example,TRUE,1,v1,social,NA,NA6,m,5.01,5,Social,3,0,1,1,Novel17,0,Novel17,0,1844,LDkidslonger,0,exposure,TRUE,1,v1,social,NA,NA6,m,5.01,5,Social,4,0,1,1,Novel17,0,Novel17,0,1836,LDkidslonger,0,test,TRUE,1,v1,social,NA,NA6,m,5.01,5,Social,5,1,1,0,Novel6,0,Novel6,0,1581,LDkidslonger,0,exposure,TRUE,1,v1,social,NA,NA6,m,5.01,5,Social,6,1,1,0,Novel6,1,Novel6,0,4917,LDkidslonger,0,test,TRUE,1,v1,social,NA,NA6,m,5.01,5,Social,7,2,2,1,Novel7,0,Novel3,1,937,LDkidslonger,0,exposure,TRUE,1,v1,social,NA,NA6,m,5.01,5,Social,8,2,2,1,Novel28,0,Novel3,1,3092,LDkidslonger,0,test,FALSE,1,v1,social,NA,NA6,m,5.01,5,Social,9,3,2,0,Novel4,1,Novel10,0,1170,RDkidslonger,1,exposure,TRUE,1,v1,social,NA,NA6,m,5.01,5,Social,10,3,2,0,Novel10,1,Novel10,0,1827,RDkidslonger,1,test,TRUE,1,v1,social,NA,NA6,m,5.01,5,Social,11,4,1,1,Novel15,0,Novel15,0,1472,LDkidslonger,0,exposure,TRUE,1,v1,social,NA,NA6,m,5.01,5,Social,12,4,1,1,Novel15,0,Novel15,0,441,LDkidslonger,0,test,TRUE,1,v1,social,NA,NA6,m,5.01,5,Social,13,5,2,0,Novel16,1,Novel16,1,1355,RDkidslonger,1,exposure,TRUE,1,v1,social,NA,NA6,m,5.01,5,Social,14,5,2,0,Novel16,0,Novel16,1,2080,RDkidslonger,1,test,TRUE,1,v1,social,NA,NA7,f,4.08,4,Social,1,0,1,1,flower,1,,0,695,straightaheadlonger,-1,example,TRUE,1,v1,social,NA,NA7,f,4.08,4,Social,2,0,1,1,truck,0,,0,1886,straightaheadlonger,-1,example,TRUE,1,v1,social,NA,NA7,f,4.08,4,Social,3,0,1,1,Novel5,1,Novel28,0,2102,RDkidslonger,1,exposure,TRUE,1,v1,social,NA,NA7,f,4.08,4,Social,4,0,1,1,Novel16,1,Novel28,0,1916,RDkidslonger,1,test,FALSE,1,v1,social,NA,NA7,f,4.08,4,Social,5,1,1,0,Novel14,0,Novel14,0,2162,RDkidslonger,1,exposure,FALSE,1,v1,social,NA,NA7,f,4.08,4,Social,6,1,1,0,Novel13,0,Novel14,0,1155,RDkidslonger,1,test,FALSE,1,v1,social,NA,NA7,f,4.08,4,Social,7,2,2,0,Novel21,0,Novel11,1,2515,LDkidslonger,0,exposure,TRUE,1,v1,social,NA,NA7,f,4.08,4,Social,8,2,2,0,Novel11,0,Novel11,1,2023,LDkidslonger,0,test,TRUE,1,v1,social,NA,NA7,f,4.08,4,Social,9,3,2,1,Novel17,0,Novel17,0,1754,LDkidslonger,0,exposure,TRUE,1,v1,social,NA,NA7,f,4.08,4,Social,10,3,2,1,Novel17,0,Novel17,0,867,LDkidslonger,0,test,TRUE,1,v1,social,NA,NA7,f,4.08,4,Social,11,4,1,1,Novel22,1,Novel12,0,1327,RDkidslonger,1,exposure,TRUE,1,v1,social,NA,NA7,f,4.08,4,Social,12,4,1,1,Novel12,0,Novel12,0,1209,RDkidslonger,1,test,TRUE,1,v1,social,NA,NA7,f,4.08,4,Social,13,5,2,0,Novel19,1,Novel19,1,866,RDkidslonger,1,exposure,TRUE,1,v1,social,NA,NA7,f,4.08,4,Social,14,5,2,0,Novel6,1,Novel19,1,1881,RDkidslonger,1,test,FALSE,1,v1,social,NA,NA8,f,4,3,Social,1,0,1,0,flower,1,,0,8374,straightaheadlonger,-1,example,TRUE,1,v1,social,NA,NA8,f,4,3,Social,2,0,1,0,truck,0,,0,2418,straightaheadlonger,-1,example,TRUE,1,v1,social,NA,NA8,f,4,3,Social,3,0,1,0,Novel22,1,Novel19,0,3265,RDkidslonger,1,exposure,TRUE,1,v1,social,NA,NA8,f,4,3,Social,4,0,1,0,Novel19,1,Novel19,0,4361,RDkidslonger,1,test,TRUE,1,v1,social,NA,NA8,f,4,3,Social,5,1,1,1,Novel18,0,Novel18,0,1676,LDkidslonger,0,exposure,TRUE,1,v1,social,NA,NA8,f,4,3,Social,6,1,1,1,Novel18,0,Novel18,0,3084,LDkidslonger,0,test,TRUE,1,v1,social,NA,NA8,f,4,3,Social,7,2,2,1,Novel25,0,Novel25,0,2079,LDkidslonger,0,exposure,TRUE,1,v1,social,NA,NA8,f,4,3,Social,8,2,2,1,Novel25,0,Novel25,0,1441,LDkidslonger,0,test,TRUE,1,v1,social,NA,NA8,f,4,3,Social,9,3,2,0,Novel3,1,Novel3,1,1655,RDkidslonger,1,exposure,TRUE,1,v1,social,NA,NA8,f,4,3,Social,10,3,2,0,Novel3,0,Novel3,1,2667,RDkidslonger,1,test,TRUE,1,v1,social,NA,NA8,f,4,3,Social,11,4,1,0,Novel20,0,Novel20,0,2263,LDkidslonger,0,exposure,TRUE,1,v1,social,NA,NA8,f,4,3,Social,12,4,1,0,Novel14,0,Novel20,0,1530,LDkidslonger,0,test,FALSE,1,v1,social,NA,NA8,f,4,3,Social,13,5,2,1,Novel27,1,Novel1,0,1436,RDkidslonger,1,exposure,TRUE,1,v1,social,NA,NA8,f,4,3,Social,14,5,2,1,Novel8,1,Novel1,0,6087,RDkidslonger,1,test,FALSE,1,v1,social,NA,NA9,m,4.02,4,No-social,1,0,1,0,flower,1,,0,1454,straightaheadlonger,-1,example,TRUE,1,v1,no-social,NA,NA9,m,4.02,4,No-social,2,0,1,0,truck,0,,0,798,straightaheadlonger,-1,example,TRUE,1,v1,no-social,NA,NA9,m,4.02,4,No-social,3,0,1,0,Novel16,0,Novel16,0,8365,straightaheadlonger,-1,exposure,FALSE,1,v1,no-social,NA,NA9,m,4.02,4,No-social,4,0,1,0,Novel16,1,Novel16,0,1930,straightaheadlonger,-1,test,TRUE,1,v1,no-social,NA,NA9,m,4.02,4,No-social,5,1,1,1,Novel17,0,Novel17,0,4160,straightaheadlonger,-1,exposure,FALSE,1,v1,no-social,NA,NA9,m,4.02,4,No-social,6,1,1,1,Novel17,0,Novel17,0,3406,straightaheadlonger,-1,test,TRUE,1,v1,no-social,NA,NA9,m,4.02,4,No-social,7,2,2,0,Novel2,1,Novel9,0,1520,straightaheadlonger,-1,exposure,FALSE,1,v1,no-social,NA,NA9,m,4.02,4,No-social,8,2,2,0,Novel6,0,Novel9,0,3686,straightaheadlonger,-1,test,FALSE,1,v1,no-social,NA,NA9,m,4.02,4,No-social,9,3,2,1,Novel18,1,Novel4,0,1338,straightaheadlonger,-1,exposure,FALSE,1,v1,no-social,NA,NA9,m,4.02,4,No-social,10,3,2,1,Novel28,1,Novel4,0,1839,straightaheadlonger,-1,test,FALSE,1,v1,no-social,NA,NA9,m,4.02,4,No-social,11,4,1,0,Novel1,1,Novel13,0,1514,straightaheadlonger,-1,exposure,FALSE,1,v1,no-social,NA,NA9,m,4.02,4,No-social,12,4,1,0,Novel13,1,Novel13,0,4052,straightaheadlonger,-1,test,TRUE,1,v1,no-social,NA,NA9,m,4.02,4,No-social,13,5,2,1,Novel23,1,Novel21,0,2090,straightaheadlonger,-1,exposure,FALSE,1,v1,no-social,NA,NA9,m,4.02,4,No-social,14,5,2,1,Novel15,1,Novel21,0,1102,straightaheadlonger,-1,test,FALSE,1,v1,no-social,NA,NA10,m,4,4,No-social,1,0,1,0,lion,0,,0,5883,straightaheadlonger,-1,example,TRUE,1,v1,no-social,NA,NA10,m,4,4,No-social,2,0,1,0,truck,0,,0,7658,straightaheadlonger,-1,example,TRUE,1,v1,no-social,NA,NA10,m,4,4,No-social,3,0,1,0,Novel8,0,Novel8,0,13285,straightaheadlonger,-1,exposure,FALSE,1,v1,no-social,NA,NA10,m,4,4,No-social,4,0,1,0,Novel8,1,Novel8,0,8687,straightaheadlonger,-1,test,TRUE,1,v1,no-social,NA,NA10,m,4,4,No-social,5,1,1,1,Novel11,1,Novel9,0,9584,straightaheadlonger,-1,exposure,FALSE,1,v1,no-social,NA,NA10,m,4,4,No-social,6,1,1,1,Novel9,0,Novel9,0,3547,straightaheadlonger,-1,test,TRUE,1,v1,no-social,NA,NA10,m,4,4,No-social,7,2,2,1,Novel5,1,Novel20,0,4982,straightaheadlonger,-1,exposure,FALSE,1,v1,no-social,NA,NA10,m,4,4,No-social,8,2,2,1,Novel2,1,Novel20,0,9175,straightaheadlonger,-1,test,FALSE,1,v1,no-social,NA,NA10,m,4,4,No-social,9,3,2,0,Novel24,0,Novel24,0,6637,straightaheadlonger,-1,exposure,FALSE,1,v1,no-social,NA,NA10,m,4,4,No-social,10,3,2,0,Novel22,0,Novel24,0,2808,straightaheadlonger,-1,test,FALSE,1,v1,no-social,NA,NA10,m,4,4,No-social,11,4,1,0,Novel23,1,Novel28,0,4215,straightaheadlonger,-1,exposure,FALSE,1,v1,no-social,NA,NA10,m,4,4,No-social,12,4,1,0,Novel27,0,Novel28,0,6677,straightaheadlonger,-1,test,FALSE,1,v1,no-social,NA,NA10,m,4,4,No-social,13,5,2,1,Novel17,1,Novel17,1,10058,straightaheadlonger,-1,exposure,FALSE,1,v1,no-social,NA,NA10,m,4,4,No-social,14,5,2,1,Novel17,1,Novel17,1,5001,straightaheadlonger,-1,test,TRUE,1,v1,no-social,NA,NA11,f,4.3,4,No-social,1,0,1,0,flower,1,,0,12055,straightaheadlonger,-1,example,TRUE,1,v1,no-social,NA,NA11,f,4.3,4,No-social,2,0,1,0,truck,0,,0,4223,straightaheadlonger,-1,example,TRUE,1,v1,no-social,NA,NA11,f,4.3,4,No-social,3,0,1,0,Novel4,0,Novel4,0,11311,straightaheadlonger,-1,exposure,FALSE,1,v1,no-social,NA,NA11,f,4.3,4,No-social,4,0,1,0,Novel4,1,Novel4,0,2720,straightaheadlonger,-1,test,TRUE,1,v1,no-social,NA,NA11,f,4.3,4,No-social,5,1,1,1,Novel6,1,Novel15,0,8890,straightaheadlonger,-1,exposure,FALSE,1,v1,no-social,NA,NA11,f,4.3,4,No-social,6,1,1,1,Novel15,0,Novel15,0,2492,straightaheadlonger,-1,test,TRUE,1,v1,no-social,NA,NA11,f,4.3,4,No-social,7,2,2,1,Novel11,1,Novel3,0,10099,straightaheadlonger,-1,exposure,FALSE,1,v1,no-social,NA,NA11,f,4.3,4,No-social,8,2,2,1,Novel3,0,Novel3,0,5466,straightaheadlonger,-1,test,TRUE,1,v1,no-social,NA,NA11,f,4.3,4,No-social,9,3,2,0,Novel22,0,Novel28,1,2972,straightaheadlonger,-1,exposure,FALSE,1,v1,no-social,NA,NA11,f,4.3,4,No-social,10,3,2,0,Novel28,0,Novel28,1,5831,straightaheadlonger,-1,test,TRUE,1,v1,no-social,NA,NA11,f,4.3,4,No-social,11,4,1,0,Novel25,0,Novel25,0,4726,straightaheadlonger,-1,exposure,FALSE,1,v1,no-social,NA,NA11,f,4.3,4,No-social,12,4,1,0,Novel25,1,Novel25,0,12971,straightaheadlonger,-1,test,TRUE,1,v1,no-social,NA,NA11,f,4.3,4,No-social,13,5,2,1,Novel13,1,Novel13,1,1370,straightaheadlonger,-1,exposure,FALSE,1,v1,no-social,NA,NA11,f,4.3,4,No-social,14,5,2,1,Novel13,1,Novel13,1,802,straightaheadlonger,-1,test,TRUE,1,v1,no-social,NA,NA12,f,4.01,4,Social,1,0,1,0,flower,1,,0,2707,straightaheadlonger,-1,example,TRUE,1,v1,social,NA,NA12,f,4.01,4,Social,2,0,1,0,truck,0,,0,1320,straightaheadlonger,-1,example,TRUE,1,v1,social,NA,NA12,f,4.01,4,Social,3,0,1,0,Novel25,1,Novel10,0,10954,RDkidslonger,1,exposure,TRUE,1,v1,social,NA,NA12,f,4.01,4,Social,4,0,1,0,Novel14,0,Novel10,0,8861,RDkidslonger,1,test,FALSE,1,v1,social,NA,NA12,f,4.01,4,Social,5,1,1,1,Novel26,1,Novel6,0,3714,LDkidslonger,0,exposure,FALSE,1,v1,social,NA,NA12,f,4.01,4,Social,6,1,1,1,Novel6,0,Novel6,0,24108,LDkidslonger,0,test,TRUE,1,v1,social,NA,NA12,f,4.01,4,Social,7,2,2,0,Novel1,0,Novel19,1,3809,LDkidslonger,0,exposure,TRUE,1,v1,social,NA,NA12,f,4.01,4,Social,8,2,2,0,Novel19,0,Novel19,1,7243,LDkidslonger,0,test,TRUE,1,v1,social,NA,NA12,f,4.01,4,Social,9,3,2,1,Novel3,0,Novel13,1,3421,LDkidslonger,0,exposure,TRUE,1,v1,social,NA,NA12,f,4.01,4,Social,10,3,2,1,Novel15,0,Novel13,1,5473,LDkidslonger,0,test,FALSE,1,v1,social,NA,NA12,f,4.01,4,Social,11,4,1,0,Novel5,1,Novel27,0,8877,LDkidslonger,0,exposure,FALSE,1,v1,social,NA,NA12,f,4.01,4,Social,12,4,1,0,Novel20,0,Novel27,0,14787,LDkidslonger,0,test,FALSE,1,v1,social,NA,NA12,f,4.01,4,Social,13,5,2,1,Novel28,0,Novel4,1,5994,LDkidslonger,0,exposure,TRUE,1,v1,social,NA,NA12,f,4.01,4,Social,14,5,2,1,Novel7,0,Novel4,1,12408,LDkidslonger,0,test,FALSE,1,v1,social,NA,NA13,m,4.02,4,Social,1,0,1,1,flower,1,,0,5637,straightaheadlonger,-1,example,TRUE,1,v1,social,NA,NA13,m,4.02,4,Social,2,0,1,1,truck,0,,0,5696,straightaheadlonger,-1,example,TRUE,1,v1,social,NA,NA13,m,4.02,4,Social,3,0,1,1,Novel21,0,Novel21,0,6503,LDkidslonger,0,exposure,TRUE,1,v1,social,NA,NA13,m,4.02,4,Social,4,0,1,1,Novel21,0,Novel21,0,5273,LDkidslonger,0,test,TRUE,1,v1,social,NA,NA13,m,4.02,4,Social,5,1,1,0,Novel18,0,Novel18,0,1394,LDkidslonger,0,exposure,TRUE,1,v1,social,NA,NA13,m,4.02,4,Social,6,1,1,0,Novel18,1,Novel18,0,4209,LDkidslonger,0,test,TRUE,1,v1,social,NA,NA13,m,4.02,4,Social,7,2,2,0,Novel7,1,Novel7,1,3412,RDkidslonger,1,exposure,TRUE,1,v1,social,NA,NA13,m,4.02,4,Social,8,2,2,0,Novel7,0,Novel7,1,13936,RDkidslonger,1,test,TRUE,1,v1,social,NA,NA13,m,4.02,4,Social,9,3,2,1,Novel9,1,Novel9,1,4405,RDkidslonger,1,exposure,TRUE,1,v1,social,NA,NA13,m,4.02,4,Social,10,3,2,1,Novel9,1,Novel9,1,1890,RDkidslonger,1,test,TRUE,1,v1,social,NA,NA13,m,4.02,4,Social,11,4,1,1,Novel5,0,Novel5,0,2695,LDkidslonger,0,exposure,TRUE,1,v1,social,NA,NA13,m,4.02,4,Social,12,4,1,1,Novel5,0,Novel5,0,1518,LDkidslonger,0,test,TRUE,1,v1,social,NA,NA13,m,4.02,4,Social,13,5,2,0,Novel27,1,Novel27,1,1880,RDkidslonger,1,exposure,TRUE,1,v1,social,NA,NA13,m,4.02,4,Social,14,5,2,0,Novel27,0,Novel27,1,19979,RDkidslonger,1,test,TRUE,1,v1,social,NA,NA14,f,5.01,4,No-social,1,0,1,1,flower,1,,0,2951,straightaheadlonger,-1,example,TRUE,1,v1,no-social,NA,NA14,f,5.01,4,No-social,2,0,1,1,truck,0,,0,2074,straightaheadlonger,-1,example,TRUE,1,v1,no-social,NA,NA14,f,5.01,4,No-social,3,0,1,1,Novel3,1,Novel18,0,7384,straightaheadlonger,-1,exposure,FALSE,1,v1,no-social,NA,NA14,f,5.01,4,No-social,4,0,1,1,Novel19,1,Novel18,0,4408,straightaheadlonger,-1,test,FALSE,1,v1,no-social,NA,NA14,f,5.01,4,No-social,5,1,1,0,Novel15,0,Novel15,0,8123,straightaheadlonger,-1,exposure,FALSE,1,v1,no-social,NA,NA14,f,5.01,4,No-social,6,1,1,0,Novel15,1,Novel15,0,4669,straightaheadlonger,-1,test,TRUE,1,v1,no-social,NA,NA14,f,5.01,4,No-social,7,2,2,0,Novel27,1,Novel28,0,6685,straightaheadlonger,-1,exposure,FALSE,1,v1,no-social,NA,NA14,f,5.01,4,No-social,8,2,2,0,Novel24,0,Novel28,0,5645,straightaheadlonger,-1,test,FALSE,1,v1,no-social,NA,NA14,f,5.01,4,No-social,9,3,2,1,Novel14,1,Novel25,0,4980,straightaheadlonger,-1,exposure,FALSE,1,v1,no-social,NA,NA14,f,5.01,4,No-social,10,3,2,1,Novel7,1,Novel25,0,4536,straightaheadlonger,-1,test,FALSE,1,v1,no-social,NA,NA14,f,5.01,4,No-social,11,4,1,1,Novel9,0,Novel9,0,5230,straightaheadlonger,-1,exposure,FALSE,1,v1,no-social,NA,NA14,f,5.01,4,No-social,12,4,1,1,Novel9,0,Novel9,0,3151,straightaheadlonger,-1,test,TRUE,1,v1,no-social,NA,NA14,f,5.01,4,No-social,13,5,2,0,Novel13,0,Novel13,0,4049,straightaheadlonger,-1,exposure,FALSE,1,v1,no-social,NA,NA14,f,5.01,4,No-social,14,5,2,0,Novel13,1,Novel13,0,2029,straightaheadlonger,-1,test,TRUE,1,v1,no-social,NA,NA15,f,5.02,5,Social,1,0,1,1,flower,1,,0,5568,straightaheadlonger,-1,example,TRUE,1,v1,social,NA,NA15,f,5.02,5,Social,2,0,1,1,truck,0,,0,1244,straightaheadlonger,-1,example,TRUE,1,v1,social,NA,NA15,f,5.02,5,Social,3,0,1,1,Novel27,0,Novel27,0,12960,LDkidslonger,0,exposure,TRUE,1,v1,social,NA,NA15,f,5.02,5,Social,4,0,1,1,Novel27,0,Novel27,0,6785,LDkidslonger,0,test,TRUE,1,v1,social,NA,NA15,f,5.02,5,Social,5,1,1,0,Novel15,1,Novel20,0,4197,RDkidslonger,1,exposure,TRUE,1,v1,social,NA,NA15,f,5.02,5,Social,6,1,1,0,Novel10,0,Novel20,0,5257,RDkidslonger,1,test,FALSE,1,v1,social,NA,NA15,f,5.02,5,Social,7,2,2,1,Novel1,0,Novel21,1,6762,LDkidslonger,0,exposure,TRUE,1,v1,social,NA,NA15,f,5.02,5,Social,8,2,2,1,Novel21,1,Novel21,1,8114,LDkidslonger,0,test,TRUE,1,v1,social,NA,NA15,f,5.02,5,Social,9,3,2,0,Novel5,0,Novel12,1,1359,LDkidslonger,0,exposure,TRUE,1,v1,social,NA,NA15,f,5.02,5,Social,10,3,2,0,Novel12,0,Novel12,1,3571,LDkidslonger,0,test,TRUE,1,v1,social,NA,NA15,f,5.02,5,Social,11,4,1,1,Novel18,0,Novel18,0,1824,LDkidslonger,0,exposure,TRUE,1,v1,social,NA,NA15,f,5.02,5,Social,12,4,1,1,Novel18,0,Novel18,0,1198,LDkidslonger,0,test,TRUE,1,v1,social,NA,NA15,f,5.02,5,Social,13,5,2,0,Novel24,0,Novel11,1,980,LDkidslonger,0,exposure,TRUE,1,v1,social,NA,NA15,f,5.02,5,Social,14,5,2,0,Novel11,0,Novel11,1,5009,LDkidslonger,0,test,TRUE,1,v1,social,NA,NA16,m,5.01,5,No-social,1,0,1,1,flower,1,,0,1302,straightaheadlonger,-1,example,TRUE,1,v1,no-social,NA,NA16,m,5.01,5,No-social,2,0,1,1,truck,0,,0,1899,straightaheadlonger,-1,example,TRUE,1,v1,no-social,NA,NA16,m,5.01,5,No-social,3,0,1,1,Novel5,1,Novel3,0,9343,straightaheadlonger,-1,exposure,FALSE,1,v1,no-social,NA,NA16,m,5.01,5,No-social,4,0,1,1,Novel10,1,Novel3,0,3706,straightaheadlonger,-1,test,FALSE,1,v1,no-social,NA,NA16,m,5.01,5,No-social,5,1,1,0,Novel15,1,Novel19,0,2707,straightaheadlonger,-1,exposure,FALSE,1,v1,no-social,NA,NA16,m,5.01,5,No-social,6,1,1,0,Novel19,1,Novel19,0,1133,straightaheadlonger,-1,test,TRUE,1,v1,no-social,NA,NA16,m,5.01,5,No-social,7,2,2,0,Novel18,1,Novel26,0,2042,straightaheadlonger,-1,exposure,FALSE,1,v1,no-social,NA,NA16,m,5.01,5,No-social,8,2,2,0,Novel20,0,Novel26,0,3804,straightaheadlonger,-1,test,FALSE,1,v1,no-social,NA,NA16,m,5.01,5,No-social,9,3,2,1,Novel4,0,Novel23,1,8511,straightaheadlonger,-1,exposure,FALSE,1,v1,no-social,NA,NA16,m,5.01,5,No-social,10,3,2,1,Novel21,0,Novel23,1,1219,straightaheadlonger,-1,test,FALSE,1,v1,no-social,NA,NA16,m,5.01,5,No-social,11,4,1,1,Novel1,0,Novel1,0,1196,straightaheadlonger,-1,exposure,FALSE,1,v1,no-social,NA,NA16,m,5.01,5,No-social,12,4,1,1,Novel1,0,Novel1,0,1611,straightaheadlonger,-1,test,TRUE,1,v1,no-social,NA,NA16,m,5.01,5,No-social,13,5,2,0,Novel24,0,Novel11,1,1765,straightaheadlonger,-1,exposure,FALSE,1,v1,no-social,NA,NA16,m,5.01,5,No-social,14,5,2,0,Novel11,0,Novel11,1,1070,straightaheadlonger,-1,test,TRUE,1,v1,no-social,NA,NA17,m,3.11,3,Social,1,0,1,0,flower,1,,0,9574,straightaheadlonger,-1,example,TRUE,1,v1,social,NA,NA17,m,3.11,3,Social,2,0,1,0,truck,0,,0,2025,straightaheadlonger,-1,example,TRUE,1,v1,social,NA,NA17,m,3.11,3,Social,3,0,1,0,Novel3,0,Novel3,0,1469,LDkidslonger,0,exposure,TRUE,1,v1,social,NA,NA17,m,3.11,3,Social,4,0,1,0,Novel3,1,Novel3,0,2225,LDkidslonger,0,test,TRUE,1,v1,social,NA,NA17,m,3.11,3,Social,5,1,1,1,Novel23,0,Novel23,0,3084,LDkidslonger,0,exposure,TRUE,1,v1,social,NA,NA17,m,3.11,3,Social,6,1,1,1,Novel23,0,Novel23,0,1240,LDkidslonger,0,test,TRUE,1,v1,social,NA,NA17,m,3.11,3,Social,7,2,2,0,Novel13,1,Novel8,0,722,RDkidslonger,1,exposure,TRUE,1,v1,social,NA,NA17,m,3.11,3,Social,8,2,2,0,Novel8,1,Novel8,0,8006,RDkidslonger,1,test,TRUE,1,v1,social,NA,NA17,m,3.11,3,Social,9,3,2,1,Novel27,1,Novel15,0,2075,RDkidslonger,1,exposure,TRUE,1,v1,social,NA,NA17,m,3.11,3,Social,10,3,2,1,Novel14,1,Novel15,0,1046,RDkidslonger,1,test,FALSE,1,v1,social,NA,NA17,m,3.11,3,Social,11,4,1,0,Novel20,1,Novel9,0,1799,RDkidslonger,1,exposure,TRUE,1,v1,social,NA,NA17,m,3.11,3,Social,12,4,1,0,Novel9,1,Novel9,0,979,RDkidslonger,1,test,TRUE,1,v1,social,NA,NA17,m,3.11,3,Social,13,5,2,1,Novel24,1,Novel16,0,689,RDkidslonger,1,exposure,TRUE,1,v1,social,NA,NA17,m,3.11,3,Social,14,5,2,1,Novel25,1,Novel16,0,1042,RDkidslonger,1,test,FALSE,1,v1,social,NA,NA18,f,5.07,5,No-social,1,0,1,1,flower,1,,0,2339,straightaheadlonger,-1,example,TRUE,1,v1,no-social,NA,NA18,f,5.07,5,No-social,2,0,1,1,truck,0,,0,706,straightaheadlonger,-1,example,TRUE,1,v1,no-social,NA,NA18,f,5.07,5,No-social,3,0,1,1,Novel17,1,Novel5,0,9204,straightaheadlonger,-1,exposure,FALSE,1,v1,no-social,NA,NA18,f,5.07,5,No-social,4,0,1,1,Novel5,0,Novel5,0,7747,straightaheadlonger,-1,test,TRUE,1,v1,no-social,NA,NA18,f,5.07,5,No-social,5,1,1,0,Novel15,0,Novel15,0,4970,straightaheadlonger,-1,exposure,FALSE,1,v1,no-social,NA,NA18,f,5.07,5,No-social,6,1,1,0,Novel15,1,Novel15,0,2638,straightaheadlonger,-1,test,TRUE,1,v1,no-social,NA,NA18,f,5.07,5,No-social,7,2,2,1,Novel10,0,Novel20,1,1522,straightaheadlonger,-1,exposure,FALSE,1,v1,no-social,NA,NA18,f,5.07,5,No-social,8,2,2,1,Novel28,0,Novel20,1,1431,straightaheadlonger,-1,test,FALSE,1,v1,no-social,NA,NA18,f,5.07,5,No-social,9,3,2,0,Novel24,0,Novel22,1,8670,straightaheadlonger,-1,exposure,FALSE,1,v1,no-social,NA,NA18,f,5.07,5,No-social,10,3,2,0,Novel9,1,Novel22,1,2380,straightaheadlonger,-1,test,FALSE,1,v1,no-social,NA,NA18,f,5.07,5,No-social,11,4,1,1,Novel25,0,Novel25,0,2628,straightaheadlonger,-1,exposure,FALSE,1,v1,no-social,NA,NA18,f,5.07,5,No-social,12,4,1,1,Novel11,1,Novel25,0,1673,straightaheadlonger,-1,test,FALSE,1,v1,no-social,NA,NA18,f,5.07,5,No-social,13,5,2,0,Novel21,1,Novel21,1,1315,straightaheadlonger,-1,exposure,FALSE,1,v1,no-social,NA,NA18,f,5.07,5,No-social,14,5,2,0,Novel21,0,Novel21,1,1681,straightaheadlonger,-1,test,TRUE,1,v1,no-social,NA,NA19,m,4.03,4,Social,1,0,1,1,flower,1,,0,2227,straightaheadlonger,-1,example,TRUE,1,v1,social,NA,NA19,m,4.03,4,Social,2,0,1,1,truck,0,,0,1400,straightaheadlonger,-1,example,TRUE,1,v1,social,NA,NA19,m,4.03,4,Social,3,0,1,1,Novel3,0,Novel3,0,7980,LDkidslonger,0,exposure,TRUE,1,v1,social,NA,NA19,m,4.03,4,Social,4,0,1,1,Novel3,0,Novel3,0,2285,LDkidslonger,0,test,TRUE,1,v1,social,NA,NA19,m,4.03,4,Social,5,1,1,0,Novel5,1,Novel20,0,3352,RDkidslonger,1,exposure,TRUE,1,v1,social,NA,NA19,m,4.03,4,Social,6,1,1,0,Novel20,1,Novel20,0,3524,RDkidslonger,1,test,TRUE,1,v1,social,NA,NA19,m,4.03,4,Social,7,2,2,0,Novel17,0,Novel17,0,3807,LDkidslonger,0,exposure,TRUE,1,v1,social,NA,NA19,m,4.03,4,Social,8,2,2,0,Novel19,0,Novel17,0,3345,LDkidslonger,0,test,FALSE,1,v1,social,NA,NA19,m,4.03,4,Social,9,3,2,1,Novel4,1,Novel4,1,1247,RDkidslonger,1,exposure,TRUE,1,v1,social,NA,NA19,m,4.03,4,Social,10,3,2,1,Novel4,1,Novel4,1,2382,RDkidslonger,1,test,TRUE,1,v1,social,NA,NA19,m,4.03,4,Social,11,4,1,1,Novel1,0,Novel1,0,1488,LDkidslonger,0,exposure,TRUE,1,v1,social,NA,NA19,m,4.03,4,Social,12,4,1,1,Novel1,0,Novel1,0,1781,LDkidslonger,0,test,TRUE,1,v1,social,NA,NA19,m,4.03,4,Social,13,5,2,0,Novel25,0,Novel25,0,2052,LDkidslonger,0,exposure,TRUE,1,v1,social,NA,NA19,m,4.03,4,Social,14,5,2,0,Novel9,0,Novel25,0,4264,LDkidslonger,0,test,FALSE,1,v1,social,NA,NA20,f,4.1,4,No-social,1,0,1,0,flower,1,,0,3647,straightaheadlonger,-1,example,TRUE,1,v1,no-social,NA,NA20,f,4.1,4,No-social,2,0,1,0,truck,0,,0,1645,straightaheadlonger,-1,example,TRUE,1,v1,no-social,NA,NA20,f,4.1,4,No-social,3,0,1,0,Novel11,1,Novel15,0,13232,straightaheadlonger,-1,exposure,FALSE,1,v1,no-social,NA,NA20,f,4.1,4,No-social,4,0,1,0,Novel12,0,Novel15,0,3680,straightaheadlonger,-1,test,FALSE,1,v1,no-social,NA,NA20,f,4.1,4,No-social,5,1,1,1,Novel1,1,Novel4,0,2640,straightaheadlonger,-1,exposure,FALSE,1,v1,no-social,NA,NA20,f,4.1,4,No-social,6,1,1,1,Novel22,1,Novel4,0,1966,straightaheadlonger,-1,test,FALSE,1,v1,no-social,NA,NA20,f,4.1,4,No-social,7,2,2,0,Novel14,1,Novel5,0,1923,straightaheadlonger,-1,exposure,FALSE,1,v1,no-social,NA,NA20,f,4.1,4,No-social,8,2,2,0,Novel6,0,Novel5,0,1762,straightaheadlonger,-1,test,FALSE,1,v1,no-social,NA,NA20,f,4.1,4,No-social,9,3,2,1,Novel20,0,Novel3,1,1592,straightaheadlonger,-1,exposure,FALSE,1,v1,no-social,NA,NA20,f,4.1,4,No-social,10,3,2,1,Novel23,0,Novel3,1,1290,straightaheadlonger,-1,test,FALSE,1,v1,no-social,NA,NA20,f,4.1,4,No-social,11,4,1,0,Novel8,0,Novel8,0,1656,straightaheadlonger,-1,exposure,FALSE,1,v1,no-social,NA,NA20,f,4.1,4,No-social,12,4,1,0,Novel8,1,Novel8,0,1813,straightaheadlonger,-1,test,TRUE,1,v1,no-social,NA,NA20,f,4.1,4,No-social,13,5,2,1,Novel18,0,Novel17,1,2340,straightaheadlonger,-1,exposure,FALSE,1,v1,no-social,NA,NA20,f,4.1,4,No-social,14,5,2,1,Novel28,0,Novel17,1,1310,straightaheadlonger,-1,test,FALSE,1,v1,no-social,NA,NA21,f,3.01,3,Social,1,0,1,0,flower,1,,0,4811,straightaheadlonger,-1,example,TRUE,1,v1,social,NA,NA21,f,3.01,3,Social,2,0,1,0,truck,0,,0,1009,straightaheadlonger,-1,example,TRUE,1,v1,social,NA,NA21,f,3.01,3,Social,3,0,1,0,Novel8,1,Novel15,0,1913,RDkidslonger,1,exposure,TRUE,1,v1,social,NA,NA21,f,3.01,3,Social,4,0,1,0,Novel15,1,Novel15,0,15736,RDkidslonger,1,test,TRUE,1,v1,social,NA,NA21,f,3.01,3,Social,5,1,1,1,Novel13,1,Novel6,0,1156,RDkidslonger,1,exposure,TRUE,1,v1,social,NA,NA21,f,3.01,3,Social,6,1,1,1,Novel10,1,Novel6,0,20725,RDkidslonger,1,test,FALSE,1,v1,social,NA,NA21,f,3.01,3,Social,7,2,2,0,Novel3,1,Novel3,1,1414,RDkidslonger,1,exposure,TRUE,1,v1,social,NA,NA21,f,3.01,3,Social,8,2,2,0,Novel1,1,Novel3,1,1904,RDkidslonger,1,test,FALSE,1,v1,social,NA,NA21,f,3.01,3,Social,9,3,2,1,Novel5,1,Novel7,0,711,RDkidslonger,1,exposure,TRUE,1,v1,social,NA,NA21,f,3.01,3,Social,10,3,2,1,Novel7,0,Novel7,0,2349,RDkidslonger,1,test,TRUE,1,v1,social,NA,NA21,f,3.01,3,Social,11,4,1,0,Novel16,1,Novel27,0,1801,RDkidslonger,1,exposure,TRUE,1,v1,social,NA,NA21,f,3.01,3,Social,12,4,1,0,Novel27,1,Novel27,0,1541,RDkidslonger,1,test,TRUE,1,v1,social,NA,NA21,f,3.01,3,Social,13,5,2,1,Novel12,0,Novel12,0,1540,LDkidslonger,0,exposure,TRUE,1,v1,social,NA,NA21,f,3.01,3,Social,14,5,2,1,Novel12,0,Novel12,0,1810,LDkidslonger,0,test,TRUE,1,v1,social,NA,NA22,m,4.1,4,No-social,1,0,1,1,flower,1,,0,4359,straightaheadlonger,-1,example,TRUE,1,v1,no-social,NA,NA22,m,4.1,4,No-social,2,0,1,1,truck,0,,0,9259,straightaheadlonger,-1,example,TRUE,1,v1,no-social,NA,NA22,m,4.1,4,No-social,3,0,1,1,Novel8,1,Novel3,0,7532,straightaheadlonger,-1,exposure,FALSE,1,v1,no-social,NA,NA22,m,4.1,4,No-social,4,0,1,1,Novel3,0,Novel3,0,6534,straightaheadlonger,-1,test,TRUE,1,v1,no-social,NA,NA22,m,4.1,4,No-social,5,1,1,0,Novel16,0,Novel16,0,2970,straightaheadlonger,-1,exposure,FALSE,1,v1,no-social,NA,NA22,m,4.1,4,No-social,6,1,1,0,Novel24,0,Novel16,0,1682,straightaheadlonger,-1,test,FALSE,1,v1,no-social,NA,NA22,m,4.1,4,No-social,7,2,2,1,Novel1,0,Novel1,0,3823,straightaheadlonger,-1,exposure,FALSE,1,v1,no-social,NA,NA22,m,4.1,4,No-social,8,2,2,1,Novel1,0,Novel1,0,2103,straightaheadlonger,-1,test,TRUE,1,v1,no-social,NA,NA22,m,4.1,4,No-social,9,3,2,0,Novel19,0,Novel19,0,10390,straightaheadlonger,-1,exposure,FALSE,1,v1,no-social,NA,NA22,m,4.1,4,No-social,10,3,2,0,Novel19,1,Novel19,0,8718,straightaheadlonger,-1,test,TRUE,1,v1,no-social,NA,NA22,m,4.1,4,No-social,11,4,1,1,Novel2,1,Novel10,0,6304,straightaheadlonger,-1,exposure,FALSE,1,v1,no-social,NA,NA22,m,4.1,4,No-social,12,4,1,1,Novel10,0,Novel10,0,3609,straightaheadlonger,-1,test,TRUE,1,v1,no-social,NA,NA22,m,4.1,4,No-social,13,5,2,0,Novel21,0,Novel21,0,2355,straightaheadlonger,-1,exposure,FALSE,1,v1,no-social,NA,NA22,m,4.1,4,No-social,14,5,2,0,Novel7,0,Novel21,0,11678,straightaheadlonger,-1,test,FALSE,1,v1,no-social,NA,NA23,f,5.09,5,No-social,1,0,1,0,flower,1,,0,2971,straightaheadlonger,-1,example,TRUE,1,v1,no-social,NA,NA23,f,5.09,5,No-social,2,0,1,0,truck,0,,0,1069,straightaheadlonger,-1,example,TRUE,1,v1,no-social,NA,NA23,f,5.09,5,No-social,3,0,1,0,Novel7,1,Novel15,0,2675,straightaheadlonger,-1,exposure,FALSE,1,v1,no-social,NA,NA23,f,5.09,5,No-social,4,0,1,0,Novel22,0,Novel15,0,2263,straightaheadlonger,-1,test,FALSE,1,v1,no-social,NA,NA23,f,5.09,5,No-social,5,1,1,1,Novel11,0,Novel11,0,1145,straightaheadlonger,-1,exposure,FALSE,1,v1,no-social,NA,NA23,f,5.09,5,No-social,6,1,1,1,Novel11,0,Novel11,0,1185,straightaheadlonger,-1,test,TRUE,1,v1,no-social,NA,NA23,f,5.09,5,No-social,7,2,2,1,Novel8,0,Novel9,1,1261,straightaheadlonger,-1,exposure,FALSE,1,v1,no-social,NA,NA23,f,5.09,5,No-social,8,2,2,1,Novel9,1,Novel9,1,4342,straightaheadlonger,-1,test,TRUE,1,v1,no-social,NA,NA23,f,5.09,5,No-social,9,3,2,0,Novel20,0,Novel23,1,1343,straightaheadlonger,-1,exposure,FALSE,1,v1,no-social,NA,NA23,f,5.09,5,No-social,10,3,2,0,Novel3,1,Novel23,1,1384,straightaheadlonger,-1,test,FALSE,1,v1,no-social,NA,NA23,f,5.09,5,No-social,11,4,1,0,Novel17,0,Novel17,0,1281,straightaheadlonger,-1,exposure,FALSE,1,v1,no-social,NA,NA23,f,5.09,5,No-social,12,4,1,0,Novel17,1,Novel17,0,1348,straightaheadlonger,-1,test,TRUE,1,v1,no-social,NA,NA23,f,5.09,5,No-social,13,5,2,1,Novel13,0,Novel24,1,903,straightaheadlonger,-1,exposure,FALSE,1,v1,no-social,NA,NA23,f,5.09,5,No-social,14,5,2,1,Novel14,0,Novel24,1,1540,straightaheadlonger,-1,test,FALSE,1,v1,no-social,NA,NA24,f,4.1,4,Social,1,0,1,0,flower,1,,0,5260,straightaheadlonger,-1,example,TRUE,1,v1,social,NA,NA24,f,4.1,4,Social,2,0,1,0,truck,0,,0,1745,straightaheadlonger,-1,example,TRUE,1,v1,social,NA,NA24,f,4.1,4,Social,3,0,1,0,Novel20,0,Novel20,0,4685,LDkidslonger,0,exposure,TRUE,1,v1,social,NA,NA24,f,4.1,4,Social,4,0,1,0,Novel20,1,Novel20,0,2045,LDkidslonger,0,test,TRUE,1,v1,social,NA,NA24,f,4.1,4,Social,5,1,1,1,Novel21,0,Novel21,0,3003,LDkidslonger,0,exposure,TRUE,1,v1,social,NA,NA24,f,4.1,4,Social,6,1,1,1,Novel21,0,Novel21,0,1719,LDkidslonger,0,test,TRUE,1,v1,social,NA,NA24,f,4.1,4,Social,7,2,2,1,Novel15,1,Novel13,0,1697,RDkidslonger,1,exposure,TRUE,1,v1,social,NA,NA24,f,4.1,4,Social,8,2,2,1,Novel10,1,Novel13,0,6024,RDkidslonger,1,test,FALSE,1,v1,social,NA,NA24,f,4.1,4,Social,9,3,2,0,Novel27,1,Novel27,1,4449,RDkidslonger,1,exposure,TRUE,1,v1,social,NA,NA24,f,4.1,4,Social,10,3,2,0,Novel27,0,Novel27,1,1056,RDkidslonger,1,test,TRUE,1,v1,social,NA,NA24,f,4.1,4,Social,11,4,1,0,Novel8,0,Novel8,0,4645,LDkidslonger,0,exposure,TRUE,1,v1,social,NA,NA24,f,4.1,4,Social,12,4,1,0,Novel8,1,Novel8,0,2890,LDkidslonger,0,test,TRUE,1,v1,social,NA,NA24,f,4.1,4,Social,13,5,2,1,Novel9,0,Novel25,1,4317,LDkidslonger,0,exposure,TRUE,1,v1,social,NA,NA24,f,4.1,4,Social,14,5,2,1,Novel5,0,Novel25,1,14883,LDkidslonger,0,test,FALSE,1,v1,social,NA,NA25,f,4.05,4,No-social,1,0,1,0,flower,1,,0,18533,straightaheadlonger,-1,example,TRUE,1,v1,no-social,NA,NA25,f,4.05,4,No-social,2,0,1,0,truck,0,,0,11774,straightaheadlonger,-1,example,TRUE,1,v1,no-social,NA,NA25,f,4.05,4,No-social,3,0,1,0,Novel28,1,Novel18,0,8790,straightaheadlonger,-1,exposure,FALSE,1,v1,no-social,NA,NA25,f,4.05,4,No-social,4,0,1,0,Novel26,0,Novel18,0,4090,straightaheadlonger,-1,test,FALSE,1,v1,no-social,NA,NA25,f,4.05,4,No-social,5,1,1,1,Novel7,1,Novel25,0,3219,straightaheadlonger,-1,exposure,FALSE,1,v1,no-social,NA,NA25,f,4.05,4,No-social,6,1,1,1,Novel5,1,Novel25,0,2036,straightaheadlonger,-1,test,FALSE,1,v1,no-social,NA,NA25,f,4.05,4,No-social,7,2,2,1,Novel11,1,Novel11,1,2996,straightaheadlonger,-1,exposure,FALSE,1,v1,no-social,NA,NA25,f,4.05,4,No-social,8,2,2,1,Novel11,1,Novel11,1,1506,straightaheadlonger,-1,test,TRUE,1,v1,no-social,NA,NA25,f,4.05,4,No-social,9,3,2,0,Novel9,1,Novel4,0,2401,straightaheadlonger,-1,exposure,FALSE,1,v1,no-social,NA,NA25,f,4.05,4,No-social,10,3,2,0,Novel4,1,Novel4,0,3384,straightaheadlonger,-1,test,TRUE,1,v1,no-social,NA,NA25,f,4.05,4,No-social,11,4,1,0,Novel23,0,Novel23,0,1926,straightaheadlonger,-1,exposure,FALSE,1,v1,no-social,NA,NA25,f,4.05,4,No-social,12,4,1,0,Novel23,1,Novel23,0,1228,straightaheadlonger,-1,test,TRUE,1,v1,no-social,NA,NA25,f,4.05,4,No-social,13,5,2,1,Novel21,0,Novel21,0,1075,straightaheadlonger,-1,exposure,FALSE,1,v1,no-social,NA,NA25,f,4.05,4,No-social,14,5,2,1,Novel21,0,Novel21,0,1233,straightaheadlonger,-1,test,TRUE,1,v1,no-social,NA,NA26,m,5.08,5,Social,1,0,1,0,flower,1,,0,4251,straightaheadlonger,-1,example,TRUE,1,v2,social,NA,NA26,m,5.08,5,Social,2,0,1,0,truck,0,,0,689,straightaheadlonger,-1,example,TRUE,1,v2,social,NA,NA26,m,5.08,5,Social,3,0,1,0,Novel14,1,Novel14,1,4453,RDkidslonger,1,exposure,TRUE,1,v2,social,NA,NA26,m,5.08,5,Social,4,0,1,0,Novel14,0,Novel14,1,7237,RDkidslonger,1,test,TRUE,1,v2,social,NA,NA26,m,5.08,5,Social,5,1,1,1,Novel28,1,Novel28,1,1128,RDkidslonger,1,exposure,TRUE,1,v2,social,NA,NA26,m,5.08,5,Social,6,1,1,1,Novel28,1,Novel28,1,9344,RDkidslonger,1,test,TRUE,1,v2,social,NA,NA26,m,5.08,5,Social,7,2,2,1,Novel19,1,Novel10,0,5714,RDkidslonger,1,exposure,TRUE,1,v2,social,NA,NA26,m,5.08,5,Social,8,2,2,1,Novel13,1,Novel10,0,14620,RDkidslonger,1,test,FALSE,1,v2,social,NA,NA26,m,5.08,5,Social,9,3,2,0,Novel11,1,Novel8,0,2518,RDkidslonger,1,exposure,TRUE,1,v2,social,NA,NA26,m,5.08,5,Social,10,3,2,0,Novel8,1,Novel8,0,13711,RDkidslonger,1,test,TRUE,1,v2,social,NA,NA26,m,5.08,5,Social,11,4,1,0,Novel5,1,Novel5,1,2328,RDkidslonger,1,exposure,TRUE,1,v2,social,NA,NA26,m,5.08,5,Social,12,4,1,0,Novel5,0,Novel5,1,1677,RDkidslonger,1,test,TRUE,1,v2,social,NA,NA26,m,5.08,5,Social,13,5,2,1,Novel15,0,Novel1,1,1251,LDkidslonger,0,exposure,TRUE,1,v2,social,NA,NA26,m,5.08,5,Social,14,5,2,1,Novel27,0,Novel1,1,3749,LDkidslonger,0,test,FALSE,1,v2,social,NA,NA27,m,5,5,No-social,1,0,1,0,flower,1,,0,13799,straightaheadlonger,-1,example,TRUE,1,v2,no-social,NA,NA27,m,5,5,No-social,2,0,1,0,truck,0,,0,1415,straightaheadlonger,-1,example,TRUE,1,v2,no-social,NA,NA27,m,5,5,No-social,3,0,1,0,Novel14,1,Novel14,1,4508,straightaheadlonger,-1,exposure,FALSE,1,v2,no-social,NA,NA27,m,5,5,No-social,4,0,1,0,Novel14,0,Novel14,1,1629,straightaheadlonger,-1,test,TRUE,1,v2,no-social,NA,NA27,m,5,5,No-social,5,1,1,1,Novel3,0,Novel3,0,5396,straightaheadlonger,-1,exposure,FALSE,1,v2,no-social,NA,NA27,m,5,5,No-social,6,1,1,1,Novel3,0,Novel3,0,4496,straightaheadlonger,-1,test,TRUE,1,v2,no-social,NA,NA27,m,5,5,No-social,7,2,2,0,Novel22,1,Novel15,0,2317,straightaheadlonger,-1,exposure,FALSE,1,v2,no-social,NA,NA27,m,5,5,No-social,8,2,2,0,Novel15,1,Novel15,0,2439,straightaheadlonger,-1,test,TRUE,1,v2,no-social,NA,NA27,m,5,5,No-social,9,3,2,1,Novel2,1,Novel9,0,1915,straightaheadlonger,-1,exposure,FALSE,1,v2,no-social,NA,NA27,m,5,5,No-social,10,3,2,1,Novel17,1,Novel9,0,1980,straightaheadlonger,-1,test,FALSE,1,v2,no-social,NA,NA27,m,5,5,No-social,11,4,1,0,Novel1,1,Novel1,1,1515,straightaheadlonger,-1,exposure,FALSE,1,v2,no-social,NA,NA27,m,5,5,No-social,12,4,1,0,Novel16,1,Novel1,1,1612,straightaheadlonger,-1,test,FALSE,1,v2,no-social,NA,NA27,m,5,5,No-social,13,5,2,1,Novel12,1,Novel23,0,1347,straightaheadlonger,-1,exposure,FALSE,1,v2,no-social,NA,NA27,m,5,5,No-social,14,5,2,1,Novel23,0,Novel23,0,4363,straightaheadlonger,-1,test,TRUE,1,v2,no-social,NA,NA28,m,5.01,5,Social,1,0,1,1,flower,1,,0,4262,straightaheadlonger,-1,example,TRUE,1,v2,social,NA,NA28,m,5.01,5,Social,2,0,1,1,truck,0,,0,1887,straightaheadlonger,-1,example,TRUE,1,v2,social,NA,NA28,m,5.01,5,Social,3,0,1,1,Novel12,1,Novel12,1,10407,LDkidslonger,0,exposure,FALSE,1,v2,social,NA,NA28,m,5.01,5,Social,4,0,1,1,Novel11,0,Novel12,1,1312,LDkidslonger,0,test,FALSE,1,v2,social,NA,NA28,m,5.01,5,Social,5,1,1,0,Novel27,1,Novel27,1,534,RDkidslonger,1,exposure,TRUE,1,v2,social,NA,NA28,m,5.01,5,Social,6,1,1,0,Novel10,1,Novel27,1,1351,RDkidslonger,1,test,FALSE,1,v2,social,NA,NA28,m,5.01,5,Social,7,2,2,1,Novel14,1,Novel21,0,1999,RDkidslonger,1,exposure,TRUE,1,v2,social,NA,NA28,m,5.01,5,Social,8,2,2,1,Novel21,0,Novel21,0,1145,RDkidslonger,1,test,TRUE,1,v2,social,NA,NA28,m,5.01,5,Social,9,3,2,0,Novel1,1,Novel24,0,4662,RDkidslonger,1,exposure,TRUE,1,v2,social,NA,NA28,m,5.01,5,Social,10,3,2,0,Novel20,0,Novel24,0,4603,RDkidslonger,1,test,FALSE,1,v2,social,NA,NA28,m,5.01,5,Social,11,4,1,1,Novel25,1,Novel25,1,3120,RDkidslonger,1,exposure,TRUE,1,v2,social,NA,NA28,m,5.01,5,Social,12,4,1,1,Novel5,0,Novel25,1,2594,RDkidslonger,1,test,FALSE,1,v2,social,NA,NA28,m,5.01,5,Social,13,5,2,0,Novel9,0,Novel22,1,2509,LDkidslonger,0,exposure,TRUE,1,v2,social,NA,NA28,m,5.01,5,Social,14,5,2,0,Novel22,0,Novel22,1,4798,LDkidslonger,0,test,TRUE,1,v2,social,NA,NA29,f,4.08,4,No-social,1,0,1,0,flower,1,,0,1688,straightaheadlonger,-1,example,TRUE,1,v2,no-social,NA,NA29,f,4.08,4,No-social,2,0,1,0,truck,0,,0,792,straightaheadlonger,-1,example,TRUE,1,v2,no-social,NA,NA29,f,4.08,4,No-social,3,0,1,0,Novel14,0,Novel14,0,7173,straightaheadlonger,-1,exposure,FALSE,1,v2,no-social,NA,NA29,f,4.08,4,No-social,4,0,1,0,Novel14,1,Novel14,0,2174,straightaheadlonger,-1,test,TRUE,1,v2,no-social,NA,NA29,f,4.08,4,No-social,5,1,1,1,Novel25,1,Novel25,1,7732,straightaheadlonger,-1,exposure,FALSE,1,v2,no-social,NA,NA29,f,4.08,4,No-social,6,1,1,1,Novel1,0,Novel25,1,1891,straightaheadlonger,-1,test,FALSE,1,v2,no-social,NA,NA29,f,4.08,4,No-social,7,2,2,0,Novel11,1,Novel17,0,1945,straightaheadlonger,-1,exposure,FALSE,1,v2,no-social,NA,NA29,f,4.08,4,No-social,8,2,2,0,Novel17,1,Novel17,0,7487,straightaheadlonger,-1,test,TRUE,1,v2,no-social,NA,NA29,f,4.08,4,No-social,9,3,2,1,Novel21,0,Novel2,1,5127,straightaheadlonger,-1,exposure,FALSE,1,v2,no-social,NA,NA29,f,4.08,4,No-social,10,3,2,1,Novel18,0,Novel2,1,4216,straightaheadlonger,-1,test,FALSE,1,v2,no-social,NA,NA29,f,4.08,4,No-social,11,4,1,0,Novel24,0,Novel24,0,3446,straightaheadlonger,-1,exposure,FALSE,1,v2,no-social,NA,NA29,f,4.08,4,No-social,12,4,1,0,Novel24,1,Novel24,0,8017,straightaheadlonger,-1,test,TRUE,1,v2,no-social,NA,NA29,f,4.08,4,No-social,13,5,2,1,Novel3,1,Novel23,0,2583,straightaheadlonger,-1,exposure,FALSE,1,v2,no-social,NA,NA29,f,4.08,4,No-social,14,5,2,1,Novel23,0,Novel23,0,4393,straightaheadlonger,-1,test,TRUE,1,v2,no-social,NA,NA30,f,6.08,6,No-social,1,0,1,0,flower,1,,0,4409,straightaheadlonger,-1,example,TRUE,1,v2,no-social,NA,NA30,f,6.08,6,No-social,2,0,1,0,truck,0,,0,1354,straightaheadlonger,-1,example,TRUE,1,v2,no-social,NA,NA30,f,6.08,6,No-social,3,0,1,0,Novel23,1,Novel23,1,7217,straightaheadlonger,-1,exposure,FALSE,1,v2,no-social,NA,NA30,f,6.08,6,No-social,4,0,1,0,Novel23,0,Novel23,1,6457,straightaheadlonger,-1,test,TRUE,1,v2,no-social,NA,NA30,f,6.08,6,No-social,5,1,1,1,Novel1,1,Novel1,1,4138,straightaheadlonger,-1,exposure,FALSE,1,v2,no-social,NA,NA30,f,6.08,6,No-social,6,1,1,1,Novel1,1,Novel1,1,2287,straightaheadlonger,-1,test,TRUE,1,v2,no-social,NA,NA30,f,6.08,6,No-social,7,2,2,0,Novel11,0,Novel4,1,2654,straightaheadlonger,-1,exposure,FALSE,1,v2,no-social,NA,NA30,f,6.08,6,No-social,8,2,2,0,Novel2,1,Novel4,1,4260,straightaheadlonger,-1,test,FALSE,1,v2,no-social,NA,NA30,f,6.08,6,No-social,9,3,2,1,Novel19,1,Novel13,0,2875,straightaheadlonger,-1,exposure,FALSE,1,v2,no-social,NA,NA30,f,6.08,6,No-social,10,3,2,1,Novel13,0,Novel13,0,2965,straightaheadlonger,-1,test,TRUE,1,v2,no-social,NA,NA30,f,6.08,6,No-social,11,4,1,0,Novel10,1,Novel10,1,4459,straightaheadlonger,-1,exposure,FALSE,1,v2,no-social,NA,NA30,f,6.08,6,No-social,12,4,1,0,Novel10,0,Novel10,1,1523,straightaheadlonger,-1,test,TRUE,1,v2,no-social,NA,NA30,f,6.08,6,No-social,13,5,2,1,Novel12,0,Novel28,1,4589,straightaheadlonger,-1,exposure,FALSE,1,v2,no-social,NA,NA30,f,6.08,6,No-social,14,5,2,1,Novel28,1,Novel28,1,4096,straightaheadlonger,-1,test,TRUE,1,v2,no-social,NA,NA31,m,5.03,5,Social,1,0,1,1,flower,1,,0,14423,straightaheadlonger,-1,example,TRUE,1,v2,social,NA,NA31,m,5.03,5,Social,2,0,1,1,truck,0,,0,5258,straightaheadlonger,-1,example,TRUE,1,v2,social,NA,NA31,m,5.03,5,Social,3,0,1,1,Novel5,1,Novel5,1,14213,RDkidslonger,1,exposure,TRUE,1,v2,social,NA,NA31,m,5.03,5,Social,4,0,1,1,Novel5,1,Novel5,1,10453,RDkidslonger,1,test,TRUE,1,v2,social,NA,NA31,m,5.03,5,Social,5,1,1,0,Novel26,1,Novel26,1,3036,RDkidslonger,1,exposure,TRUE,1,v2,social,NA,NA31,m,5.03,5,Social,6,1,1,0,Novel26,0,Novel26,1,13870,RDkidslonger,1,test,TRUE,1,v2,social,NA,NA31,m,5.03,5,Social,7,2,2,1,Novel28,1,Novel27,0,8606,RDkidslonger,1,exposure,TRUE,1,v2,social,NA,NA31,m,5.03,5,Social,8,2,2,1,Novel9,1,Novel27,0,4152,RDkidslonger,1,test,FALSE,1,v2,social,NA,NA31,m,5.03,5,Social,9,3,2,0,Novel16,0,Novel25,1,2954,LDkidslonger,0,exposure,TRUE,1,v2,social,NA,NA31,m,5.03,5,Social,10,3,2,0,Novel25,0,Novel25,1,2251,LDkidslonger,0,test,TRUE,1,v2,social,NA,NA31,m,5.03,5,Social,11,4,1,1,Novel3,1,Novel3,1,1371,RDkidslonger,1,exposure,TRUE,1,v2,social,NA,NA31,m,5.03,5,Social,12,4,1,1,Novel3,1,Novel3,1,3193,RDkidslonger,1,test,TRUE,1,v2,social,NA,NA31,m,5.03,5,Social,13,5,2,0,Novel12,1,Novel15,0,2202,RDkidslonger,1,exposure,TRUE,1,v2,social,NA,NA31,m,5.03,5,Social,14,5,2,0,Novel15,1,Novel15,0,9978,RDkidslonger,1,test,TRUE,1,v2,social,NA,NA32,f,4.02,4,No-social,1,0,1,1,flower,1,,0,11588,straightaheadlonger,-1,example,TRUE,1,v2,no-social,NA,NA32,f,4.02,4,No-social,2,0,1,1,truck,0,,0,9695,straightaheadlonger,-1,example,TRUE,1,v2,no-social,NA,NA32,f,4.02,4,No-social,3,0,1,1,Novel22,0,Novel22,0,9701,straightaheadlonger,-1,exposure,FALSE,1,v2,no-social,NA,NA32,f,4.02,4,No-social,4,0,1,1,Novel1,1,Novel22,0,6920,straightaheadlonger,-1,test,FALSE,1,v2,no-social,NA,NA32,f,4.02,4,No-social,5,1,1,0,Novel14,0,Novel14,0,2575,straightaheadlonger,-1,exposure,FALSE,1,v2,no-social,NA,NA32,f,4.02,4,No-social,6,1,1,0,Novel14,1,Novel14,0,2359,straightaheadlonger,-1,test,TRUE,1,v2,no-social,NA,NA32,f,4.02,4,No-social,7,2,2,0,Novel25,1,Novel9,0,23292,straightaheadlonger,-1,exposure,FALSE,1,v2,no-social,NA,NA32,f,4.02,4,No-social,8,2,2,0,Novel9,1,Novel9,0,6580,straightaheadlonger,-1,test,TRUE,1,v2,no-social,NA,NA32,f,4.02,4,No-social,9,3,2,1,Novel27,1,Novel6,0,3329,straightaheadlonger,-1,exposure,FALSE,1,v2,no-social,NA,NA32,f,4.02,4,No-social,10,3,2,1,Novel6,0,Novel6,0,5298,straightaheadlonger,-1,test,TRUE,1,v2,no-social,NA,NA32,f,4.02,4,No-social,11,4,1,1,Novel24,1,Novel24,1,1957,straightaheadlonger,-1,exposure,FALSE,1,v2,no-social,NA,NA32,f,4.02,4,No-social,12,4,1,1,Novel24,1,Novel24,1,6062,straightaheadlonger,-1,test,TRUE,1,v2,no-social,NA,NA32,f,4.02,4,No-social,13,5,2,0,Novel21,1,Novel16,0,3044,straightaheadlonger,-1,exposure,FALSE,1,v2,no-social,NA,NA32,f,4.02,4,No-social,14,5,2,0,Novel16,1,Novel16,0,2275,straightaheadlonger,-1,test,TRUE,1,v2,no-social,NA,NA33,m,5.02,5,No-social,1,0,1,0,flower,1,,0,5591,straightaheadlonger,-1,example,TRUE,1,v2,no-social,NA,NA33,m,5.02,5,No-social,2,0,1,0,truck,0,,0,1173,straightaheadlonger,-1,example,TRUE,1,v2,no-social,NA,NA33,m,5.02,5,No-social,3,0,1,0,Novel7,0,Novel7,0,13464,straightaheadlonger,-1,exposure,FALSE,1,v2,no-social,NA,NA33,m,5.02,5,No-social,4,0,1,0,Novel7,1,Novel7,0,2743,straightaheadlonger,-1,test,TRUE,1,v2,no-social,NA,NA33,m,5.02,5,No-social,5,1,1,1,Novel23,0,Novel23,0,18368,straightaheadlonger,-1,exposure,FALSE,1,v2,no-social,NA,NA33,m,5.02,5,No-social,6,1,1,1,Novel23,0,Novel23,0,1736,straightaheadlonger,-1,test,TRUE,1,v2,no-social,NA,NA33,m,5.02,5,No-social,7,2,2,0,Novel11,0,Novel27,1,4240,straightaheadlonger,-1,exposure,FALSE,1,v2,no-social,NA,NA33,m,5.02,5,No-social,8,2,2,0,Novel28,1,Novel27,1,5073,straightaheadlonger,-1,test,FALSE,1,v2,no-social,NA,NA33,m,5.02,5,No-social,9,3,2,1,Novel8,0,Novel24,1,19459,straightaheadlonger,-1,exposure,FALSE,1,v2,no-social,NA,NA33,m,5.02,5,No-social,10,3,2,1,Novel24,1,Novel24,1,2889,straightaheadlonger,-1,test,TRUE,1,v2,no-social,NA,NA33,m,5.02,5,No-social,11,4,1,0,Novel5,0,Novel5,0,8728,straightaheadlonger,-1,exposure,FALSE,1,v2,no-social,NA,NA33,m,5.02,5,No-social,12,4,1,0,Novel5,1,Novel5,0,2715,straightaheadlonger,-1,test,TRUE,1,v2,no-social,NA,NA33,m,5.02,5,No-social,13,5,2,1,Novel25,0,Novel19,1,4993,straightaheadlonger,-1,exposure,FALSE,1,v2,no-social,NA,NA33,m,5.02,5,No-social,14,5,2,1,Novel1,0,Novel19,1,2128,straightaheadlonger,-1,test,FALSE,1,v2,no-social,NA,NA34,m,4.1,4,Social,1,0,1,1,flower,1,,0,2867,straightaheadlonger,-1,example,TRUE,1,v2,social,NA,NA34,m,4.1,4,Social,2,0,1,1,truck,0,,0,752,straightaheadlonger,-1,example,TRUE,1,v2,social,NA,NA34,m,4.1,4,Social,3,0,1,1,Novel3,1,Novel3,1,2051,RDkidslonger,1,exposure,TRUE,1,v2,social,NA,NA34,m,4.1,4,Social,4,0,1,1,Novel3,1,Novel3,1,3562,RDkidslonger,1,test,TRUE,1,v2,social,NA,NA34,m,4.1,4,Social,5,1,1,0,Novel4,1,Novel4,1,1088,RDkidslonger,1,exposure,TRUE,1,v2,social,NA,NA34,m,4.1,4,Social,6,1,1,0,Novel4,0,Novel4,1,1723,RDkidslonger,1,test,TRUE,1,v2,social,NA,NA34,m,4.1,4,Social,7,2,2,0,Novel17,1,Novel20,0,1012,RDkidslonger,1,exposure,TRUE,1,v2,social,NA,NA34,m,4.1,4,Social,8,2,2,0,Novel5,0,Novel20,0,1689,RDkidslonger,1,test,FALSE,1,v2,social,NA,NA34,m,4.1,4,Social,9,3,2,1,Novel1,0,Novel14,1,1083,LDkidslonger,0,exposure,TRUE,1,v2,social,NA,NA34,m,4.1,4,Social,10,3,2,1,Novel14,1,Novel14,1,2734,LDkidslonger,0,test,TRUE,1,v2,social,NA,NA34,m,4.1,4,Social,11,4,1,1,Novel18,0,Novel18,0,9111,LDkidslonger,0,exposure,TRUE,1,v2,social,NA,NA34,m,4.1,4,Social,12,4,1,1,Novel18,0,Novel18,0,3530,LDkidslonger,0,test,TRUE,1,v2,social,NA,NA34,m,4.1,4,Social,13,5,2,0,Novel7,0,Novel19,1,1583,LDkidslonger,0,exposure,TRUE,1,v2,social,NA,NA34,m,4.1,4,Social,14,5,2,0,Novel19,0,Novel19,1,3156,LDkidslonger,0,test,TRUE,1,v2,social,NA,NA35,m,5.07,5,No-social,1,0,1,1,flower,1,,0,5230,straightaheadlonger,-1,example,TRUE,1,v2,no-social,NA,NA35,m,5.07,5,No-social,2,0,1,1,truck,0,,0,1356,straightaheadlonger,-1,example,TRUE,1,v2,no-social,NA,NA35,m,5.07,5,No-social,3,0,1,1,Novel20,1,Novel20,1,2669,straightaheadlonger,-1,exposure,FALSE,1,v2,no-social,NA,NA35,m,5.07,5,No-social,4,0,1,1,Novel20,1,Novel20,1,3191,straightaheadlonger,-1,test,TRUE,1,v2,no-social,NA,NA35,m,5.07,5,No-social,5,1,1,0,Novel22,1,Novel22,1,3404,straightaheadlonger,-1,exposure,FALSE,1,v2,no-social,NA,NA35,m,5.07,5,No-social,6,1,1,0,Novel22,0,Novel22,1,3674,straightaheadlonger,-1,test,TRUE,1,v2,no-social,NA,NA35,m,5.07,5,No-social,7,2,2,0,Novel11,0,Novel6,1,1234,straightaheadlonger,-1,exposure,FALSE,1,v2,no-social,NA,NA35,m,5.07,5,No-social,8,2,2,0,Novel6,0,Novel6,1,944,straightaheadlonger,-1,test,TRUE,1,v2,no-social,NA,NA35,m,5.07,5,No-social,9,3,2,1,Novel18,1,Novel16,0,1561,straightaheadlonger,-1,exposure,FALSE,1,v2,no-social,NA,NA35,m,5.07,5,No-social,10,3,2,1,Novel16,0,Novel16,0,1727,straightaheadlonger,-1,test,TRUE,1,v2,no-social,NA,NA35,m,5.07,5,No-social,11,4,1,1,Novel4,1,Novel4,1,1010,straightaheadlonger,-1,exposure,FALSE,1,v2,no-social,NA,NA35,m,5.07,5,No-social,12,4,1,1,Novel4,1,Novel4,1,1318,straightaheadlonger,-1,test,TRUE,1,v2,no-social,NA,NA35,m,5.07,5,No-social,13,5,2,0,Novel27,1,Novel28,0,2146,straightaheadlonger,-1,exposure,FALSE,1,v2,no-social,NA,NA35,m,5.07,5,No-social,14,5,2,0,Novel10,0,Novel28,0,4987,straightaheadlonger,-1,test,FALSE,1,v2,no-social,NA,NA36,f,3.06,3,Social,1,0,1,1,lion,0,,0,2057,straightaheadlonger,-1,example,TRUE,1,v2,social,NA,NA36,f,3.06,3,Social,2,0,1,1,truck,0,,0,4575,straightaheadlonger,-1,example,TRUE,1,v2,social,NA,NA36,f,3.06,3,Social,3,0,1,1,Novel20,1,Novel20,1,2213,LDkidslonger,0,exposure,FALSE,1,v2,social,NA,NA36,f,3.06,3,Social,4,0,1,1,Novel20,1,Novel20,1,3948,LDkidslonger,0,test,TRUE,1,v2,social,NA,NA36,f,3.06,3,Social,5,1,1,0,Novel23,0,Novel23,0,5891,LDkidslonger,0,exposure,TRUE,1,v2,social,NA,NA36,f,3.06,3,Social,6,1,1,0,Novel23,1,Novel23,0,1386,LDkidslonger,0,test,TRUE,1,v2,social,NA,NA36,f,3.06,3,Social,7,2,2,0,Novel6,0,Novel22,1,4873,RDkidslonger,1,exposure,FALSE,1,v2,social,NA,NA36,f,3.06,3,Social,8,2,2,0,Novel22,0,Novel22,1,1310,RDkidslonger,1,test,TRUE,1,v2,social,NA,NA36,f,3.06,3,Social,9,3,2,1,Novel4,0,Novel19,1,1313,LDkidslonger,0,exposure,TRUE,1,v2,social,NA,NA36,f,3.06,3,Social,10,3,2,1,Novel19,1,Novel19,1,4820,LDkidslonger,0,test,TRUE,1,v2,social,NA,NA36,f,3.06,3,Social,11,4,1,1,Novel28,1,Novel28,1,5794,LDkidslonger,0,exposure,FALSE,1,v2,social,NA,NA36,f,3.06,3,Social,12,4,1,1,Novel28,1,Novel28,1,1222,LDkidslonger,0,test,TRUE,1,v2,social,NA,NA36,f,3.06,3,Social,13,5,2,0,Novel5,1,Novel7,0,2449,RDkidslonger,1,exposure,TRUE,1,v2,social,NA,NA36,f,3.06,3,Social,14,5,2,0,Novel7,1,Novel7,0,1581,RDkidslonger,1,test,TRUE,1,v2,social,NA,NA37,f,5.04,5,No-social,1,0,1,0,flower,1,,0,1096,straightaheadlonger,-1,example,TRUE,1,v2,no-social,NA,NA37,f,5.04,5,No-social,2,0,1,0,truck,0,,0,2259,straightaheadlonger,-1,example,TRUE,1,v2,no-social,NA,NA37,f,5.04,5,No-social,3,0,1,0,Novel13,1,Novel13,1,2762,straightaheadlonger,-1,exposure,FALSE,1,v2,no-social,NA,NA37,f,5.04,5,No-social,4,0,1,0,Novel13,0,Novel13,1,1724,straightaheadlonger,-1,test,TRUE,1,v2,no-social,NA,NA37,f,5.04,5,No-social,5,1,1,1,Novel18,1,Novel18,1,9394,straightaheadlonger,-1,exposure,FALSE,1,v2,no-social,NA,NA37,f,5.04,5,No-social,6,1,1,1,Novel18,1,Novel18,1,2678,straightaheadlonger,-1,test,TRUE,1,v2,no-social,NA,NA37,f,5.04,5,No-social,7,2,2,0,Novel28,1,Novel27,0,2242,straightaheadlonger,-1,exposure,FALSE,1,v2,no-social,NA,NA37,f,5.04,5,No-social,8,2,2,0,Novel27,1,Novel27,0,2173,straightaheadlonger,-1,test,TRUE,1,v2,no-social,NA,NA37,f,5.04,5,No-social,9,3,2,1,Novel23,0,Novel11,1,4493,straightaheadlonger,-1,exposure,FALSE,1,v2,no-social,NA,NA37,f,5.04,5,No-social,10,3,2,1,Novel11,1,Novel11,1,1367,straightaheadlonger,-1,test,TRUE,1,v2,no-social,NA,NA37,f,5.04,5,No-social,11,4,1,0,Novel25,1,Novel25,1,2060,straightaheadlonger,-1,exposure,FALSE,1,v2,no-social,NA,NA37,f,5.04,5,No-social,12,4,1,0,Novel25,0,Novel25,1,1200,straightaheadlonger,-1,test,TRUE,1,v2,no-social,NA,NA37,f,5.04,5,No-social,13,5,2,1,Novel26,1,Novel12,0,3006,straightaheadlonger,-1,exposure,FALSE,1,v2,no-social,NA,NA37,f,5.04,5,No-social,14,5,2,1,Novel12,0,Novel12,0,1050,straightaheadlonger,-1,test,TRUE,1,v2,no-social,NA,NA38,f,8.01,8,No-social,1,0,1,0,flower,1,,0,814,straightaheadlonger,-1,example,TRUE,0,v2,no-social,NA,NA38,f,8.01,8,No-social,2,0,1,0,truck,0,,0,924,straightaheadlonger,-1,example,TRUE,0,v2,no-social,NA,NA38,f,8.01,8,No-social,3,0,1,0,Novel3,1,Novel3,1,2081,straightaheadlonger,-1,exposure,FALSE,0,v2,no-social,NA,NA38,f,8.01,8,No-social,4,0,1,0,Novel3,0,Novel3,1,936,straightaheadlonger,-1,test,TRUE,0,v2,no-social,NA,NA38,f,8.01,8,No-social,5,1,1,1,Novel23,1,Novel23,1,945,straightaheadlonger,-1,exposure,FALSE,0,v2,no-social,NA,NA38,f,8.01,8,No-social,6,1,1,1,Novel23,1,Novel23,1,1101,straightaheadlonger,-1,test,TRUE,0,v2,no-social,NA,NA38,f,8.01,8,No-social,7,2,2,1,Novel16,0,Novel1,1,1071,straightaheadlonger,-1,exposure,FALSE,0,v2,no-social,NA,NA38,f,8.01,8,No-social,8,2,2,1,Novel1,1,Novel1,1,3185,straightaheadlonger,-1,test,TRUE,0,v2,no-social,NA,NA38,f,8.01,8,No-social,9,3,2,0,Novel6,1,Novel7,0,1742,straightaheadlonger,-1,exposure,FALSE,0,v2,no-social,NA,NA38,f,8.01,8,No-social,10,3,2,0,Novel7,1,Novel7,0,1348,straightaheadlonger,-1,test,TRUE,0,v2,no-social,NA,NA38,f,8.01,8,No-social,11,4,1,0,Novel19,1,Novel19,1,2608,straightaheadlonger,-1,exposure,FALSE,0,v2,no-social,NA,NA38,f,8.01,8,No-social,12,4,1,0,Novel19,0,Novel19,1,1376,straightaheadlonger,-1,test,TRUE,0,v2,no-social,NA,NA38,f,8.01,8,No-social,13,5,2,1,Novel27,1,Novel2,0,1106,straightaheadlonger,-1,exposure,FALSE,0,v2,no-social,NA,NA38,f,8.01,8,No-social,14,5,2,1,Novel2,0,Novel2,0,1262,straightaheadlonger,-1,test,TRUE,0,v2,no-social,NA,NA39,m,4.07,4,Social,1,0,1,1,flower,1,,0,4598,straightaheadlonger,-1,example,TRUE,1,v2,social,RDkidslonger,139,m,4.07,4,Social,2,0,1,1,tie,1,,0,1222,straightaheadlonger,-1,example,TRUE,1,v2,social,RDkidslonger,139,m,4.07,4,Social,3,0,1,1,Novel22,1,Novel22,1,7573,RDkidslonger,1,exposure,TRUE,1,v2,social,RDkidslonger,139,m,4.07,4,Social,4,0,1,1,Novel22,1,Novel22,1,4166,straightaheadlonger,-1,test,TRUE,1,v2,social,RDkidslonger,139,m,4.07,4,Social,5,1,1,0,Novel20,0,Novel20,0,4544,LDkidslonger,0,exposure,TRUE,1,v2,social,LDkidslonger,039,m,4.07,4,Social,6,1,1,0,Novel20,1,Novel20,0,1946,straightaheadlonger,-1,test,TRUE,1,v2,social,LDkidslonger,039,m,4.07,4,Social,7,2,2,0,Novel17,0,Novel6,1,3090,LDkidslonger,0,exposure,TRUE,1,v2,social,LDkidslonger,039,m,4.07,4,Social,8,2,2,0,Novel6,0,Novel6,1,1538,straightaheadlonger,-1,test,TRUE,1,v2,social,LDkidslonger,039,m,4.07,4,Social,9,3,2,1,Novel18,1,Novel7,0,10409,LDkidslonger,0,exposure,FALSE,1,v2,social,LDkidslonger,039,m,4.07,4,Social,10,3,2,1,Novel21,1,Novel7,0,2327,straightaheadlonger,-1,test,FALSE,1,v2,social,LDkidslonger,039,m,4.07,4,Social,11,4,1,1,Novel27,1,Novel27,1,1872,RDkidslonger,1,exposure,TRUE,1,v2,social,RDkidslonger,139,m,4.07,4,Social,12,4,1,1,Novel27,1,Novel27,1,1990,straightaheadlonger,-1,test,TRUE,1,v2,social,RDkidslonger,139,m,4.07,4,Social,13,5,2,0,Novel23,1,Novel9,0,1392,RDkidslonger,1,exposure,TRUE,1,v2,social,RDkidslonger,139,m,4.07,4,Social,14,5,2,0,Novel9,1,Novel9,0,1801,straightaheadlonger,-1,test,TRUE,1,v2,social,RDkidslonger,140,f,4.06,4,No-social,1,0,1,1,flower,1,,0,3327,RDkidslonger,1,example,TRUE,1,v2,no-social,straightaheadlonger,140,f,4.06,4,No-social,2,0,1,1,truck,0,,0,1969,LDkidslonger,0,example,TRUE,1,v2,no-social,straightaheadlonger,140,f,4.06,4,No-social,3,0,1,1,Novel25,1,Novel25,1,4250,straightaheadlonger,-1,exposure,TRUE,1,v2,no-social,straightaheadlonger,140,f,4.06,4,No-social,4,0,1,1,Novel25,1,Novel25,1,1313,straightaheadlonger,-1,test,TRUE,1,v2,no-social,straightaheadlonger,140,f,4.06,4,No-social,5,1,1,0,Novel9,0,Novel9,0,1632,straightaheadlonger,-1,exposure,FALSE,1,v2,no-social,straightaheadlonger,140,f,4.06,4,No-social,6,1,1,0,Novel9,1,Novel9,0,2533,straightaheadlonger,-1,test,TRUE,1,v2,no-social,straightaheadlonger,140,f,4.06,4,No-social,7,2,2,1,Novel22,0,Novel21,1,2482,straightaheadlonger,-1,exposure,FALSE,1,v2,no-social,straightaheadlonger,140,f,4.06,4,No-social,8,2,2,1,Novel3,0,Novel21,1,3041,straightaheadlonger,-1,test,FALSE,1,v2,no-social,straightaheadlonger,140,f,4.06,4,No-social,9,3,2,0,Novel11,1,Novel8,0,1732,straightaheadlonger,-1,exposure,TRUE,1,v2,no-social,straightaheadlonger,140,f,4.06,4,No-social,10,3,2,0,Novel28,0,Novel8,0,1184,straightaheadlonger,-1,test,FALSE,1,v2,no-social,straightaheadlonger,140,f,4.06,4,No-social,11,4,1,1,Novel2,0,Novel2,0,1599,straightaheadlonger,-1,exposure,FALSE,1,v2,no-social,straightaheadlonger,140,f,4.06,4,No-social,12,4,1,1,Novel2,0,Novel2,0,1066,straightaheadlonger,-1,test,TRUE,1,v2,no-social,straightaheadlonger,140,f,4.06,4,No-social,13,5,2,0,Novel26,0,Novel15,1,948,straightaheadlonger,-1,exposure,FALSE,1,v2,no-social,straightaheadlonger,140,f,4.06,4,No-social,14,5,2,0,Novel27,1,Novel15,1,1315,straightaheadlonger,-1,test,FALSE,1,v2,no-social,straightaheadlonger,141,f,5.1,5,Social,1,0,1,1,flower,1,,0,10195,RDkidslonger,1,example,TRUE,1,v2,social,LDkidslonger,041,f,5.1,5,Social,2,0,1,1,truck,0,,0,4146,LDkidslonger,0,example,TRUE,1,v2,social,LDkidslonger,041,f,5.1,5,Social,3,0,1,1,Novel13,0,Novel13,0,1951,straightaheadlonger,-1,exposure,TRUE,1,v2,social,LDkidslonger,041,f,5.1,5,Social,4,0,1,1,Novel13,0,Novel13,0,1979,LDkidslonger,0,test,TRUE,1,v2,social,LDkidslonger,041,f,5.1,5,Social,5,1,1,0,Novel26,1,Novel26,1,3370,straightaheadlonger,-1,exposure,TRUE,1,v2,social,RDkidslonger,141,f,5.1,5,Social,6,1,1,0,Novel26,0,Novel26,1,4233,RDkidslonger,1,test,TRUE,1,v2,social,RDkidslonger,141,f,5.1,5,Social,7,2,2,0,Novel7,0,Novel19,1,2975,straightaheadlonger,-1,exposure,TRUE,1,v2,social,LDkidslonger,041,f,5.1,5,Social,8,2,2,0,Novel19,0,Novel19,1,1706,LDkidslonger,0,test,TRUE,1,v2,social,LDkidslonger,041,f,5.1,5,Social,9,3,2,1,Novel12,1,Novel6,0,2975,straightaheadlonger,-1,exposure,TRUE,1,v2,social,RDkidslonger,141,f,5.1,5,Social,10,3,2,1,Novel28,1,Novel6,0,1687,RDkidslonger,1,test,FALSE,1,v2,social,RDkidslonger,141,f,5.1,5,Social,11,4,1,1,Novel5,1,Novel5,1,3138,straightaheadlonger,-1,exposure,TRUE,1,v2,social,RDkidslonger,141,f,5.1,5,Social,12,4,1,1,Novel5,1,Novel5,1,4591,RDkidslonger,1,test,TRUE,1,v2,social,RDkidslonger,141,f,5.1,5,Social,13,5,2,0,Novel16,0,Novel23,1,5419,straightaheadlonger,-1,exposure,TRUE,1,v2,social,LDkidslonger,041,f,5.1,5,Social,14,5,2,0,Novel15,1,Novel23,1,5121,LDkidslonger,0,test,FALSE,1,v2,social,LDkidslonger,042,f,4.02,4,No-social,1,0,1,0,flower,1,,0,3507,RDkidslonger,1,example,TRUE,1,v2,no-social,straightaheadlonger,142,f,4.02,4,No-social,2,0,1,0,truck,0,,0,4297,LDkidslonger,0,example,TRUE,1,v2,no-social,straightaheadlonger,142,f,4.02,4,No-social,3,0,1,0,Novel23,0,Novel23,0,12848,straightaheadlonger,-1,exposure,FALSE,1,v2,no-social,straightaheadlonger,142,f,4.02,4,No-social,4,0,1,0,Novel23,1,Novel23,0,2616,straightaheadlonger,-1,test,TRUE,1,v2,no-social,straightaheadlonger,142,f,4.02,4,No-social,5,1,1,1,Novel10,1,Novel10,1,4711,straightaheadlonger,-1,exposure,TRUE,1,v2,no-social,straightaheadlonger,142,f,4.02,4,No-social,6,1,1,1,Novel10,1,Novel10,1,6064,straightaheadlonger,-1,test,TRUE,1,v2,no-social,straightaheadlonger,142,f,4.02,4,No-social,7,2,2,1,Novel28,1,Novel6,0,12629,straightaheadlonger,-1,exposure,TRUE,1,v2,no-social,straightaheadlonger,142,f,4.02,4,No-social,8,2,2,1,Novel6,0,Novel6,0,6830,straightaheadlonger,-1,test,TRUE,1,v2,no-social,straightaheadlonger,142,f,4.02,4,No-social,9,3,2,0,Novel9,0,Novel5,1,8408,straightaheadlonger,-1,exposure,FALSE,1,v2,no-social,straightaheadlonger,142,f,4.02,4,No-social,10,3,2,0,Novel5,0,Novel5,1,2663,straightaheadlonger,-1,test,TRUE,1,v2,no-social,straightaheadlonger,142,f,4.02,4,No-social,11,4,1,0,Novel26,0,Novel26,0,3807,straightaheadlonger,-1,exposure,FALSE,1,v2,no-social,straightaheadlonger,142,f,4.02,4,No-social,12,4,1,0,Novel26,1,Novel26,0,7198,straightaheadlonger,-1,test,TRUE,1,v2,no-social,straightaheadlonger,142,f,4.02,4,No-social,13,5,2,1,Novel7,0,Novel17,1,6135,straightaheadlonger,-1,exposure,FALSE,1,v2,no-social,straightaheadlonger,142,f,4.02,4,No-social,14,5,2,1,Novel17,1,Novel17,1,1906,straightaheadlonger,-1,test,TRUE,1,v2,no-social,straightaheadlonger,144,f,4.04,4,Social,1,0,1,0,flower,1,,0,2633,RDkidslonger,1,example,TRUE,1,v2,social,RDkidslonger,144,f,4.04,4,Social,2,0,1,0,truck,0,,0,1186,LDkidslonger,0,example,TRUE,1,v2,social,RDkidslonger,144,f,4.04,4,Social,3,0,1,0,Novel9,1,Novel9,1,45919,straightaheadlonger,-1,exposure,TRUE,1,v2,social,RDkidslonger,144,f,4.04,4,Social,4,0,1,0,Novel9,0,Novel9,1,6385,RDkidslonger,1,test,TRUE,1,v2,social,RDkidslonger,144,f,4.04,4,Social,5,1,1,1,Novel23,1,Novel23,1,7408,straightaheadlonger,-1,exposure,FALSE,1,v2,social,LDkidslonger,044,f,4.04,4,Social,6,1,1,1,Novel23,1,Novel23,1,3969,LDkidslonger,0,test,TRUE,1,v2,social,LDkidslonger,044,f,4.04,4,Social,7,2,2,0,Novel24,1,Novel11,0,2797,straightaheadlonger,-1,exposure,TRUE,1,v2,social,RDkidslonger,144,f,4.04,4,Social,8,2,2,0,Novel11,1,Novel11,0,3722,RDkidslonger,1,test,TRUE,1,v2,social,RDkidslonger,144,f,4.04,4,Social,9,3,2,1,Novel14,1,Novel25,0,3519,straightaheadlonger,-1,exposure,TRUE,1,v2,social,RDkidslonger,144,f,4.04,4,Social,10,3,2,1,Novel26,1,Novel25,0,4845,RDkidslonger,1,test,FALSE,1,v2,social,RDkidslonger,144,f,4.04,4,Social,11,4,1,0,Novel5,1,Novel5,1,2526,straightaheadlonger,-1,exposure,TRUE,1,v2,social,RDkidslonger,144,f,4.04,4,Social,12,4,1,0,Novel28,1,Novel5,1,4252,RDkidslonger,1,test,FALSE,1,v2,social,RDkidslonger,144,f,4.04,4,Social,13,5,2,1,Novel7,1,Novel18,0,3323,straightaheadlonger,-1,exposure,TRUE,1,v2,social,RDkidslonger,144,f,4.04,4,Social,14,5,2,1,Novel12,1,Novel18,0,3383,RDkidslonger,1,test,FALSE,1,v2,social,RDkidslonger,145,m,4.08,4,No-social,1,0,1,1,flower,1,,0,1810,RDkidslonger,1,example,TRUE,1,v2,no-social,straightaheadlonger,145,m,4.08,4,No-social,2,0,1,1,truck,0,,0,2982,LDkidslonger,0,example,TRUE,1,v2,no-social,straightaheadlonger,145,m,4.08,4,No-social,3,0,1,1,Novel28,0,Novel28,0,4464,straightaheadlonger,-1,exposure,FALSE,1,v2,no-social,straightaheadlonger,145,m,4.08,4,No-social,4,0,1,1,Novel28,0,Novel28,0,3652,straightaheadlonger,-1,test,TRUE,1,v2,no-social,straightaheadlonger,145,m,4.08,4,No-social,5,1,1,0,Novel20,1,Novel20,1,2005,straightaheadlonger,-1,exposure,TRUE,1,v2,no-social,straightaheadlonger,145,m,4.08,4,No-social,6,1,1,0,Novel20,0,Novel20,1,1808,straightaheadlonger,-1,test,TRUE,1,v2,no-social,straightaheadlonger,145,m,4.08,4,No-social,7,2,2,1,Novel8,0,Novel13,1,1327,straightaheadlonger,-1,exposure,FALSE,1,v2,no-social,straightaheadlonger,145,m,4.08,4,No-social,8,2,2,1,Novel13,1,Novel13,1,4648,straightaheadlonger,-1,test,TRUE,1,v2,no-social,straightaheadlonger,145,m,4.08,4,No-social,9,3,2,0,Novel4,1,Novel3,0,1540,straightaheadlonger,-1,exposure,TRUE,1,v2,no-social,straightaheadlonger,145,m,4.08,4,No-social,10,3,2,0,Novel3,1,Novel3,0,3179,straightaheadlonger,-1,test,TRUE,1,v2,no-social,straightaheadlonger,145,m,4.08,4,No-social,11,4,1,1,Novel26,1,Novel26,1,2404,straightaheadlonger,-1,exposure,TRUE,1,v2,no-social,straightaheadlonger,145,m,4.08,4,No-social,12,4,1,1,Novel26,1,Novel26,1,2077,straightaheadlonger,-1,test,TRUE,1,v2,no-social,straightaheadlonger,145,m,4.08,4,No-social,13,5,2,0,Novel12,1,Novel2,0,1748,straightaheadlonger,-1,exposure,TRUE,1,v2,no-social,straightaheadlonger,145,m,4.08,4,No-social,14,5,2,0,Novel11,0,Novel2,0,1717,straightaheadlonger,-1,test,FALSE,1,v2,no-social,straightaheadlonger,146,m,4.03,4,Social,1,0,1,1,flower,1,,0,4538,RDkidslonger,1,example,TRUE,1,v2,social,RDkidslonger,146,m,4.03,4,Social,2,0,1,1,truck,0,,0,3133,LDkidslonger,0,example,TRUE,1,v2,social,RDkidslonger,146,m,4.03,4,Social,3,0,1,1,Novel17,1,Novel17,1,1656,straightaheadlonger,-1,exposure,TRUE,1,v2,social,RDkidslonger,146,m,4.03,4,Social,4,0,1,1,Novel17,1,Novel17,1,1446,RDkidslonger,1,test,TRUE,1,v2,social,RDkidslonger,146,m,4.03,4,Social,5,1,1,0,Novel10,0,Novel10,0,2105,straightaheadlonger,-1,exposure,TRUE,1,v2,social,LDkidslonger,046,m,4.03,4,Social,6,1,1,0,Novel10,1,Novel10,0,1561,LDkidslonger,0,test,TRUE,1,v2,social,LDkidslonger,046,m,4.03,4,Social,7,2,2,0,Novel18,1,Novel14,0,1499,straightaheadlonger,-1,exposure,TRUE,1,v2,social,RDkidslonger,146,m,4.03,4,Social,8,2,2,0,Novel14,1,Novel14,0,4781,RDkidslonger,1,test,TRUE,1,v2,social,RDkidslonger,146,m,4.03,4,Social,9,3,2,1,Novel28,1,Novel2,0,3462,straightaheadlonger,-1,exposure,TRUE,1,v2,social,RDkidslonger,146,m,4.03,4,Social,10,3,2,1,Novel21,1,Novel2,0,3778,RDkidslonger,1,test,FALSE,1,v2,social,RDkidslonger,146,m,4.03,4,Social,11,4,1,1,Novel6,1,Novel6,1,5220,straightaheadlonger,-1,exposure,TRUE,1,v2,social,RDkidslonger,146,m,4.03,4,Social,12,4,1,1,Novel6,1,Novel6,1,2243,RDkidslonger,1,test,TRUE,1,v2,social,RDkidslonger,146,m,4.03,4,Social,13,5,2,0,Novel26,0,Novel13,1,10433,straightaheadlonger,-1,exposure,TRUE,1,v2,social,LDkidslonger,046,m,4.03,4,Social,14,5,2,0,Novel13,0,Novel13,1,2936,LDkidslonger,0,test,TRUE,1,v2,social,LDkidslonger,047,f,3.02,3,No-social,1,0,1,1,flower,1,,0,5835,RDkidslonger,1,example,TRUE,1,v2,no-social,straightaheadlonger,147,f,3.02,3,No-social,2,0,1,1,tie,1,,0,3188,LDkidslonger,0,example,TRUE,1,v2,no-social,straightaheadlonger,147,f,3.02,3,No-social,3,0,1,1,Novel16,1,Novel16,1,15576,straightaheadlonger,-1,exposure,TRUE,1,v2,no-social,straightaheadlonger,147,f,3.02,3,No-social,4,0,1,1,Novel25,0,Novel16,1,9248,straightaheadlonger,-1,test,FALSE,1,v2,no-social,straightaheadlonger,147,f,3.02,3,No-social,5,1,1,0,Novel22,1,Novel22,1,4544,straightaheadlonger,-1,exposure,TRUE,1,v2,no-social,straightaheadlonger,147,f,3.02,3,No-social,6,1,1,0,Novel3,1,Novel22,1,5861,straightaheadlonger,-1,test,FALSE,1,v2,no-social,straightaheadlonger,147,f,3.02,3,No-social,7,2,2,0,Novel14,1,Novel9,0,3754,straightaheadlonger,-1,exposure,TRUE,1,v2,no-social,straightaheadlonger,147,f,3.02,3,No-social,8,2,2,0,Novel9,1,Novel9,0,4717,straightaheadlonger,-1,test,TRUE,1,v2,no-social,straightaheadlonger,147,f,3.02,3,No-social,9,3,2,1,Novel24,1,Novel8,0,1720,straightaheadlonger,-1,exposure,TRUE,1,v2,no-social,straightaheadlonger,147,f,3.02,3,No-social,10,3,2,1,Novel27,1,Novel8,0,6421,straightaheadlonger,-1,test,FALSE,1,v2,no-social,straightaheadlonger,147,f,3.02,3,No-social,11,4,1,1,Novel7,1,Novel7,1,2906,straightaheadlonger,-1,exposure,TRUE,1,v2,no-social,straightaheadlonger,147,f,3.02,3,No-social,12,4,1,1,Novel7,1,Novel7,1,4713,straightaheadlonger,-1,test,TRUE,1,v2,no-social,straightaheadlonger,147,f,3.02,3,No-social,13,5,2,0,Novel5,1,Novel15,0,4313,straightaheadlonger,-1,exposure,TRUE,1,v2,no-social,straightaheadlonger,147,f,3.02,3,No-social,14,5,2,0,Novel15,1,Novel15,0,2531,straightaheadlonger,-1,test,TRUE,1,v2,no-social,straightaheadlonger,148,f,4.04,4,Social,1,0,1,0,flower,1,,0,7474,RDkidslonger,1,example,TRUE,1,v2,social,LDkidslonger,048,f,4.04,4,Social,2,0,1,0,truck,0,,0,1396,LDkidslonger,0,example,TRUE,1,v2,social,LDkidslonger,048,f,4.04,4,Social,3,0,1,0,Novel21,0,Novel21,0,4979,straightaheadlonger,-1,exposure,TRUE,1,v2,social,LDkidslonger,048,f,4.04,4,Social,4,0,1,0,Novel21,1,Novel21,0,1655,LDkidslonger,0,test,TRUE,1,v2,social,LDkidslonger,048,f,4.04,4,Social,5,1,1,1,Novel25,0,Novel25,0,1348,straightaheadlonger,-1,exposure,TRUE,1,v2,social,LDkidslonger,048,f,4.04,4,Social,6,1,1,1,Novel25,0,Novel25,0,1770,LDkidslonger,0,test,TRUE,1,v2,social,LDkidslonger,048,f,4.04,4,Social,7,2,2,0,Novel27,1,Novel12,0,5161,straightaheadlonger,-1,exposure,TRUE,1,v2,social,RDkidslonger,148,f,4.04,4,Social,8,2,2,0,Novel20,0,Novel12,0,5260,RDkidslonger,1,test,FALSE,1,v2,social,RDkidslonger,148,f,4.04,4,Social,9,3,2,1,Novel23,1,Novel6,0,3851,straightaheadlonger,-1,exposure,FALSE,1,v2,social,LDkidslonger,048,f,4.04,4,Social,10,3,2,1,Novel6,0,Novel6,0,2484,LDkidslonger,0,test,TRUE,1,v2,social,LDkidslonger,048,f,4.04,4,Social,11,4,1,0,Novel15,0,Novel15,0,1176,straightaheadlonger,-1,exposure,TRUE,1,v2,social,LDkidslonger,048,f,4.04,4,Social,12,4,1,0,Novel15,1,Novel15,0,10393,LDkidslonger,0,test,TRUE,1,v2,social,LDkidslonger,048,f,4.04,4,Social,13,5,2,1,Novel14,1,Novel11,0,1508,straightaheadlonger,-1,exposure,TRUE,1,v2,social,RDkidslonger,148,f,4.04,4,Social,14,5,2,1,Novel11,0,Novel11,0,4921,RDkidslonger,1,test,TRUE,1,v2,social,RDkidslonger,149,m,3.11,3,No-social,1,0,1,0,flower,1,,0,21452,RDkidslonger,1,example,TRUE,1,v2,no-social,straightaheadlonger,149,m,3.11,3,No-social,2,0,1,0,truck,0,,0,5146,LDkidslonger,0,example,TRUE,1,v2,no-social,straightaheadlonger,149,m,3.11,3,No-social,3,0,1,0,Novel7,1,Novel7,1,9262,straightaheadlonger,-1,exposure,TRUE,1,v2,no-social,straightaheadlonger,149,m,3.11,3,No-social,4,0,1,0,Novel7,0,Novel7,1,2954,straightaheadlonger,-1,test,TRUE,1,v2,no-social,straightaheadlonger,149,m,3.11,3,No-social,5,1,1,1,Novel10,1,Novel10,1,7063,straightaheadlonger,-1,exposure,TRUE,1,v2,no-social,straightaheadlonger,149,m,3.11,3,No-social,6,1,1,1,Novel10,1,Novel10,1,4077,straightaheadlonger,-1,test,TRUE,1,v2,no-social,straightaheadlonger,149,m,3.11,3,No-social,7,2,2,0,Novel9,1,Novel23,0,7263,straightaheadlonger,-1,exposure,TRUE,1,v2,no-social,straightaheadlonger,149,m,3.11,3,No-social,8,2,2,0,Novel17,0,Novel23,0,3629,straightaheadlonger,-1,test,FALSE,1,v2,no-social,straightaheadlonger,149,m,3.11,3,No-social,9,3,2,1,Novel13,1,Novel6,0,3386,straightaheadlonger,-1,exposure,TRUE,1,v2,no-social,straightaheadlonger,149,m,3.11,3,No-social,10,3,2,1,Novel18,1,Novel6,0,6279,straightaheadlonger,-1,test,FALSE,1,v2,no-social,straightaheadlonger,149,m,3.11,3,No-social,11,4,1,0,Novel1,1,Novel1,1,7407,straightaheadlonger,-1,exposure,TRUE,1,v2,no-social,straightaheadlonger,149,m,3.11,3,No-social,12,4,1,0,Novel1,0,Novel1,1,9203,straightaheadlonger,-1,test,TRUE,1,v2,no-social,straightaheadlonger,149,m,3.11,3,No-social,13,5,2,1,Novel19,0,Novel3,1,3102,straightaheadlonger,-1,exposure,FALSE,1,v2,no-social,straightaheadlonger,149,m,3.11,3,No-social,14,5,2,1,Novel11,0,Novel3,1,3352,straightaheadlonger,-1,test,FALSE,1,v2,no-social,straightaheadlonger,150,m,4.06,4,Social,1,0,1,0,flower,1,,0,3905,RDkidslonger,1,example,TRUE,1,v2,social,RDkidslonger,150,m,4.06,4,Social,2,0,1,0,truck,0,,0,1052,LDkidslonger,0,example,TRUE,1,v2,social,RDkidslonger,150,m,4.06,4,Social,3,0,1,0,Novel3,1,Novel3,1,6276,straightaheadlonger,-1,exposure,TRUE,1,v2,social,RDkidslonger,150,m,4.06,4,Social,4,0,1,0,Novel3,0,Novel3,1,2845,RDkidslonger,1,test,TRUE,1,v2,social,RDkidslonger,150,m,4.06,4,Social,5,1,1,1,Novel18,1,Novel18,1,6635,straightaheadlonger,-1,exposure,TRUE,1,v2,social,RDkidslonger,150,m,4.06,4,Social,6,1,1,1,Novel11,0,Novel18,1,2538,RDkidslonger,1,test,FALSE,1,v2,social,RDkidslonger,150,m,4.06,4,Social,7,2,2,1,Novel23,1,Novel8,0,2068,straightaheadlonger,-1,exposure,TRUE,1,v2,social,RDkidslonger,150,m,4.06,4,Social,8,2,2,1,Novel8,0,Novel8,0,9145,RDkidslonger,1,test,TRUE,1,v2,social,RDkidslonger,150,m,4.06,4,Social,9,3,2,0,Novel9,0,Novel14,1,9727,straightaheadlonger,-1,exposure,TRUE,1,v2,social,LDkidslonger,050,m,4.06,4,Social,10,3,2,0,Novel14,0,Novel14,1,2367,LDkidslonger,0,test,TRUE,1,v2,social,LDkidslonger,050,m,4.06,4,Social,11,4,1,0,Novel26,1,Novel26,1,5388,straightaheadlonger,-1,exposure,TRUE,1,v2,social,RDkidslonger,150,m,4.06,4,Social,12,4,1,0,Novel26,0,Novel26,1,7400,RDkidslonger,1,test,TRUE,1,v2,social,RDkidslonger,150,m,4.06,4,Social,13,5,2,1,Novel27,0,Novel21,1,2245,straightaheadlonger,-1,exposure,TRUE,1,v2,social,LDkidslonger,050,m,4.06,4,Social,14,5,2,1,Novel21,1,Novel21,1,7117,LDkidslonger,0,test,TRUE,1,v2,social,LDkidslonger,051,m,4,4,No-social,1,0,1,1,flower,1,,0,5630,RDkidslonger,1,example,TRUE,1,v2,no-social,straightaheadlonger,151,m,4,4,No-social,2,0,1,1,truck,0,,0,4420,LDkidslonger,0,example,TRUE,1,v2,no-social,straightaheadlonger,151,m,4,4,No-social,3,0,1,1,Novel11,1,Novel11,1,6313,straightaheadlonger,-1,exposure,TRUE,1,v2,no-social,straightaheadlonger,151,m,4,4,No-social,4,0,1,1,Novel2,0,Novel11,1,2550,straightaheadlonger,-1,test,FALSE,1,v2,no-social,straightaheadlonger,151,m,4,4,No-social,5,1,1,0,Novel28,0,Novel28,0,1833,straightaheadlonger,-1,exposure,FALSE,1,v2,no-social,straightaheadlonger,151,m,4,4,No-social,6,1,1,0,Novel28,1,Novel28,0,2932,straightaheadlonger,-1,test,TRUE,1,v2,no-social,straightaheadlonger,151,m,4,4,No-social,7,2,2,1,Novel14,1,Novel3,0,2684,straightaheadlonger,-1,exposure,TRUE,1,v2,no-social,straightaheadlonger,151,m,4,4,No-social,8,2,2,1,Novel3,0,Novel3,0,6899,straightaheadlonger,-1,test,TRUE,1,v2,no-social,straightaheadlonger,151,m,4,4,No-social,9,3,2,0,Novel6,0,Novel25,1,894,straightaheadlonger,-1,exposure,FALSE,1,v2,no-social,straightaheadlonger,151,m,4,4,No-social,10,3,2,0,Novel13,1,Novel25,1,1917,straightaheadlonger,-1,test,FALSE,1,v2,no-social,straightaheadlonger,151,m,4,4,No-social,11,4,1,1,Novel1,1,Novel1,1,3517,straightaheadlonger,-1,exposure,TRUE,1,v2,no-social,straightaheadlonger,151,m,4,4,No-social,12,4,1,1,Novel24,0,Novel1,1,2243,straightaheadlonger,-1,test,FALSE,1,v2,no-social,straightaheadlonger,151,m,4,4,No-social,13,5,2,0,Novel19,1,Novel4,0,2970,straightaheadlonger,-1,exposure,TRUE,1,v2,no-social,straightaheadlonger,151,m,4,4,No-social,14,5,2,0,Novel4,1,Novel4,0,3900,straightaheadlonger,-1,test,TRUE,1,v2,no-social,straightaheadlonger,1