subid,gender,age,age_bin,condition,trial,itemNum,trialType,samePos,chosen,chosen_idx,kept,kept_idx,rt,faceVid,faceIdx,trial_cat,correct,include,version_expt,condition_expt,trial_type_redo,chosen_exposure,kept_exposure,correct_exposure,faceVid_expo,faceVid_expo_idx1,f,4.85,4,Social,4,0,1,0,Novel2,1,Novel2,0,1897,LDkidslonger,0,test,TRUE,0,pilot,social,Same,Novel2,Novel2,TRUE,NA,NA1,f,4.85,4,Social,6,1,1,1,Novel13,1,Novel5,0,2076,RDkidslonger,1,test,FALSE,0,pilot,social,Switch,Novel11,Novel5,TRUE,NA,NA1,f,4.85,4,Social,8,2,2,1,Novel6,0,Novel6,0,2398,LDkidslonger,0,test,TRUE,0,pilot,social,Switch,Novel23,Novel6,FALSE,NA,NA1,f,4.85,4,Social,10,3,2,0,Novel7,0,Novel4,0,1803,LDkidslonger,0,test,FALSE,0,pilot,social,Switch,Novel22,Novel4,FALSE,NA,NA1,f,4.85,4,Social,12,4,1,[undefined],Novel25,0,Novel27,0,2192,LDkidslonger,0,test,FALSE,0,pilot,social,Same,Novel27,Novel27,TRUE,NA,NA1,f,4.85,4,Social,14,5,2,[undefined],Novel8,0,Novel20,0,1568,RDkidslonger,1,test,FALSE,0,pilot,social,Same,Novel20,Novel20,FALSE,NA,NA2,m,3.37,3,Social,4,0,1,1,Novel9,1,Novel15,0,8708,RDkidslonger,1,test,FALSE,0,pilot,social,Switch,Novel6,Novel15,TRUE,NA,NA2,m,3.37,3,Social,6,1,1,0,Novel13,1,Novel13,0,2801,LDkidslonger,0,test,TRUE,0,pilot,social,Same,Novel13,Novel13,TRUE,NA,NA2,m,3.37,3,Social,8,2,2,1,Novel23,0,Novel11,1,3714,RDkidslonger,1,test,FALSE,0,pilot,social,Switch,Novel22,Novel11,FALSE,NA,NA2,m,3.37,3,Social,10,3,2,0,Novel12,0,Novel12,1,4856,LDkidslonger,0,test,TRUE,0,pilot,social,Switch,Novel21,Novel12,TRUE,NA,NA2,m,3.37,3,Social,12,4,1,[undefined],Novel19,0,Novel17,0,21426,RDkidslonger,1,test,FALSE,0,pilot,social,Same,Novel17,Novel17,FALSE,NA,NA2,m,3.37,3,Social,14,5,2,[undefined],Novel7,1,Novel18,1,23307,LDkidslonger,0,test,FALSE,0,pilot,social,Switch,Novel8,Novel18,TRUE,NA,NA3,f,5.68,5,Social,4,0,1,0,Novel21,0,Novel28,0,8497,LDkidslonger,0,test,FALSE,0,pilot,social,Switch,Novel24,Novel28,FALSE,NA,NA3,f,5.68,5,Social,6,1,1,1,Novel6,1,Novel27,0,2789,LDkidslonger,0,test,FALSE,0,pilot,social,Same,Novel27,Novel27,TRUE,NA,NA3,f,5.68,5,Social,8,2,2,0,Novel25,0,Novel23,0,4436,RDkidslonger,1,test,FALSE,0,pilot,social,Same,Novel23,Novel23,FALSE,NA,NA3,f,5.68,5,Social,10,3,2,1,Novel26,0,Novel26,0,2127,LDkidslonger,0,test,TRUE,0,pilot,social,Switch,Novel9,Novel26,FALSE,NA,NA3,f,5.68,5,Social,12,4,1,[undefined],Novel19,0,Novel4,0,7676,LDkidslonger,0,test,FALSE,0,pilot,social,Switch,Novel7,Novel4,FALSE,NA,NA3,f,5.68,5,Social,14,5,2,[undefined],Novel11,0,Novel22,0,8400,LDkidslonger,0,test,FALSE,0,pilot,social,Same,Novel22,Novel22,TRUE,NA,NA4,f,4.77,4,Social,4,0,1,1,Novel19,0,Novel19,0,3707,LDkidslonger,0,test,TRUE,0,pilot,social,Same,Novel19,Novel19,TRUE,NA,NA4,f,4.77,4,Social,6,1,1,0,Novel26,1,Novel26,0,1165,RDkidslonger,1,test,TRUE,0,pilot,social,Same,Novel26,Novel26,FALSE,NA,NA4,f,4.77,4,Social,8,2,2,0,Novel21,0,Novel21,1,1166,RDkidslonger,1,test,TRUE,0,pilot,social,Same,Novel21,Novel21,TRUE,NA,NA4,f,4.77,4,Social,10,3,2,1,Novel24,1,Novel24,1,2029,LDkidslonger,0,test,TRUE,0,pilot,social,Same,Novel24,Novel24,FALSE,NA,NA4,f,4.77,4,Social,12,4,1,[undefined],Novel23,1,Novel23,0,7442,RDkidslonger,1,test,TRUE,0,pilot,social,Switch,Novel17,Novel23,TRUE,NA,NA4,f,4.77,4,Social,14,5,2,[undefined],Novel18,1,Novel18,0,1341,RDkidslonger,1,test,TRUE,0,pilot,social,Same,Novel18,Novel18,FALSE,NA,NA5,f,5.19,5,Social,4,0,1,1,Novel12,1,Novel28,0,13488,RDkidslonger,1,test,FALSE,1,v1,social,Switch,Novel26,Novel28,TRUE,NA,NA5,f,5.19,5,Social,6,1,1,0,Novel17,1,Novel17,0,2751,LDkidslonger,0,test,TRUE,1,v1,social,Same,Novel17,Novel17,TRUE,NA,NA5,f,5.19,5,Social,8,2,2,1,Novel14,1,Novel23,0,1472,RDkidslonger,1,test,FALSE,1,v1,social,Switch,Novel13,Novel23,TRUE,NA,NA5,f,5.19,5,Social,10,3,2,0,Novel24,0,Novel24,1,1047,LDkidslonger,0,test,TRUE,1,v1,social,Switch,Novel9,Novel24,TRUE,NA,NA5,f,5.19,5,Social,12,4,1,1,Novel15,1,Novel18,0,1341,RDkidslonger,1,test,FALSE,1,v1,social,Switch,Novel16,Novel18,TRUE,NA,NA5,f,5.19,5,Social,14,5,2,0,Novel5,0,Novel5,1,7918,LDkidslonger,0,test,TRUE,1,v1,social,Switch,Novel22,Novel5,TRUE,NA,NA6,m,5.16,5,Social,4,0,1,1,Novel17,0,Novel17,0,1836,LDkidslonger,0,test,TRUE,1,v1,social,Same,Novel17,Novel17,TRUE,NA,NA6,m,5.16,5,Social,6,1,1,0,Novel6,1,Novel6,0,4917,LDkidslonger,0,test,TRUE,1,v1,social,Same,Novel6,Novel6,TRUE,NA,NA6,m,5.16,5,Social,8,2,2,1,Novel28,0,Novel3,1,3092,LDkidslonger,0,test,FALSE,1,v1,social,Switch,Novel7,Novel3,TRUE,NA,NA6,m,5.16,5,Social,10,3,2,0,Novel10,1,Novel10,0,1827,RDkidslonger,1,test,TRUE,1,v1,social,Switch,Novel4,Novel10,TRUE,NA,NA6,m,5.16,5,Social,12,4,1,1,Novel15,0,Novel15,0,441,LDkidslonger,0,test,TRUE,1,v1,social,Same,Novel15,Novel15,TRUE,NA,NA6,m,5.16,5,Social,14,5,2,0,Novel16,0,Novel16,1,2080,RDkidslonger,1,test,TRUE,1,v1,social,Same,Novel16,Novel16,TRUE,NA,NA7,f,4.67,4,Social,4,0,1,1,Novel16,1,Novel28,0,1916,RDkidslonger,1,test,FALSE,1,v1,social,Switch,Novel5,Novel28,TRUE,NA,NA7,f,4.67,4,Social,6,1,1,0,Novel13,0,Novel14,0,1155,RDkidslonger,1,test,FALSE,1,v1,social,Same,Novel14,Novel14,FALSE,NA,NA7,f,4.67,4,Social,8,2,2,0,Novel11,0,Novel11,1,2023,LDkidslonger,0,test,TRUE,1,v1,social,Switch,Novel21,Novel11,TRUE,NA,NA7,f,4.67,4,Social,10,3,2,1,Novel17,0,Novel17,0,867,LDkidslonger,0,test,TRUE,1,v1,social,Same,Novel17,Novel17,TRUE,NA,NA7,f,4.67,4,Social,12,4,1,1,Novel12,0,Novel12,0,1209,RDkidslonger,1,test,TRUE,1,v1,social,Switch,Novel22,Novel12,TRUE,NA,NA7,f,4.67,4,Social,14,5,2,0,Novel6,1,Novel19,1,1881,RDkidslonger,1,test,FALSE,1,v1,social,Same,Novel19,Novel19,TRUE,NA,NA8,f,4.05,4,Social,4,0,1,0,Novel19,1,Novel19,0,4361,RDkidslonger,1,test,TRUE,1,v1,social,Switch,Novel22,Novel19,TRUE,NA,NA8,f,4.05,4,Social,6,1,1,1,Novel18,0,Novel18,0,3084,LDkidslonger,0,test,TRUE,1,v1,social,Same,Novel18,Novel18,TRUE,NA,NA8,f,4.05,4,Social,8,2,2,1,Novel25,0,Novel25,0,1441,LDkidslonger,0,test,TRUE,1,v1,social,Same,Novel25,Novel25,TRUE,NA,NA8,f,4.05,4,Social,10,3,2,0,Novel3,0,Novel3,1,2667,RDkidslonger,1,test,TRUE,1,v1,social,Same,Novel3,Novel3,TRUE,NA,NA8,f,4.05,4,Social,12,4,1,0,Novel14,0,Novel20,0,1530,LDkidslonger,0,test,FALSE,1,v1,social,Same,Novel20,Novel20,TRUE,NA,NA8,f,4.05,4,Social,14,5,2,1,Novel8,1,Novel1,0,6087,RDkidslonger,1,test,FALSE,1,v1,social,Switch,Novel27,Novel1,TRUE,NA,NA9,m,4.21,4,No-social,4,0,1,0,Novel16,1,Novel16,0,1930,straightaheadlonger,-1,test,TRUE,1,v1,no-social,Same,Novel16,Novel16,FALSE,NA,NA9,m,4.21,4,No-social,6,1,1,1,Novel17,0,Novel17,0,3406,straightaheadlonger,-1,test,TRUE,1,v1,no-social,Same,Novel17,Novel17,FALSE,NA,NA9,m,4.21,4,No-social,8,2,2,0,Novel6,0,Novel9,0,3686,straightaheadlonger,-1,test,FALSE,1,v1,no-social,Switch,Novel2,Novel9,FALSE,NA,NA9,m,4.21,4,No-social,10,3,2,1,Novel28,1,Novel4,0,1839,straightaheadlonger,-1,test,FALSE,1,v1,no-social,Switch,Novel18,Novel4,FALSE,NA,NA9,m,4.21,4,No-social,12,4,1,0,Novel13,1,Novel13,0,4052,straightaheadlonger,-1,test,TRUE,1,v1,no-social,Switch,Novel1,Novel13,FALSE,NA,NA9,m,4.21,4,No-social,14,5,2,1,Novel15,1,Novel21,0,1102,straightaheadlonger,-1,test,FALSE,1,v1,no-social,Switch,Novel23,Novel21,FALSE,NA,NA10,m,4.01,4,No-social,4,0,1,0,Novel8,1,Novel8,0,8687,straightaheadlonger,-1,test,TRUE,1,v1,no-social,Same,Novel8,Novel8,FALSE,NA,NA10,m,4.01,4,No-social,6,1,1,1,Novel9,0,Novel9,0,3547,straightaheadlonger,-1,test,TRUE,1,v1,no-social,Switch,Novel11,Novel9,FALSE,NA,NA10,m,4.01,4,No-social,8,2,2,1,Novel2,1,Novel20,0,9175,straightaheadlonger,-1,test,FALSE,1,v1,no-social,Switch,Novel5,Novel20,FALSE,NA,NA10,m,4.01,4,No-social,10,3,2,0,Novel22,0,Novel24,0,2808,straightaheadlonger,-1,test,FALSE,1,v1,no-social,Same,Novel24,Novel24,FALSE,NA,NA10,m,4.01,4,No-social,12,4,1,0,Novel27,0,Novel28,0,6677,straightaheadlonger,-1,test,FALSE,1,v1,no-social,Switch,Novel23,Novel28,FALSE,NA,NA10,m,4.01,4,No-social,14,5,2,1,Novel17,1,Novel17,1,5001,straightaheadlonger,-1,test,TRUE,1,v1,no-social,Same,Novel17,Novel17,FALSE,NA,NA11,f,4.28,4,No-social,4,0,1,0,Novel4,1,Novel4,0,2720,straightaheadlonger,-1,test,TRUE,1,v1,no-social,Same,Novel4,Novel4,FALSE,NA,NA11,f,4.28,4,No-social,6,1,1,1,Novel15,0,Novel15,0,2492,straightaheadlonger,-1,test,TRUE,1,v1,no-social,Switch,Novel6,Novel15,FALSE,NA,NA11,f,4.28,4,No-social,8,2,2,1,Novel3,0,Novel3,0,5466,straightaheadlonger,-1,test,TRUE,1,v1,no-social,Switch,Novel11,Novel3,FALSE,NA,NA11,f,4.28,4,No-social,10,3,2,0,Novel28,0,Novel28,1,5831,straightaheadlonger,-1,test,TRUE,1,v1,no-social,Switch,Novel22,Novel28,FALSE,NA,NA11,f,4.28,4,No-social,12,4,1,0,Novel25,1,Novel25,0,12971,straightaheadlonger,-1,test,TRUE,1,v1,no-social,Same,Novel25,Novel25,FALSE,NA,NA11,f,4.28,4,No-social,14,5,2,1,Novel13,1,Novel13,1,802,straightaheadlonger,-1,test,TRUE,1,v1,no-social,Same,Novel13,Novel13,FALSE,NA,NA12,f,4.15,4,Social,4,0,1,0,Novel14,0,Novel10,0,8861,RDkidslonger,1,test,FALSE,1,v1,social,Switch,Novel25,Novel10,TRUE,NA,NA12,f,4.15,4,Social,6,1,1,1,Novel6,0,Novel6,0,24108,LDkidslonger,0,test,TRUE,1,v1,social,Switch,Novel26,Novel6,FALSE,NA,NA12,f,4.15,4,Social,8,2,2,0,Novel19,0,Novel19,1,7243,LDkidslonger,0,test,TRUE,1,v1,social,Switch,Novel1,Novel19,TRUE,NA,NA12,f,4.15,4,Social,10,3,2,1,Novel15,0,Novel13,1,5473,LDkidslonger,0,test,FALSE,1,v1,social,Switch,Novel3,Novel13,TRUE,NA,NA12,f,4.15,4,Social,12,4,1,0,Novel20,0,Novel27,0,14787,LDkidslonger,0,test,FALSE,1,v1,social,Switch,Novel5,Novel27,FALSE,NA,NA12,f,4.15,4,Social,14,5,2,1,Novel7,0,Novel4,1,12408,LDkidslonger,0,test,FALSE,1,v1,social,Switch,Novel28,Novel4,TRUE,NA,NA13,m,4.24,4,Social,4,0,1,1,Novel21,0,Novel21,0,5273,LDkidslonger,0,test,TRUE,1,v1,social,Same,Novel21,Novel21,TRUE,NA,NA13,m,4.24,4,Social,6,1,1,0,Novel18,1,Novel18,0,4209,LDkidslonger,0,test,TRUE,1,v1,social,Same,Novel18,Novel18,TRUE,NA,NA13,m,4.24,4,Social,8,2,2,0,Novel7,0,Novel7,1,13936,RDkidslonger,1,test,TRUE,1,v1,social,Same,Novel7,Novel7,TRUE,NA,NA13,m,4.24,4,Social,10,3,2,1,Novel9,1,Novel9,1,1890,RDkidslonger,1,test,TRUE,1,v1,social,Same,Novel9,Novel9,TRUE,NA,NA13,m,4.24,4,Social,12,4,1,1,Novel5,0,Novel5,0,1518,LDkidslonger,0,test,TRUE,1,v1,social,Same,Novel5,Novel5,TRUE,NA,NA13,m,4.24,4,Social,14,5,2,0,Novel27,0,Novel27,1,19979,RDkidslonger,1,test,TRUE,1,v1,social,Same,Novel27,Novel27,TRUE,NA,NA14,f,5.09,5,No-social,4,0,1,1,Novel19,1,Novel18,0,4408,straightaheadlonger,-1,test,FALSE,1,v1,no-social,Switch,Novel3,Novel18,FALSE,NA,NA14,f,5.09,5,No-social,6,1,1,0,Novel15,1,Novel15,0,4669,straightaheadlonger,-1,test,TRUE,1,v1,no-social,Same,Novel15,Novel15,FALSE,NA,NA14,f,5.09,5,No-social,8,2,2,0,Novel24,0,Novel28,0,5645,straightaheadlonger,-1,test,FALSE,1,v1,no-social,Switch,Novel27,Novel28,FALSE,NA,NA14,f,5.09,5,No-social,10,3,2,1,Novel7,1,Novel25,0,4536,straightaheadlonger,-1,test,FALSE,1,v1,no-social,Switch,Novel14,Novel25,FALSE,NA,NA14,f,5.09,5,No-social,12,4,1,1,Novel9,0,Novel9,0,3151,straightaheadlonger,-1,test,TRUE,1,v1,no-social,Same,Novel9,Novel9,FALSE,NA,NA14,f,5.09,5,No-social,14,5,2,0,Novel13,1,Novel13,0,2029,straightaheadlonger,-1,test,TRUE,1,v1,no-social,Same,Novel13,Novel13,FALSE,NA,NA15,f,5.22,5,Social,4,0,1,1,Novel27,0,Novel27,0,6785,LDkidslonger,0,test,TRUE,1,v1,social,Same,Novel27,Novel27,TRUE,NA,NA15,f,5.22,5,Social,6,1,1,0,Novel10,0,Novel20,0,5257,RDkidslonger,1,test,FALSE,1,v1,social,Switch,Novel15,Novel20,TRUE,NA,NA15,f,5.22,5,Social,8,2,2,1,Novel21,1,Novel21,1,8114,LDkidslonger,0,test,TRUE,1,v1,social,Switch,Novel1,Novel21,TRUE,NA,NA15,f,5.22,5,Social,10,3,2,0,Novel12,0,Novel12,1,3571,LDkidslonger,0,test,TRUE,1,v1,social,Switch,Novel5,Novel12,TRUE,NA,NA15,f,5.22,5,Social,12,4,1,1,Novel18,0,Novel18,0,1198,LDkidslonger,0,test,TRUE,1,v1,social,Same,Novel18,Novel18,TRUE,NA,NA15,f,5.22,5,Social,14,5,2,0,Novel11,0,Novel11,1,5009,LDkidslonger,0,test,TRUE,1,v1,social,Switch,Novel24,Novel11,TRUE,NA,NA16,m,5.15,5,No-social,4,0,1,1,Novel10,1,Novel3,0,3706,straightaheadlonger,-1,test,FALSE,1,v1,no-social,Switch,Novel5,Novel3,FALSE,NA,NA16,m,5.15,5,No-social,6,1,1,0,Novel19,1,Novel19,0,1133,straightaheadlonger,-1,test,TRUE,1,v1,no-social,Switch,Novel15,Novel19,FALSE,NA,NA16,m,5.15,5,No-social,8,2,2,0,Novel20,0,Novel26,0,3804,straightaheadlonger,-1,test,FALSE,1,v1,no-social,Switch,Novel18,Novel26,FALSE,NA,NA16,m,5.15,5,No-social,10,3,2,1,Novel21,0,Novel23,1,1219,straightaheadlonger,-1,test,FALSE,1,v1,no-social,Switch,Novel4,Novel23,FALSE,NA,NA16,m,5.15,5,No-social,12,4,1,1,Novel1,0,Novel1,0,1611,straightaheadlonger,-1,test,TRUE,1,v1,no-social,Same,Novel1,Novel1,FALSE,NA,NA16,m,5.15,5,No-social,14,5,2,0,Novel11,0,Novel11,1,1070,straightaheadlonger,-1,test,TRUE,1,v1,no-social,Switch,Novel24,Novel11,FALSE,NA,NA17,m,3.93,3,Social,4,0,1,0,Novel3,1,Novel3,0,2225,LDkidslonger,0,test,TRUE,1,v1,social,Same,Novel3,Novel3,TRUE,NA,NA17,m,3.93,3,Social,6,1,1,1,Novel23,0,Novel23,0,1240,LDkidslonger,0,test,TRUE,1,v1,social,Same,Novel23,Novel23,TRUE,NA,NA17,m,3.93,3,Social,8,2,2,0,Novel8,1,Novel8,0,8006,RDkidslonger,1,test,TRUE,1,v1,social,Switch,Novel13,Novel8,TRUE,NA,NA17,m,3.93,3,Social,10,3,2,1,Novel14,1,Novel15,0,1046,RDkidslonger,1,test,FALSE,1,v1,social,Switch,Novel27,Novel15,TRUE,NA,NA17,m,3.93,3,Social,12,4,1,0,Novel9,1,Novel9,0,979,RDkidslonger,1,test,TRUE,1,v1,social,Switch,Novel20,Novel9,TRUE,NA,NA17,m,3.93,3,Social,14,5,2,1,Novel25,1,Novel16,0,1042,RDkidslonger,1,test,FALSE,1,v1,social,Switch,Novel24,Novel16,TRUE,NA,NA18,f,5.65,5,No-social,4,0,1,1,Novel5,0,Novel5,0,7747,straightaheadlonger,-1,test,TRUE,1,v1,no-social,Switch,Novel17,Novel5,FALSE,NA,NA18,f,5.65,5,No-social,6,1,1,0,Novel15,1,Novel15,0,2638,straightaheadlonger,-1,test,TRUE,1,v1,no-social,Same,Novel15,Novel15,FALSE,NA,NA18,f,5.65,5,No-social,8,2,2,1,Novel28,0,Novel20,1,1431,straightaheadlonger,-1,test,FALSE,1,v1,no-social,Switch,Novel10,Novel20,FALSE,NA,NA18,f,5.65,5,No-social,10,3,2,0,Novel9,1,Novel22,1,2380,straightaheadlonger,-1,test,FALSE,1,v1,no-social,Switch,Novel24,Novel22,FALSE,NA,NA18,f,5.65,5,No-social,12,4,1,1,Novel11,1,Novel25,0,1673,straightaheadlonger,-1,test,FALSE,1,v1,no-social,Same,Novel25,Novel25,FALSE,NA,NA18,f,5.65,5,No-social,14,5,2,0,Novel21,0,Novel21,1,1681,straightaheadlonger,-1,test,TRUE,1,v1,no-social,Same,Novel21,Novel21,FALSE,NA,NA19,m,4.28,4,Social,4,0,1,1,Novel3,0,Novel3,0,2285,LDkidslonger,0,test,TRUE,1,v1,social,Same,Novel3,Novel3,TRUE,NA,NA19,m,4.28,4,Social,6,1,1,0,Novel20,1,Novel20,0,3524,RDkidslonger,1,test,TRUE,1,v1,social,Switch,Novel5,Novel20,TRUE,NA,NA19,m,4.28,4,Social,8,2,2,0,Novel19,0,Novel17,0,3345,LDkidslonger,0,test,FALSE,1,v1,social,Same,Novel17,Novel17,TRUE,NA,NA19,m,4.28,4,Social,10,3,2,1,Novel4,1,Novel4,1,2382,RDkidslonger,1,test,TRUE,1,v1,social,Same,Novel4,Novel4,TRUE,NA,NA19,m,4.28,4,Social,12,4,1,1,Novel1,0,Novel1,0,1781,LDkidslonger,0,test,TRUE,1,v1,social,Same,Novel1,Novel1,TRUE,NA,NA19,m,4.28,4,Social,14,5,2,0,Novel9,0,Novel25,0,4264,LDkidslonger,0,test,FALSE,1,v1,social,Same,Novel25,Novel25,TRUE,NA,NA20,f,4.86,4,No-social,4,0,1,0,Novel12,0,Novel15,0,3680,straightaheadlonger,-1,test,FALSE,1,v1,no-social,Switch,Novel11,Novel15,FALSE,NA,NA20,f,4.86,4,No-social,6,1,1,1,Novel22,1,Novel4,0,1966,straightaheadlonger,-1,test,FALSE,1,v1,no-social,Switch,Novel1,Novel4,FALSE,NA,NA20,f,4.86,4,No-social,8,2,2,0,Novel6,0,Novel5,0,1762,straightaheadlonger,-1,test,FALSE,1,v1,no-social,Switch,Novel14,Novel5,FALSE,NA,NA20,f,4.86,4,No-social,10,3,2,1,Novel23,0,Novel3,1,1290,straightaheadlonger,-1,test,FALSE,1,v1,no-social,Switch,Novel20,Novel3,FALSE,NA,NA20,f,4.86,4,No-social,12,4,1,0,Novel8,1,Novel8,0,1813,straightaheadlonger,-1,test,TRUE,1,v1,no-social,Same,Novel8,Novel8,FALSE,NA,NA20,f,4.86,4,No-social,14,5,2,1,Novel28,0,Novel17,1,1310,straightaheadlonger,-1,test,FALSE,1,v1,no-social,Switch,Novel18,Novel17,FALSE,NA,NA21,f,3.14,3,Social,4,0,1,0,Novel15,1,Novel15,0,15736,RDkidslonger,1,test,TRUE,1,v1,social,Switch,Novel8,Novel15,TRUE,NA,NA21,f,3.14,3,Social,6,1,1,1,Novel10,1,Novel6,0,20725,RDkidslonger,1,test,FALSE,1,v1,social,Switch,Novel13,Novel6,TRUE,NA,NA21,f,3.14,3,Social,8,2,2,0,Novel1,1,Novel3,1,1904,RDkidslonger,1,test,FALSE,1,v1,social,Same,Novel3,Novel3,TRUE,NA,NA21,f,3.14,3,Social,10,3,2,1,Novel7,0,Novel7,0,2349,RDkidslonger,1,test,TRUE,1,v1,social,Switch,Novel5,Novel7,TRUE,NA,NA21,f,3.14,3,Social,12,4,1,0,Novel27,1,Novel27,0,1541,RDkidslonger,1,test,TRUE,1,v1,social,Switch,Novel16,Novel27,TRUE,NA,NA21,f,3.14,3,Social,14,5,2,1,Novel12,0,Novel12,0,1810,LDkidslonger,0,test,TRUE,1,v1,social,Same,Novel12,Novel12,TRUE,NA,NA22,m,4.87,4,No-social,4,0,1,1,Novel3,0,Novel3,0,6534,straightaheadlonger,-1,test,TRUE,1,v1,no-social,Switch,Novel8,Novel3,FALSE,NA,NA22,m,4.87,4,No-social,6,1,1,0,Novel24,0,Novel16,0,1682,straightaheadlonger,-1,test,FALSE,1,v1,no-social,Same,Novel16,Novel16,FALSE,NA,NA22,m,4.87,4,No-social,8,2,2,1,Novel1,0,Novel1,0,2103,straightaheadlonger,-1,test,TRUE,1,v1,no-social,Same,Novel1,Novel1,FALSE,NA,NA22,m,4.87,4,No-social,10,3,2,0,Novel19,1,Novel19,0,8718,straightaheadlonger,-1,test,TRUE,1,v1,no-social,Same,Novel19,Novel19,FALSE,NA,NA22,m,4.87,4,No-social,12,4,1,1,Novel10,0,Novel10,0,3609,straightaheadlonger,-1,test,TRUE,1,v1,no-social,Switch,Novel2,Novel10,FALSE,NA,NA22,m,4.87,4,No-social,14,5,2,0,Novel7,0,Novel21,0,11678,straightaheadlonger,-1,test,FALSE,1,v1,no-social,Same,Novel21,Novel21,FALSE,NA,NA23,f,5.7,5,No-social,4,0,1,0,Novel22,0,Novel15,0,2263,straightaheadlonger,-1,test,FALSE,1,v1,no-social,Switch,Novel7,Novel15,FALSE,NA,NA23,f,5.7,5,No-social,6,1,1,1,Novel11,0,Novel11,0,1185,straightaheadlonger,-1,test,TRUE,1,v1,no-social,Same,Novel11,Novel11,FALSE,NA,NA23,f,5.7,5,No-social,8,2,2,1,Novel9,1,Novel9,1,4342,straightaheadlonger,-1,test,TRUE,1,v1,no-social,Switch,Novel8,Novel9,FALSE,NA,NA23,f,5.7,5,No-social,10,3,2,0,Novel3,1,Novel23,1,1384,straightaheadlonger,-1,test,FALSE,1,v1,no-social,Switch,Novel20,Novel23,FALSE,NA,NA23,f,5.7,5,No-social,12,4,1,0,Novel17,1,Novel17,0,1348,straightaheadlonger,-1,test,TRUE,1,v1,no-social,Same,Novel17,Novel17,FALSE,NA,NA23,f,5.7,5,No-social,14,5,2,1,Novel14,0,Novel24,1,1540,straightaheadlonger,-1,test,FALSE,1,v1,no-social,Switch,Novel13,Novel24,FALSE,NA,NA24,f,4.9,4,Social,4,0,1,0,Novel20,1,Novel20,0,2045,LDkidslonger,0,test,TRUE,1,v1,social,Same,Novel20,Novel20,TRUE,NA,NA24,f,4.9,4,Social,6,1,1,1,Novel21,0,Novel21,0,1719,LDkidslonger,0,test,TRUE,1,v1,social,Same,Novel21,Novel21,TRUE,NA,NA24,f,4.9,4,Social,8,2,2,1,Novel10,1,Novel13,0,6024,RDkidslonger,1,test,FALSE,1,v1,social,Switch,Novel15,Novel13,TRUE,NA,NA24,f,4.9,4,Social,10,3,2,0,Novel27,0,Novel27,1,1056,RDkidslonger,1,test,TRUE,1,v1,social,Same,Novel27,Novel27,TRUE,NA,NA24,f,4.9,4,Social,12,4,1,0,Novel8,1,Novel8,0,2890,LDkidslonger,0,test,TRUE,1,v1,social,Same,Novel8,Novel8,TRUE,NA,NA24,f,4.9,4,Social,14,5,2,1,Novel5,0,Novel25,1,14883,LDkidslonger,0,test,FALSE,1,v1,social,Switch,Novel9,Novel25,TRUE,NA,NA25,f,4.49,4,No-social,4,0,1,0,Novel26,0,Novel18,0,4090,straightaheadlonger,-1,test,FALSE,1,v1,no-social,Switch,Novel28,Novel18,FALSE,NA,NA25,f,4.49,4,No-social,6,1,1,1,Novel5,1,Novel25,0,2036,straightaheadlonger,-1,test,FALSE,1,v1,no-social,Switch,Novel7,Novel25,FALSE,NA,NA25,f,4.49,4,No-social,8,2,2,1,Novel11,1,Novel11,1,1506,straightaheadlonger,-1,test,TRUE,1,v1,no-social,Same,Novel11,Novel11,FALSE,NA,NA25,f,4.49,4,No-social,10,3,2,0,Novel4,1,Novel4,0,3384,straightaheadlonger,-1,test,TRUE,1,v1,no-social,Switch,Novel9,Novel4,FALSE,NA,NA25,f,4.49,4,No-social,12,4,1,0,Novel23,1,Novel23,0,1228,straightaheadlonger,-1,test,TRUE,1,v1,no-social,Same,Novel23,Novel23,FALSE,NA,NA25,f,4.49,4,No-social,14,5,2,1,Novel21,0,Novel21,0,1233,straightaheadlonger,-1,test,TRUE,1,v1,no-social,Same,Novel21,Novel21,FALSE,NA,NA26,m,5.73,5,Social,4,0,1,0,Novel14,0,Novel14,1,7237,RDkidslonger,1,test,TRUE,1,v2,social,Same,Novel14,Novel14,TRUE,NA,NA26,m,5.73,5,Social,6,1,1,1,Novel28,1,Novel28,1,9344,RDkidslonger,1,test,TRUE,1,v2,social,Same,Novel28,Novel28,TRUE,NA,NA26,m,5.73,5,Social,8,2,2,1,Novel13,1,Novel10,0,14620,RDkidslonger,1,test,FALSE,1,v2,social,Switch,Novel19,Novel10,TRUE,NA,NA26,m,5.73,5,Social,10,3,2,0,Novel8,1,Novel8,0,13711,RDkidslonger,1,test,TRUE,1,v2,social,Switch,Novel11,Novel8,TRUE,NA,NA26,m,5.73,5,Social,12,4,1,0,Novel5,0,Novel5,1,1677,RDkidslonger,1,test,TRUE,1,v2,social,Same,Novel5,Novel5,TRUE,NA,NA26,m,5.73,5,Social,14,5,2,1,Novel27,0,Novel1,1,3749,LDkidslonger,0,test,FALSE,1,v2,social,Switch,Novel15,Novel1,TRUE,NA,NA27,m,5.03,5,No-social,4,0,1,0,Novel14,0,Novel14,1,1629,straightaheadlonger,-1,test,TRUE,1,v2,no-social,Same,Novel14,Novel14,FALSE,NA,NA27,m,5.03,5,No-social,6,1,1,1,Novel3,0,Novel3,0,4496,straightaheadlonger,-1,test,TRUE,1,v2,no-social,Same,Novel3,Novel3,FALSE,NA,NA27,m,5.03,5,No-social,8,2,2,0,Novel15,1,Novel15,0,2439,straightaheadlonger,-1,test,TRUE,1,v2,no-social,Switch,Novel22,Novel15,FALSE,NA,NA27,m,5.03,5,No-social,10,3,2,1,Novel17,1,Novel9,0,1980,straightaheadlonger,-1,test,FALSE,1,v2,no-social,Switch,Novel2,Novel9,FALSE,NA,NA27,m,5.03,5,No-social,12,4,1,0,Novel16,1,Novel1,1,1612,straightaheadlonger,-1,test,FALSE,1,v2,no-social,Same,Novel1,Novel1,FALSE,NA,NA27,m,5.03,5,No-social,14,5,2,1,Novel23,0,Novel23,0,4363,straightaheadlonger,-1,test,TRUE,1,v2,no-social,Switch,Novel12,Novel23,FALSE,NA,NA28,m,5.13,5,Social,4,0,1,1,Novel11,0,Novel12,1,1312,LDkidslonger,0,test,FALSE,1,v2,social,Same,Novel12,Novel12,FALSE,NA,NA28,m,5.13,5,Social,6,1,1,0,Novel10,1,Novel27,1,1351,RDkidslonger,1,test,FALSE,1,v2,social,Same,Novel27,Novel27,TRUE,NA,NA28,m,5.13,5,Social,8,2,2,1,Novel21,0,Novel21,0,1145,RDkidslonger,1,test,TRUE,1,v2,social,Switch,Novel14,Novel21,TRUE,NA,NA28,m,5.13,5,Social,10,3,2,0,Novel20,0,Novel24,0,4603,RDkidslonger,1,test,FALSE,1,v2,social,Switch,Novel1,Novel24,TRUE,NA,NA28,m,5.13,5,Social,12,4,1,1,Novel5,0,Novel25,1,2594,RDkidslonger,1,test,FALSE,1,v2,social,Same,Novel25,Novel25,TRUE,NA,NA28,m,5.13,5,Social,14,5,2,0,Novel22,0,Novel22,1,4798,LDkidslonger,0,test,TRUE,1,v2,social,Switch,Novel9,Novel22,TRUE,NA,NA29,f,4.59,4,No-social,4,0,1,0,Novel14,1,Novel14,0,2174,straightaheadlonger,-1,test,TRUE,1,v2,no-social,Same,Novel14,Novel14,FALSE,NA,NA29,f,4.59,4,No-social,6,1,1,1,Novel1,0,Novel25,1,1891,straightaheadlonger,-1,test,FALSE,1,v2,no-social,Same,Novel25,Novel25,FALSE,NA,NA29,f,4.59,4,No-social,8,2,2,0,Novel17,1,Novel17,0,7487,straightaheadlonger,-1,test,TRUE,1,v2,no-social,Switch,Novel11,Novel17,FALSE,NA,NA29,f,4.59,4,No-social,10,3,2,1,Novel18,0,Novel2,1,4216,straightaheadlonger,-1,test,FALSE,1,v2,no-social,Switch,Novel21,Novel2,FALSE,NA,NA29,f,4.59,4,No-social,12,4,1,0,Novel24,1,Novel24,0,8017,straightaheadlonger,-1,test,TRUE,1,v2,no-social,Same,Novel24,Novel24,FALSE,NA,NA29,f,4.59,4,No-social,14,5,2,1,Novel23,0,Novel23,0,4393,straightaheadlonger,-1,test,TRUE,1,v2,no-social,Switch,Novel3,Novel23,FALSE,NA,NA30,f,6.61,6,No-social,4,0,1,0,Novel23,0,Novel23,1,6457,straightaheadlonger,-1,test,TRUE,1,v2,no-social,Same,Novel23,Novel23,FALSE,NA,NA30,f,6.61,6,No-social,6,1,1,1,Novel1,1,Novel1,1,2287,straightaheadlonger,-1,test,TRUE,1,v2,no-social,Same,Novel1,Novel1,FALSE,NA,NA30,f,6.61,6,No-social,8,2,2,0,Novel2,1,Novel4,1,4260,straightaheadlonger,-1,test,FALSE,1,v2,no-social,Switch,Novel11,Novel4,FALSE,NA,NA30,f,6.61,6,No-social,10,3,2,1,Novel13,0,Novel13,0,2965,straightaheadlonger,-1,test,TRUE,1,v2,no-social,Switch,Novel19,Novel13,FALSE,NA,NA30,f,6.61,6,No-social,12,4,1,0,Novel10,0,Novel10,1,1523,straightaheadlonger,-1,test,TRUE,1,v2,no-social,Same,Novel10,Novel10,FALSE,NA,NA30,f,6.61,6,No-social,14,5,2,1,Novel28,1,Novel28,1,4096,straightaheadlonger,-1,test,TRUE,1,v2,no-social,Switch,Novel12,Novel28,FALSE,NA,NA31,m,5.27,5,Social,4,0,1,1,Novel5,1,Novel5,1,10453,RDkidslonger,1,test,TRUE,1,v2,social,Same,Novel5,Novel5,TRUE,NA,NA31,m,5.27,5,Social,6,1,1,0,Novel26,0,Novel26,1,13870,RDkidslonger,1,test,TRUE,1,v2,social,Same,Novel26,Novel26,TRUE,NA,NA31,m,5.27,5,Social,8,2,2,1,Novel9,1,Novel27,0,4152,RDkidslonger,1,test,FALSE,1,v2,social,Switch,Novel28,Novel27,TRUE,NA,NA31,m,5.27,5,Social,10,3,2,0,Novel25,0,Novel25,1,2251,LDkidslonger,0,test,TRUE,1,v2,social,Switch,Novel16,Novel25,TRUE,NA,NA31,m,5.27,5,Social,12,4,1,1,Novel3,1,Novel3,1,3193,RDkidslonger,1,test,TRUE,1,v2,social,Same,Novel3,Novel3,TRUE,NA,NA31,m,5.27,5,Social,14,5,2,0,Novel15,1,Novel15,0,9978,RDkidslonger,1,test,TRUE,1,v2,social,Switch,Novel12,Novel15,TRUE,NA,NA32,f,4.21,4,No-social,4,0,1,1,Novel1,1,Novel22,0,6920,straightaheadlonger,-1,test,FALSE,1,v2,no-social,Same,Novel22,Novel22,FALSE,NA,NA32,f,4.21,4,No-social,6,1,1,0,Novel14,1,Novel14,0,2359,straightaheadlonger,-1,test,TRUE,1,v2,no-social,Same,Novel14,Novel14,FALSE,NA,NA32,f,4.21,4,No-social,8,2,2,0,Novel9,1,Novel9,0,6580,straightaheadlonger,-1,test,TRUE,1,v2,no-social,Switch,Novel25,Novel9,FALSE,NA,NA32,f,4.21,4,No-social,10,3,2,1,Novel6,0,Novel6,0,5298,straightaheadlonger,-1,test,TRUE,1,v2,no-social,Switch,Novel27,Novel6,FALSE,NA,NA32,f,4.21,4,No-social,12,4,1,1,Novel24,1,Novel24,1,6062,straightaheadlonger,-1,test,TRUE,1,v2,no-social,Same,Novel24,Novel24,FALSE,NA,NA32,f,4.21,4,No-social,14,5,2,0,Novel16,1,Novel16,0,2275,straightaheadlonger,-1,test,TRUE,1,v2,no-social,Switch,Novel21,Novel16,FALSE,NA,NA33,m,5.18,5,No-social,4,0,1,0,Novel7,1,Novel7,0,2743,straightaheadlonger,-1,test,TRUE,1,v2,no-social,Same,Novel7,Novel7,FALSE,NA,NA33,m,5.18,5,No-social,6,1,1,1,Novel23,0,Novel23,0,1736,straightaheadlonger,-1,test,TRUE,1,v2,no-social,Same,Novel23,Novel23,FALSE,NA,NA33,m,5.18,5,No-social,8,2,2,0,Novel28,1,Novel27,1,5073,straightaheadlonger,-1,test,FALSE,1,v2,no-social,Switch,Novel11,Novel27,FALSE,NA,NA33,m,5.18,5,No-social,10,3,2,1,Novel24,1,Novel24,1,2889,straightaheadlonger,-1,test,TRUE,1,v2,no-social,Switch,Novel8,Novel24,FALSE,NA,NA33,m,5.18,5,No-social,12,4,1,0,Novel5,1,Novel5,0,2715,straightaheadlonger,-1,test,TRUE,1,v2,no-social,Same,Novel5,Novel5,FALSE,NA,NA33,m,5.18,5,No-social,14,5,2,1,Novel1,0,Novel19,1,2128,straightaheadlonger,-1,test,FALSE,1,v2,no-social,Switch,Novel25,Novel19,FALSE,NA,NA34,m,4.89,4,Social,4,0,1,1,Novel3,1,Novel3,1,3562,RDkidslonger,1,test,TRUE,1,v2,social,Same,Novel3,Novel3,TRUE,NA,NA34,m,4.89,4,Social,6,1,1,0,Novel4,0,Novel4,1,1723,RDkidslonger,1,test,TRUE,1,v2,social,Same,Novel4,Novel4,TRUE,NA,NA34,m,4.89,4,Social,8,2,2,0,Novel5,0,Novel20,0,1689,RDkidslonger,1,test,FALSE,1,v2,social,Switch,Novel17,Novel20,TRUE,NA,NA34,m,4.89,4,Social,10,3,2,1,Novel14,1,Novel14,1,2734,LDkidslonger,0,test,TRUE,1,v2,social,Switch,Novel1,Novel14,TRUE,NA,NA34,m,4.89,4,Social,12,4,1,1,Novel18,0,Novel18,0,3530,LDkidslonger,0,test,TRUE,1,v2,social,Same,Novel18,Novel18,TRUE,NA,NA34,m,4.89,4,Social,14,5,2,0,Novel19,0,Novel19,1,3156,LDkidslonger,0,test,TRUE,1,v2,social,Switch,Novel7,Novel19,TRUE,NA,NA35,m,5.57,5,No-social,4,0,1,1,Novel20,1,Novel20,1,3191,straightaheadlonger,-1,test,TRUE,1,v2,no-social,Same,Novel20,Novel20,FALSE,NA,NA35,m,5.57,5,No-social,6,1,1,0,Novel22,0,Novel22,1,3674,straightaheadlonger,-1,test,TRUE,1,v2,no-social,Same,Novel22,Novel22,FALSE,NA,NA35,m,5.57,5,No-social,8,2,2,0,Novel6,0,Novel6,1,944,straightaheadlonger,-1,test,TRUE,1,v2,no-social,Switch,Novel11,Novel6,FALSE,NA,NA35,m,5.57,5,No-social,10,3,2,1,Novel16,0,Novel16,0,1727,straightaheadlonger,-1,test,TRUE,1,v2,no-social,Switch,Novel18,Novel16,FALSE,NA,NA35,m,5.57,5,No-social,12,4,1,1,Novel4,1,Novel4,1,1318,straightaheadlonger,-1,test,TRUE,1,v2,no-social,Same,Novel4,Novel4,FALSE,NA,NA35,m,5.57,5,No-social,14,5,2,0,Novel10,0,Novel28,0,4987,straightaheadlonger,-1,test,FALSE,1,v2,no-social,Switch,Novel27,Novel28,FALSE,NA,NA36,f,3.54,3,Social,4,0,1,1,Novel20,1,Novel20,1,3948,LDkidslonger,0,test,TRUE,1,v2,social,Same,Novel20,Novel20,FALSE,NA,NA36,f,3.54,3,Social,6,1,1,0,Novel23,1,Novel23,0,1386,LDkidslonger,0,test,TRUE,1,v2,social,Same,Novel23,Novel23,TRUE,NA,NA36,f,3.54,3,Social,8,2,2,0,Novel22,0,Novel22,1,1310,RDkidslonger,1,test,TRUE,1,v2,social,Switch,Novel6,Novel22,FALSE,NA,NA36,f,3.54,3,Social,10,3,2,1,Novel19,1,Novel19,1,4820,LDkidslonger,0,test,TRUE,1,v2,social,Switch,Novel4,Novel19,TRUE,NA,NA36,f,3.54,3,Social,12,4,1,1,Novel28,1,Novel28,1,1222,LDkidslonger,0,test,TRUE,1,v2,social,Same,Novel28,Novel28,FALSE,NA,NA36,f,3.54,3,Social,14,5,2,0,Novel7,1,Novel7,0,1581,RDkidslonger,1,test,TRUE,1,v2,social,Switch,Novel5,Novel7,TRUE,NA,NA37,f,5.4,5,No-social,4,0,1,0,Novel13,0,Novel13,1,1724,straightaheadlonger,-1,test,TRUE,1,v2,no-social,Same,Novel13,Novel13,FALSE,NA,NA37,f,5.4,5,No-social,6,1,1,1,Novel18,1,Novel18,1,2678,straightaheadlonger,-1,test,TRUE,1,v2,no-social,Same,Novel18,Novel18,FALSE,NA,NA37,f,5.4,5,No-social,8,2,2,0,Novel27,1,Novel27,0,2173,straightaheadlonger,-1,test,TRUE,1,v2,no-social,Switch,Novel28,Novel27,FALSE,NA,NA37,f,5.4,5,No-social,10,3,2,1,Novel11,1,Novel11,1,1367,straightaheadlonger,-1,test,TRUE,1,v2,no-social,Switch,Novel23,Novel11,FALSE,NA,NA37,f,5.4,5,No-social,12,4,1,0,Novel25,0,Novel25,1,1200,straightaheadlonger,-1,test,TRUE,1,v2,no-social,Same,Novel25,Novel25,FALSE,NA,NA37,f,5.4,5,No-social,14,5,2,1,Novel12,0,Novel12,0,1050,straightaheadlonger,-1,test,TRUE,1,v2,no-social,Switch,Novel26,Novel12,FALSE,NA,NA38,f,8.15,NA,No-social,4,0,1,0,Novel3,0,Novel3,1,936,straightaheadlonger,-1,test,TRUE,0,v2,no-social,Same,Novel3,Novel3,FALSE,NA,NA38,f,8.15,NA,No-social,6,1,1,1,Novel23,1,Novel23,1,1101,straightaheadlonger,-1,test,TRUE,0,v2,no-social,Same,Novel23,Novel23,FALSE,NA,NA38,f,8.15,NA,No-social,8,2,2,1,Novel1,1,Novel1,1,3185,straightaheadlonger,-1,test,TRUE,0,v2,no-social,Switch,Novel16,Novel1,FALSE,NA,NA38,f,8.15,NA,No-social,10,3,2,0,Novel7,1,Novel7,0,1348,straightaheadlonger,-1,test,TRUE,0,v2,no-social,Switch,Novel6,Novel7,FALSE,NA,NA38,f,8.15,NA,No-social,12,4,1,0,Novel19,0,Novel19,1,1376,straightaheadlonger,-1,test,TRUE,0,v2,no-social,Same,Novel19,Novel19,FALSE,NA,NA38,f,8.15,NA,No-social,14,5,2,1,Novel2,0,Novel2,0,1262,straightaheadlonger,-1,test,TRUE,0,v2,no-social,Switch,Novel27,Novel2,FALSE,NA,NA39,m,4.63,4,Social,4,0,1,1,Novel22,1,Novel22,1,4166,straightaheadlonger,-1,test,TRUE,1,v2,social,Same,Novel22,Novel22,TRUE,RDkidslonger,139,m,4.63,4,Social,6,1,1,0,Novel20,1,Novel20,0,1946,straightaheadlonger,-1,test,TRUE,1,v2,social,Same,Novel20,Novel20,TRUE,LDkidslonger,039,m,4.63,4,Social,8,2,2,0,Novel6,0,Novel6,1,1538,straightaheadlonger,-1,test,TRUE,1,v2,social,Switch,Novel17,Novel6,TRUE,LDkidslonger,039,m,4.63,4,Social,10,3,2,1,Novel21,1,Novel7,0,2327,straightaheadlonger,-1,test,FALSE,1,v2,social,Switch,Novel18,Novel7,FALSE,LDkidslonger,039,m,4.63,4,Social,12,4,1,1,Novel27,1,Novel27,1,1990,straightaheadlonger,-1,test,TRUE,1,v2,social,Same,Novel27,Novel27,TRUE,RDkidslonger,139,m,4.63,4,Social,14,5,2,0,Novel9,1,Novel9,0,1801,straightaheadlonger,-1,test,TRUE,1,v2,social,Switch,Novel23,Novel9,TRUE,RDkidslonger,140,f,4.52,4,No-social,4,0,1,1,Novel25,1,Novel25,1,1313,straightaheadlonger,-1,test,TRUE,1,v2,no-social,Same,Novel25,Novel25,TRUE,straightaheadlonger,140,f,4.52,4,No-social,6,1,1,0,Novel9,1,Novel9,0,2533,straightaheadlonger,-1,test,TRUE,1,v2,no-social,Same,Novel9,Novel9,FALSE,straightaheadlonger,140,f,4.52,4,No-social,8,2,2,1,Novel3,0,Novel21,1,3041,straightaheadlonger,-1,test,FALSE,1,v2,no-social,Switch,Novel22,Novel21,FALSE,straightaheadlonger,140,f,4.52,4,No-social,10,3,2,0,Novel28,0,Novel8,0,1184,straightaheadlonger,-1,test,FALSE,1,v2,no-social,Switch,Novel11,Novel8,TRUE,straightaheadlonger,140,f,4.52,4,No-social,12,4,1,1,Novel2,0,Novel2,0,1066,straightaheadlonger,-1,test,TRUE,1,v2,no-social,Same,Novel2,Novel2,FALSE,straightaheadlonger,140,f,4.52,4,No-social,14,5,2,0,Novel27,1,Novel15,1,1315,straightaheadlonger,-1,test,FALSE,1,v2,no-social,Switch,Novel26,Novel15,FALSE,straightaheadlonger,141,f,4.91,4,Social,4,0,1,1,Novel13,0,Novel13,0,1979,LDkidslonger,0,test,TRUE,1,v2,social,Same,Novel13,Novel13,TRUE,LDkidslonger,041,f,4.91,4,Social,6,1,1,0,Novel26,0,Novel26,1,4233,RDkidslonger,1,test,TRUE,1,v2,social,Same,Novel26,Novel26,TRUE,RDkidslonger,141,f,4.91,4,Social,8,2,2,0,Novel19,0,Novel19,1,1706,LDkidslonger,0,test,TRUE,1,v2,social,Switch,Novel7,Novel19,TRUE,LDkidslonger,041,f,4.91,4,Social,10,3,2,1,Novel28,1,Novel6,0,1687,RDkidslonger,1,test,FALSE,1,v2,social,Switch,Novel12,Novel6,TRUE,RDkidslonger,141,f,4.91,4,Social,12,4,1,1,Novel5,1,Novel5,1,4591,RDkidslonger,1,test,TRUE,1,v2,social,Same,Novel5,Novel5,TRUE,RDkidslonger,141,f,4.91,4,Social,14,5,2,0,Novel15,1,Novel23,1,5121,LDkidslonger,0,test,FALSE,1,v2,social,Switch,Novel16,Novel23,TRUE,LDkidslonger,042,f,4.19,4,No-social,4,0,1,0,Novel23,1,Novel23,0,2616,straightaheadlonger,-1,test,TRUE,1,v2,no-social,Same,Novel23,Novel23,FALSE,straightaheadlonger,142,f,4.19,4,No-social,6,1,1,1,Novel10,1,Novel10,1,6064,straightaheadlonger,-1,test,TRUE,1,v2,no-social,Same,Novel10,Novel10,TRUE,straightaheadlonger,142,f,4.19,4,No-social,8,2,2,1,Novel6,0,Novel6,0,6830,straightaheadlonger,-1,test,TRUE,1,v2,no-social,Switch,Novel28,Novel6,TRUE,straightaheadlonger,142,f,4.19,4,No-social,10,3,2,0,Novel5,0,Novel5,1,2663,straightaheadlonger,-1,test,TRUE,1,v2,no-social,Switch,Novel9,Novel5,FALSE,straightaheadlonger,142,f,4.19,4,No-social,12,4,1,0,Novel26,1,Novel26,0,7198,straightaheadlonger,-1,test,TRUE,1,v2,no-social,Same,Novel26,Novel26,FALSE,straightaheadlonger,142,f,4.19,4,No-social,14,5,2,1,Novel17,1,Novel17,1,1906,straightaheadlonger,-1,test,TRUE,1,v2,no-social,Switch,Novel7,Novel17,FALSE,straightaheadlonger,144,f,4.39,4,Social,4,0,1,0,Novel9,0,Novel9,1,6385,RDkidslonger,1,test,TRUE,1,v2,social,Same,Novel9,Novel9,TRUE,RDkidslonger,144,f,4.39,4,Social,6,1,1,1,Novel23,1,Novel23,1,3969,LDkidslonger,0,test,TRUE,1,v2,social,Same,Novel23,Novel23,FALSE,LDkidslonger,044,f,4.39,4,Social,8,2,2,0,Novel11,1,Novel11,0,3722,RDkidslonger,1,test,TRUE,1,v2,social,Switch,Novel24,Novel11,TRUE,RDkidslonger,144,f,4.39,4,Social,10,3,2,1,Novel26,1,Novel25,0,4845,RDkidslonger,1,test,FALSE,1,v2,social,Switch,Novel14,Novel25,TRUE,RDkidslonger,144,f,4.39,4,Social,12,4,1,0,Novel28,1,Novel5,1,4252,RDkidslonger,1,test,FALSE,1,v2,social,Same,Novel5,Novel5,TRUE,RDkidslonger,144,f,4.39,4,Social,14,5,2,1,Novel12,1,Novel18,0,3383,RDkidslonger,1,test,FALSE,1,v2,social,Switch,Novel7,Novel18,TRUE,RDkidslonger,145,m,3.73,3,No-social,4,0,1,1,Novel28,0,Novel28,0,3652,straightaheadlonger,-1,test,TRUE,1,v2,no-social,Same,Novel28,Novel28,FALSE,straightaheadlonger,145,m,3.73,3,No-social,6,1,1,0,Novel20,0,Novel20,1,1808,straightaheadlonger,-1,test,TRUE,1,v2,no-social,Same,Novel20,Novel20,TRUE,straightaheadlonger,145,m,3.73,3,No-social,8,2,2,1,Novel13,1,Novel13,1,4648,straightaheadlonger,-1,test,TRUE,1,v2,no-social,Switch,Novel8,Novel13,FALSE,straightaheadlonger,145,m,3.73,3,No-social,10,3,2,0,Novel3,1,Novel3,0,3179,straightaheadlonger,-1,test,TRUE,1,v2,no-social,Switch,Novel4,Novel3,TRUE,straightaheadlonger,145,m,3.73,3,No-social,12,4,1,1,Novel26,1,Novel26,1,2077,straightaheadlonger,-1,test,TRUE,1,v2,no-social,Same,Novel26,Novel26,TRUE,straightaheadlonger,145,m,3.73,3,No-social,14,5,2,0,Novel11,0,Novel2,0,1717,straightaheadlonger,-1,test,FALSE,1,v2,no-social,Switch,Novel12,Novel2,TRUE,straightaheadlonger,146,m,4.29,4,Social,4,0,1,1,Novel17,1,Novel17,1,1446,RDkidslonger,1,test,TRUE,1,v2,social,Same,Novel17,Novel17,TRUE,RDkidslonger,146,m,4.29,4,Social,6,1,1,0,Novel10,1,Novel10,0,1561,LDkidslonger,0,test,TRUE,1,v2,social,Same,Novel10,Novel10,TRUE,LDkidslonger,046,m,4.29,4,Social,8,2,2,0,Novel14,1,Novel14,0,4781,RDkidslonger,1,test,TRUE,1,v2,social,Switch,Novel18,Novel14,TRUE,RDkidslonger,146,m,4.29,4,Social,10,3,2,1,Novel21,1,Novel2,0,3778,RDkidslonger,1,test,FALSE,1,v2,social,Switch,Novel28,Novel2,TRUE,RDkidslonger,146,m,4.29,4,Social,12,4,1,1,Novel6,1,Novel6,1,2243,RDkidslonger,1,test,TRUE,1,v2,social,Same,Novel6,Novel6,TRUE,RDkidslonger,146,m,4.29,4,Social,14,5,2,0,Novel13,0,Novel13,1,2936,LDkidslonger,0,test,TRUE,1,v2,social,Switch,Novel26,Novel13,TRUE,LDkidslonger,047,f,3.22,3,No-social,4,0,1,1,Novel25,0,Novel16,1,9248,straightaheadlonger,-1,test,FALSE,1,v2,no-social,Same,Novel16,Novel16,TRUE,straightaheadlonger,147,f,3.22,3,No-social,6,1,1,0,Novel3,1,Novel22,1,5861,straightaheadlonger,-1,test,FALSE,1,v2,no-social,Same,Novel22,Novel22,TRUE,straightaheadlonger,147,f,3.22,3,No-social,8,2,2,0,Novel9,1,Novel9,0,4717,straightaheadlonger,-1,test,TRUE,1,v2,no-social,Switch,Novel14,Novel9,TRUE,straightaheadlonger,147,f,3.22,3,No-social,10,3,2,1,Novel27,1,Novel8,0,6421,straightaheadlonger,-1,test,FALSE,1,v2,no-social,Switch,Novel24,Novel8,TRUE,straightaheadlonger,147,f,3.22,3,No-social,12,4,1,1,Novel7,1,Novel7,1,4713,straightaheadlonger,-1,test,TRUE,1,v2,no-social,Same,Novel7,Novel7,TRUE,straightaheadlonger,147,f,3.22,3,No-social,14,5,2,0,Novel15,1,Novel15,0,2531,straightaheadlonger,-1,test,TRUE,1,v2,no-social,Switch,Novel5,Novel15,TRUE,straightaheadlonger,148,f,4.33,4,Social,4,0,1,0,Novel21,1,Novel21,0,1655,LDkidslonger,0,test,TRUE,1,v2,social,Same,Novel21,Novel21,TRUE,LDkidslonger,048,f,4.33,4,Social,6,1,1,1,Novel25,0,Novel25,0,1770,LDkidslonger,0,test,TRUE,1,v2,social,Same,Novel25,Novel25,TRUE,LDkidslonger,048,f,4.33,4,Social,8,2,2,0,Novel20,0,Novel12,0,5260,RDkidslonger,1,test,FALSE,1,v2,social,Switch,Novel27,Novel12,TRUE,RDkidslonger,148,f,4.33,4,Social,10,3,2,1,Novel6,0,Novel6,0,2484,LDkidslonger,0,test,TRUE,1,v2,social,Switch,Novel23,Novel6,FALSE,LDkidslonger,048,f,4.33,4,Social,12,4,1,0,Novel15,1,Novel15,0,10393,LDkidslonger,0,test,TRUE,1,v2,social,Same,Novel15,Novel15,TRUE,LDkidslonger,048,f,4.33,4,Social,14,5,2,1,Novel11,0,Novel11,0,4921,RDkidslonger,1,test,TRUE,1,v2,social,Switch,Novel14,Novel11,TRUE,RDkidslonger,149,m,3.93,3,No-social,4,0,1,0,Novel7,0,Novel7,1,2954,straightaheadlonger,-1,test,TRUE,1,v2,no-social,Same,Novel7,Novel7,TRUE,straightaheadlonger,149,m,3.93,3,No-social,6,1,1,1,Novel10,1,Novel10,1,4077,straightaheadlonger,-1,test,TRUE,1,v2,no-social,Same,Novel10,Novel10,TRUE,straightaheadlonger,149,m,3.93,3,No-social,8,2,2,0,Novel17,0,Novel23,0,3629,straightaheadlonger,-1,test,FALSE,1,v2,no-social,Switch,Novel9,Novel23,TRUE,straightaheadlonger,149,m,3.93,3,No-social,10,3,2,1,Novel18,1,Novel6,0,6279,straightaheadlonger,-1,test,FALSE,1,v2,no-social,Switch,Novel13,Novel6,TRUE,straightaheadlonger,149,m,3.93,3,No-social,12,4,1,0,Novel1,0,Novel1,1,9203,straightaheadlonger,-1,test,TRUE,1,v2,no-social,Same,Novel1,Novel1,TRUE,straightaheadlonger,149,m,3.93,3,No-social,14,5,2,1,Novel11,0,Novel3,1,3352,straightaheadlonger,-1,test,FALSE,1,v2,no-social,Switch,Novel19,Novel3,FALSE,straightaheadlonger,150,m,4.52,4,Social,4,0,1,0,Novel3,0,Novel3,1,2845,RDkidslonger,1,test,TRUE,1,v2,social,Same,Novel3,Novel3,TRUE,RDkidslonger,150,m,4.52,4,Social,6,1,1,1,Novel11,0,Novel18,1,2538,RDkidslonger,1,test,FALSE,1,v2,social,Same,Novel18,Novel18,TRUE,RDkidslonger,150,m,4.52,4,Social,8,2,2,1,Novel8,0,Novel8,0,9145,RDkidslonger,1,test,TRUE,1,v2,social,Switch,Novel23,Novel8,TRUE,RDkidslonger,150,m,4.52,4,Social,10,3,2,0,Novel14,0,Novel14,1,2367,LDkidslonger,0,test,TRUE,1,v2,social,Switch,Novel9,Novel14,TRUE,LDkidslonger,050,m,4.52,4,Social,12,4,1,0,Novel26,0,Novel26,1,7400,RDkidslonger,1,test,TRUE,1,v2,social,Same,Novel26,Novel26,TRUE,RDkidslonger,150,m,4.52,4,Social,14,5,2,1,Novel21,1,Novel21,1,7117,LDkidslonger,0,test,TRUE,1,v2,social,Switch,Novel27,Novel21,TRUE,LDkidslonger,051,m,4,4,No-social,4,0,1,1,Novel2,0,Novel11,1,2550,straightaheadlonger,-1,test,FALSE,1,v2,no-social,Same,Novel11,Novel11,TRUE,straightaheadlonger,151,m,4,4,No-social,6,1,1,0,Novel28,1,Novel28,0,2932,straightaheadlonger,-1,test,TRUE,1,v2,no-social,Same,Novel28,Novel28,FALSE,straightaheadlonger,151,m,4,4,No-social,8,2,2,1,Novel3,0,Novel3,0,6899,straightaheadlonger,-1,test,TRUE,1,v2,no-social,Switch,Novel14,Novel3,TRUE,straightaheadlonger,151,m,4,4,No-social,10,3,2,0,Novel13,1,Novel25,1,1917,straightaheadlonger,-1,test,FALSE,1,v2,no-social,Switch,Novel6,Novel25,FALSE,straightaheadlonger,151,m,4,4,No-social,12,4,1,1,Novel24,0,Novel1,1,2243,straightaheadlonger,-1,test,FALSE,1,v2,no-social,Same,Novel1,Novel1,TRUE,straightaheadlonger,151,m,4,4,No-social,14,5,2,0,Novel4,1,Novel4,0,3900,straightaheadlonger,-1,test,TRUE,1,v2,no-social,Switch,Novel19,Novel4,TRUE,straightaheadlonger,152,f,3.75,3,Social,4,0,1,0,Novel9,0,Novel9,1,4414,RDkidslonger,1,test,TRUE,1,v2,social,Same,Novel9,Novel9,TRUE,RDkidslonger,152,f,3.75,3,Social,6,1,1,1,Novel2,1,Novel3,0,11664,LDkidslonger,0,test,FALSE,1,v2,social,Same,Novel3,Novel3,TRUE,LDkidslonger,052,f,3.75,3,Social,8,2,2,1,Novel20,1,Novel18,0,8855,RDkidslonger,1,test,FALSE,1,v2,social,Switch,Novel16,Novel18,TRUE,RDkidslonger,152,f,3.75,3,Social,10,3,2,0,Novel28,1,Novel28,0,9557,RDkidslonger,1,test,TRUE,1,v2,social,Switch,Novel7,Novel28,TRUE,RDkidslonger,152,f,3.75,3,Social,12,4,1,0,Novel14,1,Novel14,0,1906,LDkidslonger,0,test,TRUE,1,v2,social,Same,Novel14,Novel14,TRUE,LDkidslonger,052,f,3.75,3,Social,14,5,2,1,Novel10,1,Novel1,0,11385,RDkidslonger,1,test,FALSE,1,v2,social,Switch,Novel24,Novel1,TRUE,RDkidslonger,153,f,3.52,3,No-social,4,0,1,0,Novel13,0,Novel13,1,2798,straightaheadlonger,-1,test,TRUE,1,v2,no-social,Same,Novel13,Novel13,TRUE,straightaheadlonger,153,f,3.52,3,No-social,6,1,1,1,Novel5,0,Novel25,1,6589,straightaheadlonger,-1,test,FALSE,1,v2,no-social,Same,Novel25,Novel25,TRUE,straightaheadlonger,153,f,3.52,3,No-social,8,2,2,1,Novel4,1,Novel4,1,5480,straightaheadlonger,-1,test,TRUE,1,v2,no-social,Switch,Novel1,Novel4,FALSE,straightaheadlonger,153,f,3.52,3,No-social,10,3,2,0,Novel9,0,Novel12,0,4455,straightaheadlonger,-1,test,FALSE,1,v2,no-social,Switch,Novel21,Novel12,TRUE,straightaheadlonger,153,f,3.52,3,No-social,12,4,1,0,Novel26,1,Novel26,0,4064,straightaheadlonger,-1,test,TRUE,1,v2,no-social,Same,Novel26,Novel26,FALSE,straightaheadlonger,153,f,3.52,3,No-social,14,5,2,1,Novel20,1,Novel20,1,2525,straightaheadlonger,-1,test,TRUE,1,v2,no-social,Switch,Novel18,Novel20,FALSE,straightaheadlonger,154,m,4.55,4,Social,4,0,1,0,Novel17,1,Novel17,0,5158,LDkidslonger,0,test,TRUE,1,v2,social,Same,Novel17,Novel17,TRUE,LDkidslonger,054,m,4.55,4,Social,6,1,1,1,Novel25,0,Novel25,0,2193,LDkidslonger,0,test,TRUE,1,v2,social,Same,Novel25,Novel25,TRUE,LDkidslonger,054,m,4.55,4,Social,8,2,2,1,Novel6,1,Novel22,0,13367,RDkidslonger,1,test,FALSE,1,v2,social,Switch,Novel14,Novel22,TRUE,RDkidslonger,154,m,4.55,4,Social,10,3,2,0,Novel20,1,Novel20,0,11074,RDkidslonger,1,test,TRUE,1,v2,social,Switch,Novel27,Novel20,TRUE,RDkidslonger,154,m,4.55,4,Social,12,4,1,0,Novel5,1,Novel5,0,3183,LDkidslonger,0,test,TRUE,1,v2,social,Same,Novel5,Novel5,TRUE,LDkidslonger,054,m,4.55,4,Social,14,5,2,1,Novel7,1,Novel18,0,3735,RDkidslonger,1,test,FALSE,1,v2,social,Switch,Novel3,Novel18,TRUE,RDkidslonger,155,m,5.26,5,No-social,4,0,1,1,Novel14,0,Novel14,0,3989,straightaheadlonger,-1,test,TRUE,1,v2,no-social,Same,Novel14,Novel14,FALSE,straightaheadlonger,155,m,5.26,5,No-social,6,1,1,0,Novel25,1,Novel25,0,1218,straightaheadlonger,-1,test,TRUE,1,v2,no-social,Same,Novel25,Novel25,FALSE,straightaheadlonger,155,m,5.26,5,No-social,8,2,2,0,Novel24,1,Novel21,1,3866,straightaheadlonger,-1,test,FALSE,1,v2,no-social,Switch,Novel6,Novel21,FALSE,straightaheadlonger,155,m,5.26,5,No-social,10,3,2,1,Novel26,0,Novel5,1,1889,straightaheadlonger,-1,test,FALSE,1,v2,no-social,Switch,Novel19,Novel5,FALSE,straightaheadlonger,155,m,5.26,5,No-social,12,4,1,1,Novel9,1,Novel9,1,3797,straightaheadlonger,-1,test,TRUE,1,v2,no-social,Same,Novel9,Novel9,TRUE,straightaheadlonger,155,m,5.26,5,No-social,14,5,2,0,Novel11,0,Novel15,0,1303,straightaheadlonger,-1,test,FALSE,1,v2,no-social,Switch,Novel17,Novel15,TRUE,straightaheadlonger,156,m,4.02,4,Social,4,0,1,1,Novel15,1,Novel15,1,2608,RDkidslonger,1,test,TRUE,1,v2,social,Same,Novel15,Novel15,TRUE,RDkidslonger,156,m,4.02,4,Social,6,1,1,0,Novel23,0,Novel23,1,2031,RDkidslonger,1,test,TRUE,1,v2,social,Same,Novel23,Novel23,TRUE,RDkidslonger,156,m,4.02,4,Social,8,2,2,0,Novel12,1,Novel12,0,5252,RDkidslonger,1,test,TRUE,1,v2,social,Switch,Novel10,Novel12,TRUE,RDkidslonger,156,m,4.02,4,Social,10,3,2,1,Novel18,1,Novel5,0,6181,RDkidslonger,1,test,FALSE,1,v2,social,Switch,Novel16,Novel5,TRUE,RDkidslonger,156,m,4.02,4,Social,12,4,1,1,Novel8,1,Novel8,1,5267,LDkidslonger,0,test,TRUE,1,v2,social,Same,Novel8,Novel8,FALSE,LDkidslonger,056,m,4.02,4,Social,14,5,2,0,Novel26,0,Novel27,0,1522,RDkidslonger,1,test,FALSE,1,v2,social,Switch,Novel6,Novel27,TRUE,RDkidslonger,157,f,2.26,2,No-social,4,0,1,0,Novel7,1,Novel7,0,4194,straightaheadlonger,-1,test,TRUE,0,v2,no-social,Same,Novel7,Novel7,FALSE,straightaheadlonger,157,f,2.26,2,No-social,6,1,1,1,Novel24,1,Novel24,1,3379,straightaheadlonger,-1,test,TRUE,0,v2,no-social,Same,Novel24,Novel24,TRUE,straightaheadlonger,157,f,2.26,2,No-social,8,2,2,0,Novel20,1,Novel20,0,2864,straightaheadlonger,-1,test,TRUE,0,v2,no-social,Switch,Novel18,Novel20,TRUE,straightaheadlonger,157,f,2.26,2,No-social,10,3,2,1,Novel1,1,Novel27,0,4380,straightaheadlonger,-1,test,FALSE,0,v2,no-social,Switch,Novel26,Novel27,TRUE,straightaheadlonger,157,f,2.26,2,No-social,12,4,1,0,Novel21,0,Novel21,1,3950,straightaheadlonger,-1,test,TRUE,0,v2,no-social,Same,Novel21,Novel21,TRUE,straightaheadlonger,157,f,2.26,2,No-social,14,5,2,1,Novel11,1,Novel23,0,2790,straightaheadlonger,-1,test,FALSE,0,v2,no-social,Switch,Novel13,Novel23,TRUE,straightaheadlonger,158,f,2.5,2,No-social,4,0,1,1,Novel25,1,Novel27,0,6174,straightaheadlonger,-1,test,FALSE,1,v2,no-social,Same,Novel27,Novel27,FALSE,straightaheadlonger,158,f,2.5,2,No-social,6,1,1,0,Novel2,1,Novel14,1,2950,straightaheadlonger,-1,test,FALSE,1,v2,no-social,Same,Novel14,Novel14,TRUE,straightaheadlonger,158,f,2.5,2,No-social,8,2,2,0,Novel24,0,Novel15,0,7390,straightaheadlonger,-1,test,FALSE,1,v2,no-social,Switch,Novel22,Novel15,TRUE,straightaheadlonger,158,f,2.5,2,No-social,10,3,2,1,Novel7,1,Novel23,0,3521,straightaheadlonger,-1,test,FALSE,1,v2,no-social,Switch,Novel1,Novel23,TRUE,straightaheadlonger,158,f,2.5,2,No-social,12,4,1,1,Novel28,1,Novel18,0,3119,straightaheadlonger,-1,test,FALSE,1,v2,no-social,Same,Novel18,Novel18,FALSE,straightaheadlonger,158,f,2.5,2,No-social,14,5,2,0,Novel4,1,Novel4,0,749,straightaheadlonger,-1,test,TRUE,1,v2,no-social,Switch,Novel11,Novel4,TRUE,straightaheadlonger,159,f,4.13,4,No-social,4,0,1,1,Novel12,1,Novel12,1,2229,straightaheadlonger,-1,test,TRUE,1,v2,no-social,Same,Novel12,Novel12,TRUE,straightaheadlonger,159,f,4.13,4,No-social,6,1,1,0,Novel9,0,Novel9,1,2371,straightaheadlonger,-1,test,TRUE,1,v2,no-social,Same,Novel9,Novel9,TRUE,straightaheadlonger,159,f,4.13,4,No-social,8,2,2,0,Novel28,0,Novel11,0,13725,straightaheadlonger,-1,test,FALSE,1,v2,no-social,Switch,Novel2,Novel11,TRUE,straightaheadlonger,159,f,4.13,4,No-social,10,3,2,1,Novel25,1,Novel5,0,2461,straightaheadlonger,-1,test,FALSE,1,v2,no-social,Switch,Novel7,Novel5,TRUE,straightaheadlonger,159,f,4.13,4,No-social,12,4,1,1,Novel8,1,Novel8,1,1753,straightaheadlonger,-1,test,TRUE,1,v2,no-social,Same,Novel8,Novel8,TRUE,straightaheadlonger,159,f,4.13,4,No-social,14,5,2,0,Novel16,0,Novel3,0,4229,straightaheadlonger,-1,test,FALSE,1,v2,no-social,Switch,Novel4,Novel3,TRUE,straightaheadlonger,160,m,3.81,3,Social,4,0,1,0,Novel21,1,Novel21,0,2562,LDkidslonger,0,test,TRUE,1,v2,social,Same,Novel21,Novel21,TRUE,LDkidslonger,060,m,3.81,3,Social,6,1,1,1,Novel9,1,Novel9,1,2731,RDkidslonger,1,test,TRUE,1,v2,social,Same,Novel9,Novel9,TRUE,RDkidslonger,160,m,3.81,3,Social,8,2,2,1,Novel5,1,Novel11,0,3571,RDkidslonger,1,test,FALSE,1,v2,social,Switch,Novel6,Novel11,TRUE,RDkidslonger,160,m,3.81,3,Social,10,3,2,0,Novel22,1,Novel22,0,3938,LDkidslonger,0,test,TRUE,1,v2,social,Switch,Novel12,Novel22,FALSE,LDkidslonger,060,m,3.81,3,Social,12,4,1,0,Novel13,1,Novel7,1,4365,RDkidslonger,1,test,FALSE,1,v2,social,Same,Novel7,Novel7,TRUE,RDkidslonger,160,m,3.81,3,Social,14,5,2,1,Novel14,1,Novel3,0,3703,RDkidslonger,1,test,FALSE,1,v2,social,Switch,Novel2,Novel3,TRUE,RDkidslonger,161,m,3.08,3,Social,4,0,1,0,Novel8,0,Novel16,0,3830,LDkidslonger,0,test,FALSE,1,v2,social,Same,Novel16,Novel16,TRUE,LDkidslonger,061,m,3.08,3,Social,6,1,1,1,Novel2,1,Novel20,0,3616,LDkidslonger,0,test,FALSE,1,v2,social,Same,Novel20,Novel20,TRUE,LDkidslonger,061,m,3.08,3,Social,8,2,2,1,Novel4,0,Novel4,0,3512,LDkidslonger,0,test,TRUE,1,v2,social,Switch,Novel17,Novel4,FALSE,LDkidslonger,061,m,3.08,3,Social,10,3,2,0,Novel27,1,Novel27,0,2020,RDkidslonger,1,test,TRUE,1,v2,social,Switch,Novel14,Novel27,TRUE,RDkidslonger,161,m,3.08,3,Social,12,4,1,0,Novel5,0,Novel25,0,1777,LDkidslonger,0,test,FALSE,1,v2,social,Same,Novel25,Novel25,TRUE,LDkidslonger,061,m,3.08,3,Social,14,5,2,1,Novel12,0,Novel3,1,7862,LDkidslonger,0,test,FALSE,1,v2,social,Switch,Novel1,Novel3,TRUE,LDkidslonger,062,m,2.9,2,No-social,4,0,1,1,Novel11,0,Novel11,0,6433,straightaheadlonger,-1,test,TRUE,0,v2,no-social,Same,Novel11,Novel11,FALSE,straightaheadlonger,162,m,2.9,2,No-social,4,0,1,1,Novel11,0,Novel11,0,6433,straightaheadlonger,-1,test,TRUE,0,v2,no-social,Same,Novel11,Novel11,FALSE,straightaheadlonger,162,m,2.9,2,No-social,4,0,1,1,Novel11,0,Novel11,0,6433,straightaheadlonger,-1,test,TRUE,0,v2,no-social,Same,Novel11,Novel11,FALSE,straightaheadlonger,162,m,2.9,2,No-social,4,0,1,1,Novel11,0,Novel11,0,6433,straightaheadlonger,-1,test,TRUE,0,v2,no-social,Same,Novel11,Novel11,FALSE,straightaheadlonger,162,m,2.9,2,No-social,4,0,1,1,Novel11,0,Novel11,0,6433,straightaheadlonger,-1,test,TRUE,0,v2,no-social,Same,Novel11,Novel11,FALSE,straightaheadlonger,162,m,2.9,2,No-social,4,0,1,1,Novel11,0,Novel11,0,6433,straightaheadlonger,-1,test,TRUE,0,v2,no-social,Same,Novel11,Novel11,FALSE,straightaheadlonger,162,m,2.9,2,No-social,4,0,1,1,Novel11,0,Novel11,0,6433,straightaheadlonger,-1,test,TRUE,0,v2,no-social,Same,Novel11,Novel11,FALSE,straightaheadlonger,162,m,2.9,2,No-social,4,0,1,1,Novel11,0,Novel11,0,6433,straightaheadlonger,-1,test,TRUE,0,v2,no-social,Same,Novel11,Novel11,FALSE,straightaheadlonger,162,m,2.9,2,No-social,4,0,1,1,Novel11,0,Novel11,0,6433,straightaheadlonger,-1,test,TRUE,0,v2,no-social,Same,Novel11,Novel11,FALSE,straightaheadlonger,162,m,2.9,2,No-social,4,0,1,1,Novel11,0,Novel11,0,6433,straightaheadlonger,-1,test,TRUE,0,v2,no-social,Same,Novel11,Novel11,FALSE,straightaheadlonger,162,m,2.9,2,No-social,4,0,1,1,Novel11,0,Novel11,0,6433,straightaheadlonger,-1,test,TRUE,0,v2,no-social,Same,Novel11,Novel11,FALSE,straightaheadlonger,162,m,2.9,2,No-social,4,0,1,1,Novel11,0,Novel11,0,6433,straightaheadlonger,-1,test,TRUE,0,v2,no-social,Same,Novel11,Novel11,FALSE,straightaheadlonger,162,m,2.9,2,No-social,4,0,1,1,Novel11,0,Novel11,0,6433,straightaheadlonger,-1,test,TRUE,0,v2,no-social,Same,Novel11,Novel11,FALSE,straightaheadlonger,162,m,2.9,2,No-social,4,0,1,1,Novel11,0,Novel11,0,6433,straightaheadlonger,-1,test,TRUE,0,v2,no-social,Same,Novel11,Novel11,FALSE,straightaheadlonger,162,m,2.9,2,No-social,4,0,1,1,Novel11,0,Novel11,0,6433,straightaheadlonger,-1,test,TRUE,0,v2,no-social,Same,Novel11,Novel11,FALSE,straightaheadlonger,162,m,2.9,2,No-social,4,0,1,1,Novel11,0,Novel11,0,6433,straightaheadlonger,-1,test,TRUE,0,v2,no-social,Same,Novel11,Novel11,FALSE,straightaheadlonger,162,m,2.9,2,No-social,6,1,1,0,Novel15,0,Novel7,0,9103,straightaheadlonger,-1,test,FALSE,0,v2,no-social,Same,Novel7,Novel7,FALSE,straightaheadlonger,162,m,2.9,2,No-social,6,1,1,0,Novel15,0,Novel7,0,9103,straightaheadlonger,-1,test,FALSE,0,v2,no-social,Same,Novel7,Novel7,FALSE,straightaheadlonger,162,m,2.9,2,No-social,6,1,1,0,Novel15,0,Novel7,0,9103,straightaheadlonger,-1,test,FALSE,0,v2,no-social,Same,Novel7,Novel7,FALSE,straightaheadlonger,162,m,2.9,2,No-social,6,1,1,0,Novel15,0,Novel7,0,9103,straightaheadlonger,-1,test,FALSE,0,v2,no-social,Same,Novel7,Novel7,FALSE,straightaheadlonger,162,m,2.9,2,No-social,6,1,1,0,Novel15,0,Novel7,0,9103,straightaheadlonger,-1,test,FALSE,0,v2,no-social,Same,Novel7,Novel7,FALSE,straightaheadlonger,162,m,2.9,2,No-social,6,1,1,0,Novel15,0,Novel7,0,9103,straightaheadlonger,-1,test,FALSE,0,v2,no-social,Same,Novel7,Novel7,FALSE,straightaheadlonger,162,m,2.9,2,No-social,6,1,1,0,Novel15,0,Novel7,0,9103,straightaheadlonger,-1,test,FALSE,0,v2,no-social,Same,Novel7,Novel7,FALSE,straightaheadlonger,162,m,2.9,2,No-social,6,1,1,0,Novel15,0,Novel7,0,9103,straightaheadlonger,-1,test,FALSE,0,v2,no-social,Same,Novel7,Novel7,FALSE,straightaheadlonger,162,m,2.9,2,No-social,6,1,1,0,Novel15,0,Novel7,0,9103,straightaheadlonger,-1,test,FALSE,0,v2,no-social,Same,Novel7,Novel7,FALSE,straightaheadlonger,162,m,2.9,2,No-social,6,1,1,0,Novel15,0,Novel7,0,9103,straightaheadlonger,-1,test,FALSE,0,v2,no-social,Same,Novel7,Novel7,FALSE,straightaheadlonger,162,m,2.9,2,No-social,6,1,1,0,Novel15,0,Novel7,0,9103,straightaheadlonger,-1,test,FALSE,0,v2,no-social,Same,Novel7,Novel7,FALSE,straightaheadlonger,162,m,2.9,2,No-social,6,1,1,0,Novel15,0,Novel7,0,9103,straightaheadlonger,-1,test,FALSE,0,v2,no-social,Same,Novel7,Novel7,FALSE,straightaheadlonger,162,m,2.9,2,No-social,6,1,1,0,Novel15,0,Novel7,0,9103,straightaheadlonger,-1,test,FALSE,0,v2,no-social,Same,Novel7,Novel7,FALSE,straightaheadlonger,162,m,2.9,2,No-social,6,1,1,0,Novel15,0,Novel7,0,9103,straightaheadlonger,-1,test,FALSE,0,v2,no-social,Same,Novel7,Novel7,FALSE,straightaheadlonger,162,m,2.9,2,No-social,6,1,1,0,Novel15,0,Novel7,0,9103,straightaheadlonger,-1,test,FALSE,0,v2,no-social,Same,Novel7,Novel7,FALSE,straightaheadlonger,162,m,2.9,2,No-social,6,1,1,0,Novel15,0,Novel7,0,9103,straightaheadlonger,-1,test,FALSE,0,v2,no-social,Same,Novel7,Novel7,FALSE,straightaheadlonger,162,m,2.9,2,No-social,8,2,2,1,Novel20,0,Novel17,1,4412,straightaheadlonger,-1,test,FALSE,0,v2,no-social,Switch,Novel22,Novel17,FALSE,straightaheadlonger,162,m,2.9,2,No-social,8,2,2,1,Novel20,0,Novel17,1,4412,straightaheadlonger,-1,test,FALSE,0,v2,no-social,Switch,Novel22,Novel17,FALSE,straightaheadlonger,162,m,2.9,2,No-social,8,2,2,1,Novel20,0,Novel17,1,4412,straightaheadlonger,-1,test,FALSE,0,v2,no-social,Switch,Novel22,Novel17,FALSE,straightaheadlonger,162,m,2.9,2,No-social,8,2,2,1,Novel20,0,Novel17,1,4412,straightaheadlonger,-1,test,FALSE,0,v2,no-social,Switch,Novel22,Novel17,FALSE,straightaheadlonger,162,m,2.9,2,No-social,8,2,2,1,Novel20,0,Novel17,1,4412,straightaheadlonger,-1,test,FALSE,0,v2,no-social,Switch,Novel22,Novel17,FALSE,straightaheadlonger,162,m,2.9,2,No-social,8,2,2,1,Novel20,0,Novel17,1,4412,straightaheadlonger,-1,test,FALSE,0,v2,no-social,Switch,Novel22,Novel17,FALSE,straightaheadlonger,162,m,2.9,2,No-social,8,2,2,1,Novel20,0,Novel17,1,4412,straightaheadlonger,-1,test,FALSE,0,v2,no-social,Switch,Novel22,Novel17,FALSE,straightaheadlonger,162,m,2.9,2,No-social,8,2,2,1,Novel20,0,Novel17,1,4412,straightaheadlonger,-1,test,FALSE,0,v2,no-social,Switch,Novel22,Novel17,FALSE,straightaheadlonger,162,m,2.9,2,No-social,8,2,2,1,Novel20,0,Novel17,1,4412,straightaheadlonger,-1,test,FALSE,0,v2,no-social,Switch,Novel22,Novel17,FALSE,straightaheadlonger,162,m,2.9,2,No-social,8,2,2,1,Novel20,0,Novel17,1,4412,straightaheadlonger,-1,test,FALSE,0,v2,no-social,Switch,Novel22,Novel17,FALSE,straightaheadlonger,162,m,2.9,2,No-social,8,2,2,1,Novel20,0,Novel17,1,4412,straightaheadlonger,-1,test,FALSE,0,v2,no-social,Switch,Novel22,Novel17,FALSE,straightaheadlonger,162,m,2.9,2,No-social,8,2,2,1,Novel20,0,Novel17,1,4412,straightaheadlonger,-1,test,FALSE,0,v2,no-social,Switch,Novel22,Novel17,FALSE,straightaheadlonger,162,m,2.9,2,No-social,8,2,2,1,Novel20,0,Novel17,1,4412,straightaheadlonger,-1,test,FALSE,0,v2,no-social,Switch,Novel22,Novel17,FALSE,straightaheadlonger,162,m,2.9,2,No-social,8,2,2,1,Novel20,0,Novel17,1,4412,straightaheadlonger,-1,test,FALSE,0,v2,no-social,Switch,Novel22,Novel17,FALSE,straightaheadlonger,162,m,2.9,2,No-social,8,2,2,1,Novel20,0,Novel17,1,4412,straightaheadlonger,-1,test,FALSE,0,v2,no-social,Switch,Novel22,Novel17,FALSE,straightaheadlonger,162,m,2.9,2,No-social,8,2,2,1,Novel20,0,Novel17,1,4412,straightaheadlonger,-1,test,FALSE,0,v2,no-social,Switch,Novel22,Novel17,FALSE,straightaheadlonger,162,m,2.9,2,No-social,10,3,2,0,Novel25,0,Novel25,1,3309,straightaheadlonger,-1,test,TRUE,0,v2,no-social,Switch,Novel12,Novel25,FALSE,straightaheadlonger,162,m,2.9,2,No-social,10,3,2,0,Novel25,0,Novel25,1,3309,straightaheadlonger,-1,test,TRUE,0,v2,no-social,Switch,Novel12,Novel25,FALSE,straightaheadlonger,162,m,2.9,2,No-social,10,3,2,0,Novel25,0,Novel25,1,3309,straightaheadlonger,-1,test,TRUE,0,v2,no-social,Switch,Novel12,Novel25,FALSE,straightaheadlonger,162,m,2.9,2,No-social,10,3,2,0,Novel25,0,Novel25,1,3309,straightaheadlonger,-1,test,TRUE,0,v2,no-social,Switch,Novel12,Novel25,FALSE,straightaheadlonger,162,m,2.9,2,No-social,10,3,2,0,Novel25,0,Novel25,1,3309,straightaheadlonger,-1,test,TRUE,0,v2,no-social,Switch,Novel12,Novel25,FALSE,straightaheadlonger,162,m,2.9,2,No-social,10,3,2,0,Novel25,0,Novel25,1,3309,straightaheadlonger,-1,test,TRUE,0,v2,no-social,Switch,Novel12,Novel25,FALSE,straightaheadlonger,162,m,2.9,2,No-social,10,3,2,0,Novel25,0,Novel25,1,3309,straightaheadlonger,-1,test,TRUE,0,v2,no-social,Switch,Novel12,Novel25,FALSE,straightaheadlonger,162,m,2.9,2,No-social,10,3,2,0,Novel25,0,Novel25,1,3309,straightaheadlonger,-1,test,TRUE,0,v2,no-social,Switch,Novel12,Novel25,FALSE,straightaheadlonger,162,m,2.9,2,No-social,10,3,2,0,Novel25,0,Novel25,1,3309,straightaheadlonger,-1,test,TRUE,0,v2,no-social,Switch,Novel12,Novel25,FALSE,straightaheadlonger,162,m,2.9,2,No-social,10,3,2,0,Novel25,0,Novel25,1,3309,straightaheadlonger,-1,test,TRUE,0,v2,no-social,Switch,Novel12,Novel25,FALSE,straightaheadlonger,162,m,2.9,2,No-social,10,3,2,0,Novel25,0,Novel25,1,3309,straightaheadlonger,-1,test,TRUE,0,v2,no-social,Switch,Novel12,Novel25,FALSE,straightaheadlonger,162,m,2.9,2,No-social,10,3,2,0,Novel25,0,Novel25,1,3309,straightaheadlonger,-1,test,TRUE,0,v2,no-social,Switch,Novel12,Novel25,FALSE,straightaheadlonger,162,m,2.9,2,No-social,10,3,2,0,Novel25,0,Novel25,1,3309,straightaheadlonger,-1,test,TRUE,0,v2,no-social,Switch,Novel12,Novel25,FALSE,straightaheadlonger,162,m,2.9,2,No-social,10,3,2,0,Novel25,0,Novel25,1,3309,straightaheadlonger,-1,test,TRUE,0,v2,no-social,Switch,Novel12,Novel25,FALSE,straightaheadlonger,162,m,2.9,2,No-social,10,3,2,0,Novel25,0,Novel25,1,3309,straightaheadlonger,-1,test,TRUE,0,v2,no-social,Switch,Novel12,Novel25,FALSE,straightaheadlonger,162,m,2.9,2,No-social,10,3,2,0,Novel25,0,Novel25,1,3309,straightaheadlonger,-1,test,TRUE,0,v2,no-social,Switch,Novel12,Novel25,FALSE,straightaheadlonger,162,m,2.9,2,No-social,12,4,1,1,Novel4,1,Novel2,0,6242,straightaheadlonger,-1,test,FALSE,0,v2,no-social,Same,Novel2,Novel2,FALSE,straightaheadlonger,162,m,2.9,2,No-social,12,4,1,1,Novel4,1,Novel2,0,6242,straightaheadlonger,-1,test,FALSE,0,v2,no-social,Same,Novel2,Novel2,FALSE,straightaheadlonger,162,m,2.9,2,No-social,12,4,1,1,Novel4,1,Novel2,0,6242,straightaheadlonger,-1,test,FALSE,0,v2,no-social,Same,Novel2,Novel2,FALSE,straightaheadlonger,162,m,2.9,2,No-social,12,4,1,1,Novel4,1,Novel2,0,6242,straightaheadlonger,-1,test,FALSE,0,v2,no-social,Same,Novel2,Novel2,FALSE,straightaheadlonger,162,m,2.9,2,No-social,12,4,1,1,Novel4,1,Novel2,0,6242,straightaheadlonger,-1,test,FALSE,0,v2,no-social,Same,Novel2,Novel2,FALSE,straightaheadlonger,162,m,2.9,2,No-social,12,4,1,1,Novel4,1,Novel2,0,6242,straightaheadlonger,-1,test,FALSE,0,v2,no-social,Same,Novel2,Novel2,FALSE,straightaheadlonger,162,m,2.9,2,No-social,12,4,1,1,Novel4,1,Novel2,0,6242,straightaheadlonger,-1,test,FALSE,0,v2,no-social,Same,Novel2,Novel2,FALSE,straightaheadlonger,162,m,2.9,2,No-social,12,4,1,1,Novel4,1,Novel2,0,6242,straightaheadlonger,-1,test,FALSE,0,v2,no-social,Same,Novel2,Novel2,FALSE,straightaheadlonger,162,m,2.9,2,No-social,12,4,1,1,Novel4,1,Novel2,0,6242,straightaheadlonger,-1,test,FALSE,0,v2,no-social,Same,Novel2,Novel2,FALSE,straightaheadlonger,162,m,2.9,2,No-social,12,4,1,1,Novel4,1,Novel2,0,6242,straightaheadlonger,-1,test,FALSE,0,v2,no-social,Same,Novel2,Novel2,FALSE,straightaheadlonger,162,m,2.9,2,No-social,12,4,1,1,Novel4,1,Novel2,0,6242,straightaheadlonger,-1,test,FALSE,0,v2,no-social,Same,Novel2,Novel2,FALSE,straightaheadlonger,162,m,2.9,2,No-social,12,4,1,1,Novel4,1,Novel2,0,6242,straightaheadlonger,-1,test,FALSE,0,v2,no-social,Same,Novel2,Novel2,FALSE,straightaheadlonger,162,m,2.9,2,No-social,12,4,1,1,Novel4,1,Novel2,0,6242,straightaheadlonger,-1,test,FALSE,0,v2,no-social,Same,Novel2,Novel2,FALSE,straightaheadlonger,162,m,2.9,2,No-social,12,4,1,1,Novel4,1,Novel2,0,6242,straightaheadlonger,-1,test,FALSE,0,v2,no-social,Same,Novel2,Novel2,FALSE,straightaheadlonger,162,m,2.9,2,No-social,12,4,1,1,Novel4,1,Novel2,0,6242,straightaheadlonger,-1,test,FALSE,0,v2,no-social,Same,Novel2,Novel2,FALSE,straightaheadlonger,162,m,2.9,2,No-social,12,4,1,1,Novel4,1,Novel2,0,6242,straightaheadlonger,-1,test,FALSE,0,v2,no-social,Same,Novel2,Novel2,FALSE,straightaheadlonger,162,m,2.9,2,No-social,14,5,2,0,Novel16,0,Novel16,1,5194,straightaheadlonger,-1,test,TRUE,0,v2,no-social,Switch,Novel27,Novel16,FALSE,straightaheadlonger,162,m,2.9,2,No-social,14,5,2,0,Novel16,0,Novel16,1,5194,straightaheadlonger,-1,test,TRUE,0,v2,no-social,Switch,Novel27,Novel16,FALSE,straightaheadlonger,162,m,2.9,2,No-social,14,5,2,0,Novel16,0,Novel16,1,5194,straightaheadlonger,-1,test,TRUE,0,v2,no-social,Switch,Novel27,Novel16,FALSE,straightaheadlonger,162,m,2.9,2,No-social,14,5,2,0,Novel16,0,Novel16,1,5194,straightaheadlonger,-1,test,TRUE,0,v2,no-social,Switch,Novel27,Novel16,FALSE,straightaheadlonger,162,m,2.9,2,No-social,14,5,2,0,Novel16,0,Novel16,1,5194,straightaheadlonger,-1,test,TRUE,0,v2,no-social,Switch,Novel27,Novel16,FALSE,straightaheadlonger,162,m,2.9,2,No-social,14,5,2,0,Novel16,0,Novel16,1,5194,straightaheadlonger,-1,test,TRUE,0,v2,no-social,Switch,Novel27,Novel16,FALSE,straightaheadlonger,162,m,2.9,2,No-social,14,5,2,0,Novel16,0,Novel16,1,5194,straightaheadlonger,-1,test,TRUE,0,v2,no-social,Switch,Novel27,Novel16,FALSE,straightaheadlonger,162,m,2.9,2,No-social,14,5,2,0,Novel16,0,Novel16,1,5194,straightaheadlonger,-1,test,TRUE,0,v2,no-social,Switch,Novel27,Novel16,FALSE,straightaheadlonger,162,m,2.9,2,No-social,14,5,2,0,Novel16,0,Novel16,1,5194,straightaheadlonger,-1,test,TRUE,0,v2,no-social,Switch,Novel27,Novel16,FALSE,straightaheadlonger,162,m,2.9,2,No-social,14,5,2,0,Novel16,0,Novel16,1,5194,straightaheadlonger,-1,test,TRUE,0,v2,no-social,Switch,Novel27,Novel16,FALSE,straightaheadlonger,162,m,2.9,2,No-social,14,5,2,0,Novel16,0,Novel16,1,5194,straightaheadlonger,-1,test,TRUE,0,v2,no-social,Switch,Novel27,Novel16,FALSE,straightaheadlonger,162,m,2.9,2,No-social,14,5,2,0,Novel16,0,Novel16,1,5194,straightaheadlonger,-1,test,TRUE,0,v2,no-social,Switch,Novel27,Novel16,FALSE,straightaheadlonger,162,m,2.9,2,No-social,14,5,2,0,Novel16,0,Novel16,1,5194,straightaheadlonger,-1,test,TRUE,0,v2,no-social,Switch,Novel27,Novel16,FALSE,straightaheadlonger,162,m,2.9,2,No-social,14,5,2,0,Novel16,0,Novel16,1,5194,straightaheadlonger,-1,test,TRUE,0,v2,no-social,Switch,Novel27,Novel16,FALSE,straightaheadlonger,162,m,2.9,2,No-social,14,5,2,0,Novel16,0,Novel16,1,5194,straightaheadlonger,-1,test,TRUE,0,v2,no-social,Switch,Novel27,Novel16,FALSE,straightaheadlonger,162,m,2.9,2,No-social,14,5,2,0,Novel16,0,Novel16,1,5194,straightaheadlonger,-1,test,TRUE,0,v2,no-social,Switch,Novel27,Novel16,FALSE,straightaheadlonger,163,f,3.59,3,No-social,4,0,1,1,Novel17,0,Novel22,1,4376,straightaheadlonger,-1,test,FALSE,1,v2,no-social,Same,Novel22,Novel22,TRUE,straightaheadlonger,163,f,3.59,3,No-social,6,1,1,0,Novel19,1,Novel9,1,3646,straightaheadlonger,-1,test,FALSE,1,v2,no-social,Same,Novel9,Novel9,TRUE,straightaheadlonger,163,f,3.59,3,No-social,8,2,2,1,Novel13,1,Novel13,1,6427,straightaheadlonger,-1,test,TRUE,1,v2,no-social,Switch,Novel12,Novel13,FALSE,straightaheadlonger,163,f,3.59,3,No-social,10,3,2,0,Novel4,1,Novel14,1,7138,straightaheadlonger,-1,test,FALSE,1,v2,no-social,Switch,Novel18,Novel14,FALSE,straightaheadlonger,163,f,3.59,3,No-social,12,4,1,1,Novel1,0,Novel1,0,7864,straightaheadlonger,-1,test,TRUE,1,v2,no-social,Same,Novel1,Novel1,FALSE,straightaheadlonger,163,f,3.59,3,No-social,14,5,2,0,Novel5,1,Novel5,0,4338,straightaheadlonger,-1,test,TRUE,1,v2,no-social,Switch,Novel6,Novel5,TRUE,straightaheadlonger,164,m,3.65,3,Social,4,0,1,0,Novel26,0,Novel26,1,9588,RDkidslonger,1,test,TRUE,0,v2,social,Same,Novel26,Novel26,TRUE,RDkidslonger,164,m,3.65,3,Social,6,1,1,1,Novel20,0,Novel23,1,16359,RDkidslonger,1,test,FALSE,0,v2,social,Same,Novel23,Novel23,TRUE,RDkidslonger,164,m,3.65,3,Social,8,2,2,1,Novel14,1,Novel13,0,8222,LDkidslonger,0,test,FALSE,0,v2,social,Switch,Novel15,Novel13,FALSE,LDkidslonger,064,m,3.65,3,Social,10,3,2,0,Novel24,1,Novel24,0,17604,RDkidslonger,1,test,TRUE,0,v2,social,Switch,Novel5,Novel24,TRUE,RDkidslonger,164,m,3.65,3,Social,12,4,1,0,Novel9,0,Novel12,0,8111,RDkidslonger,1,test,FALSE,0,v2,social,Same,Novel12,Novel12,FALSE,RDkidslonger,164,m,3.65,3,Social,14,5,2,1,Novel10,0,Novel16,1,4913,RDkidslonger,1,test,FALSE,0,v2,social,Switch,Novel27,Novel16,FALSE,RDkidslonger,165,f,4.67,4,Social,4,0,1,0,Novel7,0,Novel7,1,1772,LDkidslonger,0,test,TRUE,1,v2,social,Same,Novel7,Novel7,FALSE,LDkidslonger,065,f,4.67,4,Social,6,1,1,1,Novel6,0,Novel6,0,1642,RDkidslonger,1,test,TRUE,1,v2,social,Same,Novel6,Novel6,FALSE,RDkidslonger,165,f,4.67,4,Social,8,2,2,0,Novel16,0,Novel16,1,1794,LDkidslonger,0,test,TRUE,1,v2,social,Switch,Novel27,Novel16,TRUE,LDkidslonger,065,f,4.67,4,Social,10,3,2,1,Novel8,1,Novel10,0,1358,RDkidslonger,1,test,FALSE,1,v2,social,Switch,Novel2,Novel10,TRUE,RDkidslonger,165,f,4.67,4,Social,12,4,1,0,Novel26,0,Novel26,1,4411,RDkidslonger,1,test,TRUE,1,v2,social,Same,Novel26,Novel26,TRUE,RDkidslonger,165,f,4.67,4,Social,14,5,2,1,Novel18,1,Novel3,0,3533,RDkidslonger,1,test,FALSE,1,v2,social,Switch,Novel13,Novel3,TRUE,RDkidslonger,166,f,4.34,4,No-social,4,0,1,0,Novel23,1,Novel23,0,2139,straightaheadlonger,-1,test,TRUE,1,v2,no-social,Same,Novel23,Novel23,FALSE,straightaheadlonger,166,f,4.34,4,No-social,6,1,1,1,Novel11,1,Novel11,1,1513,straightaheadlonger,-1,test,TRUE,1,v2,no-social,Same,Novel11,Novel11,TRUE,straightaheadlonger,166,f,4.34,4,No-social,8,2,2,0,Novel2,1,Novel2,0,4836,straightaheadlonger,-1,test,TRUE,1,v2,no-social,Switch,Novel24,Novel2,TRUE,straightaheadlonger,166,f,4.34,4,No-social,10,3,2,1,Novel20,0,Novel25,1,9325,straightaheadlonger,-1,test,FALSE,1,v2,no-social,Switch,Novel18,Novel25,FALSE,straightaheadlonger,166,f,4.34,4,No-social,12,4,1,0,Novel15,0,Novel15,1,5389,straightaheadlonger,-1,test,TRUE,1,v2,no-social,Same,Novel15,Novel15,TRUE,straightaheadlonger,166,f,4.34,4,No-social,14,5,2,1,Novel27,1,Novel27,1,4823,straightaheadlonger,-1,test,TRUE,1,v2,no-social,Switch,Novel17,Novel27,FALSE,straightaheadlonger,167,f,4.01,4,Social,4,0,1,0,Novel15,1,Novel15,0,5895,LDkidslonger,0,test,TRUE,1,v2,social,Same,Novel15,Novel15,TRUE,LDkidslonger,067,f,4.01,4,Social,6,1,1,1,Novel18,0,Novel18,0,1504,LDkidslonger,0,test,TRUE,1,v2,social,Same,Novel18,Novel18,TRUE,LDkidslonger,067,f,4.01,4,Social,8,2,2,1,Novel26,0,Novel23,1,5252,LDkidslonger,0,test,FALSE,1,v2,social,Switch,Novel16,Novel23,TRUE,LDkidslonger,067,f,4.01,4,Social,10,3,2,0,Novel22,1,Novel22,0,4089,RDkidslonger,1,test,TRUE,1,v2,social,Switch,Novel7,Novel22,TRUE,RDkidslonger,167,f,4.01,4,Social,12,4,1,0,Novel8,0,Novel8,1,2585,RDkidslonger,1,test,TRUE,1,v2,social,Same,Novel8,Novel8,TRUE,RDkidslonger,167,f,4.01,4,Social,14,5,2,1,Novel20,1,Novel20,1,3524,LDkidslonger,0,test,TRUE,1,v2,social,Switch,Novel13,Novel20,TRUE,LDkidslonger,068,f,4.08,4,No-social,4,0,1,0,Novel7,1,Novel7,0,1669,straightaheadlonger,-1,test,TRUE,1,v2,no-social,Same,Novel7,Novel7,FALSE,straightaheadlonger,168,f,4.08,4,No-social,6,1,1,1,Novel25,0,Novel25,0,2149,straightaheadlonger,-1,test,TRUE,1,v2,no-social,Same,Novel25,Novel25,FALSE,straightaheadlonger,168,f,4.08,4,No-social,8,2,2,0,Novel12,0,Novel12,1,2852,straightaheadlonger,-1,test,TRUE,1,v2,no-social,Switch,Novel8,Novel12,FALSE,straightaheadlonger,168,f,4.08,4,No-social,10,3,2,1,Novel13,1,Novel3,0,2013,straightaheadlonger,-1,test,FALSE,1,v2,no-social,Switch,Novel1,Novel3,TRUE,straightaheadlonger,168,f,4.08,4,No-social,12,4,1,0,Novel15,0,Novel15,1,1418,straightaheadlonger,-1,test,TRUE,1,v2,no-social,Same,Novel15,Novel15,TRUE,straightaheadlonger,168,f,4.08,4,No-social,14,5,2,1,Novel24,0,Novel6,1,1252,straightaheadlonger,-1,test,FALSE,1,v2,no-social,Switch,Novel4,Novel6,FALSE,straightaheadlonger,169,m,2.61,2,Social,4,0,1,1,Novel13,1,Novel13,1,6753,RDkidslonger,1,test,TRUE,1,v2,social,Same,Novel13,Novel13,TRUE,RDkidslonger,169,m,2.61,2,Social,6,1,1,0,Novel3,0,Novel3,1,3107,RDkidslonger,1,test,TRUE,1,v2,social,Same,Novel3,Novel3,TRUE,RDkidslonger,169,m,2.61,2,Social,8,2,2,1,Novel24,0,Novel15,1,12169,LDkidslonger,0,test,FALSE,1,v2,social,Switch,Novel25,Novel15,TRUE,LDkidslonger,069,m,2.61,2,Social,10,3,2,0,Novel14,0,Novel14,1,4331,LDkidslonger,0,test,TRUE,1,v2,social,Switch,Novel21,Novel14,TRUE,LDkidslonger,069,m,2.61,2,Social,12,4,1,1,Novel8,1,Novel8,1,3018,RDkidslonger,1,test,TRUE,1,v2,social,Same,Novel8,Novel8,TRUE,RDkidslonger,169,m,2.61,2,Social,14,5,2,0,Novel4,1,Novel4,0,6500,RDkidslonger,1,test,TRUE,1,v2,social,Switch,Novel20,Novel4,TRUE,RDkidslonger,170,f,4.53,4,No-social,4,0,1,0,Novel2,0,Novel2,1,2126,straightaheadlonger,-1,test,TRUE,1,v2,no-social,Same,Novel2,Novel2,TRUE,straightaheadlonger,170,f,4.53,4,No-social,6,1,1,1,Novel14,1,Novel8,0,2263,straightaheadlonger,-1,test,FALSE,1,v2,no-social,Same,Novel8,Novel8,FALSE,straightaheadlonger,170,f,4.53,4,No-social,8,2,2,0,Novel21,1,Novel21,0,2025,straightaheadlonger,-1,test,TRUE,1,v2,no-social,Switch,Novel12,Novel21,TRUE,straightaheadlonger,170,f,4.53,4,No-social,10,3,2,1,Novel10,0,Novel10,0,1816,straightaheadlonger,-1,test,TRUE,1,v2,no-social,Switch,Novel4,Novel10,TRUE,straightaheadlonger,170,f,4.53,4,No-social,12,4,1,0,Novel22,1,Novel22,0,1980,straightaheadlonger,-1,test,TRUE,1,v2,no-social,Same,Novel22,Novel22,FALSE,straightaheadlonger,170,f,4.53,4,No-social,14,5,2,1,Novel11,1,Novel18,0,1644,straightaheadlonger,-1,test,FALSE,1,v2,no-social,Switch,Novel15,Novel18,TRUE,straightaheadlonger,1