"","subid","submit.date","submit.time","trial.num","itemNum","trialType","samePos","chosen","chosenIdx","kept","keptIdx","rt","face","numPic","interval","test","exposure","day.and.time","faceIdx","choseSocial"
"585","A0275582F4QX5N8WTT19","Jan 18 2014","15:42:56",5,0,"Same",1,"Novel86",0,"Novel86",0,8644,"eyesleftarrow","4","3",NA,1,(Jan 18 2014 15:42:56),"0",TRUE
"586","A0275582F4QX5N8WTT19","Jan 18 2014","15:42:56",6,1,"Switch",0,"Novel136",3,"Novel6",2,4423,"eyesrightarrow","4","3",NA,1,(Jan 18 2014 15:42:56),"3",TRUE
"587","A0275582F4QX5N8WTT19","Jan 18 2014","15:42:56",7,2,"Same",0,"Novel82",2,"Novel82",2,1876,"eyesdownrightarrow","4","3",NA,1,(Jan 18 2014 15:42:56),"2",TRUE
"588","A0275582F4QX5N8WTT19","Jan 18 2014","15:42:56",8,3,"Switch",0,"Novel73",1,"Novel67",2,2108,"eyesdownleftarrow","4","3",NA,1,(Jan 18 2014 15:42:56),"1",TRUE
"593","A0275582F4QX5N8WTT19","Jan 18 2014","15:42:56",13,4,"Same",1,"Novel52",3,"Novel52",3,1512,"eyesrightarrow","4","3",NA,1,(Jan 18 2014 15:42:56),"3",TRUE
"594","A0275582F4QX5N8WTT19","Jan 18 2014","15:42:56",14,5,"Switch",1,"Novel137",2,"Novel61",0,2323,"eyesdownrightarrow","4","3",NA,1,(Jan 18 2014 15:42:56),"2",TRUE
"595","A0275582F4QX5N8WTT19","Jan 18 2014","15:42:56",15,6,"Same",0,"Novel45",0,"Novel45",0,1397,"eyesleftarrow","4","3",NA,1,(Jan 18 2014 15:42:56),"0",TRUE
"596","A0275582F4QX5N8WTT19","Jan 18 2014","15:42:56",16,7,"Switch",1,"Novel134",0,"Novel56",3,1541,"eyesleftarrow","4","3",NA,1,(Jan 18 2014 15:42:56),"0",TRUE
"145","A12JZ4O65SKDPI","Jan 18 2014","15:14:39",5,0,"Same",1,"Novel25",3,"Novel25",3,8238,"eyesrightarrow","4","3",NA,1,(Jan 18 2014 15:14:39),"3",TRUE
"146","A12JZ4O65SKDPI","Jan 18 2014","15:14:39",6,1,"Switch",0,"Novel15",2,"Novel126",3,2156,"eyesdownrightarrow","4","3",NA,1,(Jan 18 2014 15:14:39),"2",TRUE
"147","A12JZ4O65SKDPI","Jan 18 2014","15:14:39",7,2,"Same",0,"Novel117",3,"Novel117",3,1485,"eyesrightarrow","4","3",NA,1,(Jan 18 2014 15:14:39),"3",TRUE
"148","A12JZ4O65SKDPI","Jan 18 2014","15:14:39",8,3,"Switch",1,"Novel122",2,"Novel132",3,2070,"eyesdownrightarrow","4","3",NA,1,(Jan 18 2014 15:14:39),"2",TRUE
"153","A12JZ4O65SKDPI","Jan 18 2014","15:14:39",13,4,"Same",0,"Novel22",2,"Novel22",2,1525,"eyesdownrightarrow","4","3",NA,1,(Jan 18 2014 15:14:39),"2",TRUE
"154","A12JZ4O65SKDPI","Jan 18 2014","15:14:39",14,5,"Switch",0,"Novel102",3,"Novel136",0,1474,"eyesrightarrow","4","3",NA,1,(Jan 18 2014 15:14:39),"3",TRUE
"155","A12JZ4O65SKDPI","Jan 18 2014","15:14:39",15,6,"Same",1,"Novel67",2,"Novel67",2,1165,"eyesdownrightarrow","4","3",NA,1,(Jan 18 2014 15:14:39),"2",TRUE
"156","A12JZ4O65SKDPI","Jan 18 2014","15:14:39",16,7,"Switch",1,"Novel120",0,"Novel23",1,1555,"eyesleftarrow","4","3",NA,1,(Jan 18 2014 15:14:39),"0",TRUE
"285","A16QWUZ58QTD5W","Jan 18 2014","15:25:05",5,0,"Same",0,"Novel114",2,"Novel114",2,8178,"eyesrightarrow","4","3",NA,1,(Jan 18 2014 15:25:05),"3",FALSE
"286","A16QWUZ58QTD5W","Jan 18 2014","15:25:05",6,1,"Switch",1,"Novel54",1,"Novel34",0,5475,"eyesdownrightarrow","4","3",NA,1,(Jan 18 2014 15:25:05),"2",FALSE
"287","A16QWUZ58QTD5W","Jan 18 2014","15:25:05",7,2,"Same",1,"Novel64",0,"Novel64",0,2779,"eyesleftarrow","4","3",NA,1,(Jan 18 2014 15:25:05),"0",TRUE
"288","A16QWUZ58QTD5W","Jan 18 2014","15:25:05",8,3,"Switch",1,"Novel61",1,"Novel53",2,2076,"eyesdownleftarrow","4","3",NA,1,(Jan 18 2014 15:25:05),"1",TRUE
"293","A16QWUZ58QTD5W","Jan 18 2014","15:25:05",13,4,"Same",0,"Novel51",2,"Novel51",2,1199,"eyesdownrightarrow","4","3",NA,1,(Jan 18 2014 15:25:05),"2",TRUE
"294","A16QWUZ58QTD5W","Jan 18 2014","15:25:05",14,5,"Switch",0,"Novel26",0,"Novel101",3,1119,"eyesleftarrow","4","3",NA,1,(Jan 18 2014 15:25:05),"0",TRUE
"295","A16QWUZ58QTD5W","Jan 18 2014","15:25:05",15,6,"Same",1,"Novel118",0,"Novel118",0,1044,"eyesleftarrow","4","3",NA,1,(Jan 18 2014 15:25:05),"0",TRUE
"296","A16QWUZ58QTD5W","Jan 18 2014","15:25:05",16,7,"Switch",0,"Novel112",1,"Novel28",3,990,"eyesdownleftarrow","4","3",NA,1,(Jan 18 2014 15:25:05),"1",TRUE
"5","A1DBE2OL84TBKB","Jan 18 2014","15:10:46",5,0,"Switch",1,"Novel58",0,"Novel127",3,1888,"eyesleftarrow","4","3",NA,1,(Jan 18 2014 15:10:46),"0",TRUE
"6","A1DBE2OL84TBKB","Jan 18 2014","15:10:46",6,1,"Same",0,"Novel38",1,"Novel38",1,1984,"eyesdownleftarrow","4","3",NA,1,(Jan 18 2014 15:10:46),"1",TRUE
"7","A1DBE2OL84TBKB","Jan 18 2014","15:10:46",7,2,"Switch",1,"Novel21",2,"Novel10",0,1734,"eyesdownrightarrow","4","3",NA,1,(Jan 18 2014 15:10:46),"2",TRUE
"8","A1DBE2OL84TBKB","Jan 18 2014","15:10:46",8,3,"Same",0,"Novel16",3,"Novel16",3,1458,"eyesrightarrow","4","3",NA,1,(Jan 18 2014 15:10:46),"3",TRUE
"13","A1DBE2OL84TBKB","Jan 18 2014","15:10:46",13,4,"Switch",0,"Novel86",0,"Novel93",1,3482,"eyesleftarrow","4","3",NA,1,(Jan 18 2014 15:10:46),"0",TRUE
"14","A1DBE2OL84TBKB","Jan 18 2014","15:10:46",14,5,"Same",1,"Novel88",0,"Novel88",0,1062,"eyesleftarrow","4","3",NA,1,(Jan 18 2014 15:10:46),"0",TRUE
"15","A1DBE2OL84TBKB","Jan 18 2014","15:10:46",15,6,"Switch",0,"Novel108",0,"Novel119",2,1962,"eyesleftarrow","4","3",NA,1,(Jan 18 2014 15:10:46),"0",TRUE
"16","A1DBE2OL84TBKB","Jan 18 2014","15:10:46",16,7,"Same",1,"Novel84",2,"Novel84",2,886,"eyesdownrightarrow","4","3",NA,1,(Jan 18 2014 15:10:46),"2",TRUE
"105","A1E8WU0ER9WT88","Jan 18 2014","15:13:32",5,0,"Switch",0,"Novel100",1,"Novel95",3,5052,"eyesdownleftarrow","4","3",NA,1,(Jan 18 2014 15:13:32),"1",TRUE
"106","A1E8WU0ER9WT88","Jan 18 2014","15:13:32",6,1,"Same",1,"Novel61",3,"Novel61",3,2683,"eyesrightarrow","4","3",NA,1,(Jan 18 2014 15:13:32),"3",TRUE
"107","A1E8WU0ER9WT88","Jan 18 2014","15:13:32",7,2,"Switch",0,"Novel115",3,"Novel30",1,3636,"eyesrightarrow","4","3",NA,1,(Jan 18 2014 15:13:32),"3",TRUE
"108","A1E8WU0ER9WT88","Jan 18 2014","15:13:32",8,3,"Same",0,"Novel16",3,"Novel16",3,2827,"eyesrightarrow","4","3",NA,1,(Jan 18 2014 15:13:32),"3",TRUE
"113","A1E8WU0ER9WT88","Jan 18 2014","15:13:32",13,4,"Switch",1,"Novel20",1,"Novel41",0,1895,"eyesdownleftarrow","4","3",NA,1,(Jan 18 2014 15:13:32),"1",TRUE
"114","A1E8WU0ER9WT88","Jan 18 2014","15:13:32",14,5,"Same",1,"Novel7",3,"Novel7",3,1855,"eyesrightarrow","4","3",NA,1,(Jan 18 2014 15:13:32),"3",TRUE
"115","A1E8WU0ER9WT88","Jan 18 2014","15:13:32",15,6,"Switch",1,"Novel36",1,"Novel94",2,1530,"eyesdownleftarrow","4","3",NA,1,(Jan 18 2014 15:13:32),"1",TRUE
"116","A1E8WU0ER9WT88","Jan 18 2014","15:13:32",16,7,"Same",0,"Novel63",2,"Novel63",2,1258,"eyesdownrightarrow","4","3",NA,1,(Jan 18 2014 15:13:32),"2",TRUE
"85","A1HXAMI9F1CUEF","Jan 18 2014","15:13:31",5,0,"Same",1,"Novel15",1,"Novel15",1,2946,"eyesdownleftarrow","4","3",NA,1,(Jan 18 2014 15:13:31),"1",TRUE
"86","A1HXAMI9F1CUEF","Jan 18 2014","15:13:31",6,1,"Switch",0,"Novel18",1,"Novel11",0,1490,"eyesdownleftarrow","4","3",NA,1,(Jan 18 2014 15:13:31),"1",TRUE
"87","A1HXAMI9F1CUEF","Jan 18 2014","15:13:31",7,2,"Same",0,"Novel19",2,"Novel19",2,1425,"eyesdownrightarrow","4","3",NA,1,(Jan 18 2014 15:13:31),"2",TRUE
"88","A1HXAMI9F1CUEF","Jan 18 2014","15:13:31",8,3,"Switch",0,"Novel121",3,"Novel50",0,1361,"eyesrightarrow","4","3",NA,1,(Jan 18 2014 15:13:31),"3",TRUE
"93","A1HXAMI9F1CUEF","Jan 18 2014","15:13:31",13,4,"Same",0,"Novel28",3,"Novel28",3,1086,"eyesrightarrow","4","3",NA,1,(Jan 18 2014 15:13:31),"3",TRUE
"94","A1HXAMI9F1CUEF","Jan 18 2014","15:13:31",14,5,"Switch",1,"Novel59",1,"Novel45",2,1166,"eyesdownleftarrow","4","3",NA,1,(Jan 18 2014 15:13:31),"1",TRUE
"95","A1HXAMI9F1CUEF","Jan 18 2014","15:13:31",15,6,"Same",1,"Novel8",0,"Novel8",0,1611,"eyesleftarrow","4","3",NA,1,(Jan 18 2014 15:13:31),"0",TRUE
"96","A1HXAMI9F1CUEF","Jan 18 2014","15:13:31",16,7,"Switch",1,"Novel14",1,"Novel91",3,874,"eyesdownleftarrow","4","3",NA,1,(Jan 18 2014 15:13:31),"1",TRUE
"185","A1JUKBY3NQH74W","Jan 18 2014","15:20:51",5,0,"Switch",1,"Novel79",3,"Novel10",1,3199,"eyesrightarrow","4","3",NA,1,(Jan 18 2014 15:20:51),"3",TRUE
"186","A1JUKBY3NQH74W","Jan 18 2014","15:20:51",6,1,"Same",0,"Novel8",1,"Novel8",1,2035,"eyesdownleftarrow","4","3",NA,1,(Jan 18 2014 15:20:51),"1",TRUE
"187","A1JUKBY3NQH74W","Jan 18 2014","15:20:51",7,2,"Switch",0,"Novel117",2,"Novel100",3,1364,"eyesdownrightarrow","4","3",NA,1,(Jan 18 2014 15:20:51),"2",TRUE
"188","A1JUKBY3NQH74W","Jan 18 2014","15:20:51",8,3,"Same",1,"Novel36",3,"Novel36",3,897,"eyesrightarrow","4","3",NA,1,(Jan 18 2014 15:20:51),"3",TRUE
"193","A1JUKBY3NQH74W","Jan 18 2014","15:20:51",13,4,"Switch",1,"Novel92",0,"Novel121",2,782,"eyesleftarrow","4","3",NA,1,(Jan 18 2014 15:20:51),"0",TRUE
"194","A1JUKBY3NQH74W","Jan 18 2014","15:20:51",14,5,"Same",1,"Novel31",2,"Novel31",2,828,"eyesdownrightarrow","4","3",NA,1,(Jan 18 2014 15:20:51),"2",TRUE
"195","A1JUKBY3NQH74W","Jan 18 2014","15:20:51",15,6,"Switch",0,"Novel90",3,"Novel102",2,963,"eyesrightarrow","4","3",NA,1,(Jan 18 2014 15:20:51),"3",TRUE
"196","A1JUKBY3NQH74W","Jan 18 2014","15:20:51",16,7,"Same",0,"Novel5",2,"Novel5",2,958,"eyesdownrightarrow","4","3",NA,1,(Jan 18 2014 15:20:51),"2",TRUE
"225","A1LII69V58R8OF","Jan 18 2014","15:22:44",5,0,"Same",0,"Novel16",1,"Novel16",1,5286,"eyesdownleftarrow","4","3",NA,1,(Jan 18 2014 15:22:44),"1",TRUE
"226","A1LII69V58R8OF","Jan 18 2014","15:22:44",6,1,"Switch",1,"Novel11",1,"Novel85",3,6946,"eyesdownleftarrow","4","3",NA,1,(Jan 18 2014 15:22:44),"1",TRUE
"227","A1LII69V58R8OF","Jan 18 2014","15:22:44",7,2,"Same",0,"Novel48",1,"Novel48",1,3398,"eyesdownleftarrow","4","3",NA,1,(Jan 18 2014 15:22:44),"1",TRUE
"228","A1LII69V58R8OF","Jan 18 2014","15:22:44",8,3,"Switch",0,"Novel94",2,"Novel124",0,1692,"eyesdownrightarrow","4","3",NA,1,(Jan 18 2014 15:22:44),"2",TRUE
"233","A1LII69V58R8OF","Jan 18 2014","15:22:44",13,4,"Same",1,"Novel116",2,"Novel116",2,4058,"eyesdownrightarrow","4","3",NA,1,(Jan 18 2014 15:22:44),"2",TRUE
"234","A1LII69V58R8OF","Jan 18 2014","15:22:44",14,5,"Switch",1,"Novel1",3,"Novel7",1,2289,"eyesrightarrow","4","3",NA,1,(Jan 18 2014 15:22:44),"3",TRUE
"235","A1LII69V58R8OF","Jan 18 2014","15:22:44",15,6,"Same",1,"Novel133",1,"Novel133",1,1523,"eyesdownleftarrow","4","3",NA,1,(Jan 18 2014 15:22:44),"1",TRUE
"236","A1LII69V58R8OF","Jan 18 2014","15:22:44",16,7,"Switch",0,"Novel100",3,"Novel73",1,3390,"eyesrightarrow","4","3",NA,1,(Jan 18 2014 15:22:44),"3",TRUE
"465","A1MVX5US03MRC5","Jan 18 2014","15:33:08",5,0,"Switch",0,"Novel102",0,"Novel88",2,3269,"eyesleftarrow","4","3",NA,1,(Jan 18 2014 15:33:08),"0",TRUE
"466","A1MVX5US03MRC5","Jan 18 2014","15:33:08",6,1,"Same",0,"Novel28",2,"Novel28",2,4247,"eyesdownrightarrow","4","3",NA,1,(Jan 18 2014 15:33:08),"2",TRUE
"467","A1MVX5US03MRC5","Jan 18 2014","15:33:08",7,2,"Switch",1,"Novel118",2,"Novel38",3,2162,"eyesdownrightarrow","4","3",NA,1,(Jan 18 2014 15:33:08),"2",TRUE
"468","A1MVX5US03MRC5","Jan 18 2014","15:33:08",8,3,"Same",1,"Novel21",1,"Novel21",1,2022,"eyesdownleftarrow","4","3",NA,1,(Jan 18 2014 15:33:08),"1",TRUE
"473","A1MVX5US03MRC5","Jan 18 2014","15:33:08",13,4,"Switch",1,"Novel76",2,"Novel14",3,1002,"eyesdownrightarrow","4","3",NA,1,(Jan 18 2014 15:33:08),"2",TRUE
"474","A1MVX5US03MRC5","Jan 18 2014","15:33:08",14,5,"Same",1,"Novel61",0,"Novel61",0,1315,"eyesleftarrow","4","3",NA,1,(Jan 18 2014 15:33:08),"0",TRUE
"475","A1MVX5US03MRC5","Jan 18 2014","15:33:08",15,6,"Switch",0,"Novel90",2,"Novel11",0,697,"eyesdownrightarrow","4","3",NA,1,(Jan 18 2014 15:33:08),"2",TRUE
"476","A1MVX5US03MRC5","Jan 18 2014","15:33:08",16,7,"Same",0,"Novel37",0,"Novel37",0,495,"eyesleftarrow","4","3",NA,1,(Jan 18 2014 15:33:08),"0",TRUE
"305","A1WULB4219PC28","Jan 18 2014","15:27:41",5,0,"Switch",0,"Novel28",0,"Novel44",1,6185,"eyesrightarrow","4","3",NA,1,(Jan 18 2014 15:27:41),"3",FALSE
"306","A1WULB4219PC28","Jan 18 2014","15:27:41",6,1,"Same",0,"Novel40",2,"Novel40",2,2654,"eyesdownrightarrow","4","3",NA,1,(Jan 18 2014 15:27:41),"2",TRUE
"307","A1WULB4219PC28","Jan 18 2014","15:27:41",7,2,"Switch",1,"Novel15",1,"Novel14",2,2358,"eyesleftarrow","4","3",NA,1,(Jan 18 2014 15:27:41),"0",FALSE
"308","A1WULB4219PC28","Jan 18 2014","15:27:41",8,3,"Same",0,"Novel75",1,"Novel75",1,3733,"eyesleftarrow","4","3",NA,1,(Jan 18 2014 15:27:41),"0",FALSE
"313","A1WULB4219PC28","Jan 18 2014","15:27:41",13,4,"Switch",0,"Novel52",2,"Novel131",0,2491,"eyesdownrightarrow","4","3",NA,1,(Jan 18 2014 15:27:41),"2",TRUE
"314","A1WULB4219PC28","Jan 18 2014","15:27:41",14,5,"Same",1,"Novel118",2,"Novel118",2,3104,"eyesrightarrow","4","3",NA,1,(Jan 18 2014 15:27:41),"3",FALSE
"315","A1WULB4219PC28","Jan 18 2014","15:27:41",15,6,"Switch",1,"Novel58",3,"Novel102",1,2456,"eyesrightarrow","4","3",NA,1,(Jan 18 2014 15:27:41),"3",TRUE
"316","A1WULB4219PC28","Jan 18 2014","15:27:41",16,7,"Same",1,"Novel51",2,"Novel51",2,1693,"eyesdownrightarrow","4","3",NA,1,(Jan 18 2014 15:27:41),"2",TRUE
"405","A1ZRK6K5JUPJAV","Jan 18 2014","15:29:58",5,0,"Same",0,"Novel11",1,"Novel11",1,5223,"eyesleftarrow","4","3",NA,1,(Jan 18 2014 15:29:58),"0",FALSE
"406","A1ZRK6K5JUPJAV","Jan 18 2014","15:29:58",6,1,"Switch",0,"Novel82",3,"Novel80",1,3614,"eyesdownleftarrow","4","3",NA,1,(Jan 18 2014 15:29:58),"1",FALSE
"407","A1ZRK6K5JUPJAV","Jan 18 2014","15:29:58",7,2,"Same",1,"Novel20",0,"Novel20",0,2627,"eyesleftarrow","4","3",NA,1,(Jan 18 2014 15:29:58),"0",TRUE
"408","A1ZRK6K5JUPJAV","Jan 18 2014","15:29:58",8,3,"Switch",0,"Novel119",2,"Novel71",1,2229,"eyesdownrightarrow","4","3",NA,1,(Jan 18 2014 15:29:58),"2",TRUE
"413","A1ZRK6K5JUPJAV","Jan 18 2014","15:29:58",13,4,"Same",1,"Novel73",3,"Novel73",3,7190,"eyesrightarrow","4","3",NA,1,(Jan 18 2014 15:29:58),"3",TRUE
"414","A1ZRK6K5JUPJAV","Jan 18 2014","15:29:58",14,5,"Switch",1,"Novel37",0,"Novel21",2,1331,"eyesleftarrow","4","3",NA,1,(Jan 18 2014 15:29:58),"0",TRUE
"415","A1ZRK6K5JUPJAV","Jan 18 2014","15:29:58",15,6,"Same",0,"Novel56",1,"Novel56",1,2060,"eyesleftarrow","4","3",NA,1,(Jan 18 2014 15:29:58),"0",FALSE
"416","A1ZRK6K5JUPJAV","Jan 18 2014","15:29:58",16,7,"Switch",1,"Novel139",2,"Novel102",3,1490,"eyesdownrightarrow","4","3",NA,1,(Jan 18 2014 15:29:58),"2",TRUE
"565","A25DP39XRZDLQM","Jan 18 2014","15:39:13",5,0,"Switch",0,"Novel109",0,"Novel62",1,1791,"eyesleftarrow","4","3",NA,1,(Jan 18 2014 15:39:13),"0",TRUE
"566","A25DP39XRZDLQM","Jan 18 2014","15:39:13",6,1,"Same",0,"Novel45",0,"Novel45",0,565,"eyesleftarrow","4","3",NA,1,(Jan 18 2014 15:39:13),"0",TRUE
"567","A25DP39XRZDLQM","Jan 18 2014","15:39:13",7,2,"Switch",1,"Novel120",2,"Novel49",1,683,"eyesdownrightarrow","4","3",NA,1,(Jan 18 2014 15:39:13),"2",TRUE
"568","A25DP39XRZDLQM","Jan 18 2014","15:39:13",8,3,"Same",1,"Novel3",1,"Novel3",1,679,"eyesdownleftarrow","4","3",NA,1,(Jan 18 2014 15:39:13),"1",TRUE
"573","A25DP39XRZDLQM","Jan 18 2014","15:39:13",13,4,"Switch",1,"Novel85",2,"Novel35",1,1292,"eyesdownrightarrow","4","3",NA,1,(Jan 18 2014 15:39:13),"2",TRUE
"574","A25DP39XRZDLQM","Jan 18 2014","15:39:13",14,5,"Same",1,"Novel82",1,"Novel82",1,596,"eyesdownleftarrow","4","3",NA,1,(Jan 18 2014 15:39:13),"1",TRUE
"575","A25DP39XRZDLQM","Jan 18 2014","15:39:13",15,6,"Switch",0,"Novel107",2,"Novel48",0,622,"eyesdownrightarrow","4","3",NA,1,(Jan 18 2014 15:39:13),"2",TRUE
"576","A25DP39XRZDLQM","Jan 18 2014","15:39:13",16,7,"Same",0,"Novel50",2,"Novel50",2,216,"eyesdownrightarrow","4","3",NA,1,(Jan 18 2014 15:39:13),"2",TRUE
"345","A2739GEXW0HL34","Jan 18 2014","15:28:28",5,0,"Same",0,"Novel117",1,"Novel117",1,4370,"eyesdownleftarrow","4","3",NA,1,(Jan 18 2014 15:28:28),"1",TRUE
"346","A2739GEXW0HL34","Jan 18 2014","15:28:28",6,1,"Switch",0,"Novel43",3,"Novel24",2,3090,"eyesrightarrow","4","3",NA,1,(Jan 18 2014 15:28:28),"3",TRUE
"347","A2739GEXW0HL34","Jan 18 2014","15:28:28",7,2,"Same",1,"Novel91",3,"Novel91",3,1596,"eyesrightarrow","4","3",NA,1,(Jan 18 2014 15:28:28),"3",TRUE
"348","A2739GEXW0HL34","Jan 18 2014","15:28:28",8,3,"Switch",0,"Novel95",2,"Novel125",0,908,"eyesdownrightarrow","4","3",NA,1,(Jan 18 2014 15:28:28),"2",TRUE
"353","A2739GEXW0HL34","Jan 18 2014","15:28:28",13,4,"Same",0,"Novel110",2,"Novel110",2,1226,"eyesdownrightarrow","4","3",NA,1,(Jan 18 2014 15:28:28),"2",TRUE
"354","A2739GEXW0HL34","Jan 18 2014","15:28:28",14,5,"Switch",1,"Novel98",1,"Novel13",2,1330,"eyesdownleftarrow","4","3",NA,1,(Jan 18 2014 15:28:28),"1",TRUE
"355","A2739GEXW0HL34","Jan 18 2014","15:28:28",15,6,"Same",1,"Novel129",2,"Novel129",2,906,"eyesdownrightarrow","4","3",NA,1,(Jan 18 2014 15:28:28),"2",TRUE
"356","A2739GEXW0HL34","Jan 18 2014","15:28:28",16,7,"Switch",1,"Novel11",2,"Novel134",0,913,"eyesdownrightarrow","4","3",NA,1,(Jan 18 2014 15:28:28),"2",TRUE
"425","A2C73Y1COWCA51","Jan 18 2014","15:30:12",5,0,"Same",1,"Novel127",3,"Novel127",3,12254,"eyesrightarrow","4","3",NA,1,(Jan 18 2014 15:30:12),"3",TRUE
"426","A2C73Y1COWCA51","Jan 18 2014","15:30:12",6,1,"Switch",1,"Novel104",1,"Novel112",0,4250,"eyesdownleftarrow","4","3",NA,1,(Jan 18 2014 15:30:12),"1",TRUE
"427","A2C73Y1COWCA51","Jan 18 2014","15:30:12",7,2,"Same",0,"Novel45",2,"Novel45",2,3221,"eyesdownrightarrow","4","3",NA,1,(Jan 18 2014 15:30:12),"2",TRUE
"428","A2C73Y1COWCA51","Jan 18 2014","15:30:12",8,3,"Switch",0,"Novel71",2,"Novel124",0,13540,"eyesdownrightarrow","4","3",NA,1,(Jan 18 2014 15:30:12),"2",TRUE
"433","A2C73Y1COWCA51","Jan 18 2014","15:30:12",13,4,"Same",0,"Novel56",2,"Novel56",2,2139,"eyesdownrightarrow","4","3",NA,1,(Jan 18 2014 15:30:12),"2",TRUE
"434","A2C73Y1COWCA51","Jan 18 2014","15:30:12",14,5,"Switch",0,"Novel4",1,"Novel28",2,11990,"eyesdownleftarrow","4","3",NA,1,(Jan 18 2014 15:30:12),"1",TRUE
"435","A2C73Y1COWCA51","Jan 18 2014","15:30:12",15,6,"Same",1,"Novel92",1,"Novel92",1,1239,"eyesdownleftarrow","4","3",NA,1,(Jan 18 2014 15:30:12),"1",TRUE
"436","A2C73Y1COWCA51","Jan 18 2014","15:30:12",16,7,"Switch",1,"Novel42",3,"Novel27",1,1491,"eyesrightarrow","4","3",NA,1,(Jan 18 2014 15:30:12),"3",TRUE
"45","A2NA2OJT15COZY","Jan 18 2014","15:11:42",5,0,"Switch",0,"Novel102",0,"Novel65",3,4039,"eyesleftarrow","4","3",NA,1,(Jan 18 2014 15:11:42),"0",TRUE
"46","A2NA2OJT15COZY","Jan 18 2014","15:11:42",6,1,"Same",0,"Novel115",3,"Novel115",3,3632,"eyesdownrightarrow","4","3",NA,1,(Jan 18 2014 15:11:42),"2",FALSE
"47","A2NA2OJT15COZY","Jan 18 2014","15:11:42",7,2,"Switch",0,"Novel44",3,"Novel9",1,2999,"eyesrightarrow","4","3",NA,1,(Jan 18 2014 15:11:42),"3",TRUE
"48","A2NA2OJT15COZY","Jan 18 2014","15:11:42",8,3,"Same",0,"Novel99",2,"Novel99",2,1815,"eyesdownrightarrow","4","3",NA,1,(Jan 18 2014 15:11:42),"2",TRUE
"53","A2NA2OJT15COZY","Jan 18 2014","15:11:42",13,4,"Switch",1,"Novel118",1,"Novel84",3,1603,"eyesdownleftarrow","4","3",NA,1,(Jan 18 2014 15:11:42),"1",TRUE
"54","A2NA2OJT15COZY","Jan 18 2014","15:11:42",14,5,"Same",1,"Novel12",1,"Novel12",1,2568,"eyesdownleftarrow","4","3",NA,1,(Jan 18 2014 15:11:42),"1",TRUE
"55","A2NA2OJT15COZY","Jan 18 2014","15:11:42",15,6,"Switch",1,"Novel50",3,"Novel64",1,1712,"eyesrightarrow","4","3",NA,1,(Jan 18 2014 15:11:42),"3",TRUE
"56","A2NA2OJT15COZY","Jan 18 2014","15:11:42",16,7,"Same",1,"Novel23",3,"Novel23",3,1921,"eyesrightarrow","4","3",NA,1,(Jan 18 2014 15:11:42),"3",TRUE
"325","A2OXXHGAM7B0Y","Jan 18 2014","15:28:20",5,0,"Switch",1,"Novel25",2,"Novel42",0,2144,"eyesdownrightarrow","4","3",NA,1,(Jan 18 2014 15:28:20),"2",TRUE
"326","A2OXXHGAM7B0Y","Jan 18 2014","15:28:20",6,1,"Same",1,"Novel13",2,"Novel13",2,1481,"eyesdownrightarrow","4","3",NA,1,(Jan 18 2014 15:28:20),"2",TRUE
"327","A2OXXHGAM7B0Y","Jan 18 2014","15:28:20",7,2,"Switch",1,"Novel114",2,"Novel116",1,1772,"eyesdownrightarrow","4","3",NA,1,(Jan 18 2014 15:28:20),"2",TRUE
"328","A2OXXHGAM7B0Y","Jan 18 2014","15:28:20",8,3,"Same",0,"Novel47",0,"Novel47",0,1712,"eyesleftarrow","4","3",NA,1,(Jan 18 2014 15:28:20),"0",TRUE
"333","A2OXXHGAM7B0Y","Jan 18 2014","15:28:20",13,4,"Switch",0,"Novel99",2,"Novel139",0,1873,"eyesdownrightarrow","4","3",NA,1,(Jan 18 2014 15:28:20),"2",TRUE
"334","A2OXXHGAM7B0Y","Jan 18 2014","15:28:20",14,5,"Same",0,"Novel53",3,"Novel53",3,1768,"eyesrightarrow","4","3",NA,1,(Jan 18 2014 15:28:20),"3",TRUE
"335","A2OXXHGAM7B0Y","Jan 18 2014","15:28:20",15,6,"Switch",0,"Novel40",1,"Novel109",3,1150,"eyesdownleftarrow","4","3",NA,1,(Jan 18 2014 15:28:20),"1",TRUE
"336","A2OXXHGAM7B0Y","Jan 18 2014","15:28:20",16,7,"Same",1,"Novel92",0,"Novel92",0,1299,"eyesleftarrow","4","3",NA,1,(Jan 18 2014 15:28:20),"0",TRUE
"25","A2TQUCYSLJJV47","Jan 18 2014","15:11:29",5,0,"Switch",0,"Novel134",3,"Novel50",2,3229,"eyesrightarrow","4","3",NA,1,(Jan 18 2014 15:11:29),"3",TRUE
"26","A2TQUCYSLJJV47","Jan 18 2014","15:11:29",6,1,"Same",0,"Novel136",2,"Novel136",2,2612,"eyesdownrightarrow","4","3",NA,1,(Jan 18 2014 15:11:29),"2",TRUE
"27","A2TQUCYSLJJV47","Jan 18 2014","15:11:29",7,2,"Switch",0,"Novel49",3,"Novel32",0,3247,"eyesrightarrow","4","3",NA,1,(Jan 18 2014 15:11:29),"3",TRUE
"28","A2TQUCYSLJJV47","Jan 18 2014","15:11:29",8,3,"Same",1,"Novel113",0,"Novel113",0,2904,"eyesleftarrow","4","3",NA,1,(Jan 18 2014 15:11:29),"0",TRUE
"33","A2TQUCYSLJJV47","Jan 18 2014","15:11:29",13,4,"Switch",1,"Novel92",0,"Novel121",1,4022,"eyesleftarrow","4","3",NA,1,(Jan 18 2014 15:11:29),"0",TRUE
"34","A2TQUCYSLJJV47","Jan 18 2014","15:11:29",14,5,"Same",0,"Novel123",2,"Novel123",2,3084,"eyesdownrightarrow","4","3",NA,1,(Jan 18 2014 15:11:29),"2",TRUE
"35","A2TQUCYSLJJV47","Jan 18 2014","15:11:29",15,6,"Switch",1,"Novel117",2,"Novel23",1,4197,"eyesdownrightarrow","4","3",NA,1,(Jan 18 2014 15:11:29),"2",TRUE
"36","A2TQUCYSLJJV47","Jan 18 2014","15:11:29",16,7,"Same",1,"Novel61",0,"Novel61",0,3052,"eyesleftarrow","4","3",NA,1,(Jan 18 2014 15:11:29),"0",TRUE
"445","A2TVLF6BGNNQBC","Jan 18 2014","15:32:34",5,0,"Same",1,"Novel129",1,"Novel129",1,2769,"eyesdownleftarrow","4","3",NA,1,(Jan 18 2014 15:32:34),"1",TRUE
"446","A2TVLF6BGNNQBC","Jan 18 2014","15:32:34",6,1,"Switch",1,"Novel80",0,"Novel120",1,837,"eyesleftarrow","4","3",NA,1,(Jan 18 2014 15:32:34),"0",TRUE
"447","A2TVLF6BGNNQBC","Jan 18 2014","15:32:34",7,2,"Same",0,"Novel93",3,"Novel93",3,1409,"eyesrightarrow","4","3",NA,1,(Jan 18 2014 15:32:34),"3",TRUE
"448","A2TVLF6BGNNQBC","Jan 18 2014","15:32:34",8,3,"Switch",1,"Novel135",3,"Novel112",0,1282,"eyesrightarrow","4","3",NA,1,(Jan 18 2014 15:32:34),"3",TRUE
"453","A2TVLF6BGNNQBC","Jan 18 2014","15:32:34",13,4,"Same",0,"Novel106",0,"Novel106",0,846,"eyesleftarrow","4","3",NA,1,(Jan 18 2014 15:32:34),"0",TRUE
"454","A2TVLF6BGNNQBC","Jan 18 2014","15:32:34",14,5,"Switch",0,"Novel42",3,"Novel99",0,925,"eyesrightarrow","4","3",NA,1,(Jan 18 2014 15:32:34),"3",TRUE
"455","A2TVLF6BGNNQBC","Jan 18 2014","15:32:34",15,6,"Same",1,"Novel45",0,"Novel45",0,969,"eyesleftarrow","4","3",NA,1,(Jan 18 2014 15:32:34),"0",TRUE
"456","A2TVLF6BGNNQBC","Jan 18 2014","15:32:34",16,7,"Switch",0,"Novel131",1,"Novel3",3,1045,"eyesdownleftarrow","4","3",NA,1,(Jan 18 2014 15:32:34),"1",TRUE
"385","A2VS0IP0RPFEAL","Jan 18 2014","15:29:53",5,0,"Same",0,"Novel117",1,"Novel117",1,3325,"eyesdownleftarrow","4","3",NA,1,(Jan 18 2014 15:29:53),"1",TRUE
"386","A2VS0IP0RPFEAL","Jan 18 2014","15:29:53",6,1,"Switch",0,"Novel122",0,"Novel18",2,2544,"eyesleftarrow","4","3",NA,1,(Jan 18 2014 15:29:53),"0",TRUE
"387","A2VS0IP0RPFEAL","Jan 18 2014","15:29:53",7,2,"Same",1,"Novel112",2,"Novel112",2,2754,"eyesdownrightarrow","4","3",NA,1,(Jan 18 2014 15:29:53),"2",TRUE
"388","A2VS0IP0RPFEAL","Jan 18 2014","15:29:53",8,3,"Switch",1,"Novel121",0,"Novel64",2,2370,"eyesleftarrow","4","3",NA,1,(Jan 18 2014 15:29:53),"0",TRUE
"393","A2VS0IP0RPFEAL","Jan 18 2014","15:29:53",13,4,"Same",0,"Novel41",2,"Novel41",2,5873,"eyesdownrightarrow","4","3",NA,1,(Jan 18 2014 15:29:53),"2",TRUE
"394","A2VS0IP0RPFEAL","Jan 18 2014","15:29:53",14,5,"Switch",1,"Novel137",2,"Novel132",1,2768,"eyesrightarrow","4","3",NA,1,(Jan 18 2014 15:29:53),"3",FALSE
"395","A2VS0IP0RPFEAL","Jan 18 2014","15:29:53",15,6,"Same",1,"Novel34",0,"Novel34",0,2021,"eyesleftarrow","4","3",NA,1,(Jan 18 2014 15:29:53),"0",TRUE
"396","A2VS0IP0RPFEAL","Jan 18 2014","15:29:53",16,7,"Switch",0,"Novel138",3,"Novel36",0,2211,"eyesrightarrow","4","3",NA,1,(Jan 18 2014 15:29:53),"3",TRUE
"365","A31Z5TPD8QKE26","Jan 18 2014","15:28:44",5,0,"Switch",0,"Novel122",3,"Novel10",2,6579,"eyesdownrightarrow","4","3",NA,1,(Jan 18 2014 15:28:44),"2",FALSE
"366","A31Z5TPD8QKE26","Jan 18 2014","15:28:44",6,1,"Same",1,"Novel2",1,"Novel2",1,3386,"eyesdownrightarrow","4","3",NA,1,(Jan 18 2014 15:28:44),"2",FALSE
"367","A31Z5TPD8QKE26","Jan 18 2014","15:28:44",7,2,"Switch",1,"Novel91",3,"Novel103",0,6255,"eyesleftarrow","4","3",NA,1,(Jan 18 2014 15:28:44),"0",FALSE
"368","A31Z5TPD8QKE26","Jan 18 2014","15:28:44",8,3,"Same",1,"Novel33",2,"Novel33",2,1682,"eyesdownrightarrow","4","3",NA,1,(Jan 18 2014 15:28:44),"2",TRUE
"373","A31Z5TPD8QKE26","Jan 18 2014","15:28:44",13,4,"Switch",0,"Novel79",2,"Novel11",1,1234,"eyesleftarrow","4","3",NA,1,(Jan 18 2014 15:28:44),"0",FALSE
"374","A31Z5TPD8QKE26","Jan 18 2014","15:28:44",14,5,"Same",0,"Novel62",0,"Novel62",0,2767,"eyesdownleftarrow","4","3",NA,1,(Jan 18 2014 15:28:44),"1",FALSE
"375","A31Z5TPD8QKE26","Jan 18 2014","15:28:44",15,6,"Switch",1,"Novel15",2,"Novel130",0,1878,"eyesdownleftarrow","4","3",NA,1,(Jan 18 2014 15:28:44),"1",FALSE
"376","A31Z5TPD8QKE26","Jan 18 2014","15:28:44",16,7,"Same",0,"Novel95",3,"Novel95",3,1503,"eyesdownrightarrow","4","3",NA,1,(Jan 18 2014 15:28:44),"2",FALSE
"245","A38PDFJ9KGQGLV","Jan 18 2014","15:23:45",5,0,"Same",0,"Novel90",0,"Novel90",0,3706,"eyesdownrightarrow","4","3",NA,1,(Jan 18 2014 15:23:45),"2",FALSE
"246","A38PDFJ9KGQGLV","Jan 18 2014","15:23:45",6,1,"Switch",0,"Novel76",0,"Novel97",2,3751,"eyesrightarrow","4","3",NA,1,(Jan 18 2014 15:23:45),"3",FALSE
"247","A38PDFJ9KGQGLV","Jan 18 2014","15:23:45",7,2,"Same",1,"Novel118",0,"Novel118",0,4095,"eyesdownleftarrow","4","3",NA,1,(Jan 18 2014 15:23:45),"1",FALSE
"248","A38PDFJ9KGQGLV","Jan 18 2014","15:23:45",8,3,"Switch",0,"Novel80",0,"Novel121",1,3490,"eyesdownleftarrow","4","3",NA,1,(Jan 18 2014 15:23:45),"1",FALSE
"253","A38PDFJ9KGQGLV","Jan 18 2014","15:23:45",13,4,"Same",0,"Novel58",0,"Novel58",0,7922,"eyesdownrightarrow","4","3",NA,1,(Jan 18 2014 15:23:45),"2",FALSE
"254","A38PDFJ9KGQGLV","Jan 18 2014","15:23:45",14,5,"Switch",1,"Novel46",1,"Novel123",0,3714,"eyesdownleftarrow","4","3",NA,1,(Jan 18 2014 15:23:45),"1",TRUE
"255","A38PDFJ9KGQGLV","Jan 18 2014","15:23:45",15,6,"Same",1,"Novel7",1,"Novel7",1,2194,"eyesdownleftarrow","4","3",NA,1,(Jan 18 2014 15:23:45),"1",TRUE
"256","A38PDFJ9KGQGLV","Jan 18 2014","15:23:45",16,7,"Switch",1,"Novel2",3,"Novel98",2,10007,"eyesrightarrow","4","3",NA,1,(Jan 18 2014 15:23:45),"3",TRUE
"505","A3EDFNG7NA7V0I","Jan 18 2014","15:34:01",5,0,"Switch",1,"Novel105",1,"Novel33",3,15635,"eyesleftarrow","4","3",NA,1,(Jan 18 2014 15:34:01),"0",FALSE
"506","A3EDFNG7NA7V0I","Jan 18 2014","15:34:01",6,1,"Same",0,"Novel45",0,"Novel45",0,8915,"eyesleftarrow","4","3",NA,1,(Jan 18 2014 15:34:01),"0",TRUE
"507","A3EDFNG7NA7V0I","Jan 18 2014","15:34:01",7,2,"Switch",0,"Novel9",1,"Novel127",0,4198,"eyesrightarrow","4","3",NA,1,(Jan 18 2014 15:34:01),"3",FALSE
"508","A3EDFNG7NA7V0I","Jan 18 2014","15:34:01",8,3,"Same",1,"Novel7",1,"Novel7",1,4314,"eyesdownleftarrow","4","3",NA,1,(Jan 18 2014 15:34:01),"1",TRUE
"513","A3EDFNG7NA7V0I","Jan 18 2014","15:34:01",13,4,"Switch",1,"Novel15",2,"Novel123",1,1704,"eyesdownleftarrow","4","3",NA,1,(Jan 18 2014 15:34:01),"1",FALSE
"514","A3EDFNG7NA7V0I","Jan 18 2014","15:34:01",14,5,"Same",0,"Novel83",3,"Novel83",3,1666,"eyesdownleftarrow","4","3",NA,1,(Jan 18 2014 15:34:01),"1",FALSE
"515","A3EDFNG7NA7V0I","Jan 18 2014","15:34:01",15,6,"Switch",0,"Novel67",3,"Novel28",2,1759,"eyesrightarrow","4","3",NA,1,(Jan 18 2014 15:34:01),"3",TRUE
"516","A3EDFNG7NA7V0I","Jan 18 2014","15:34:01",16,7,"Same",1,"Novel120",1,"Novel120",1,3803,"eyesdownrightarrow","4","3",NA,1,(Jan 18 2014 15:34:01),"2",FALSE
"265","A3H8M155NBFE1L","Jan 18 2014","15:24:56",5,0,"Switch",1,"Novel38",1,"Novel55",0,2056,"eyesdownleftarrow","4","3",NA,1,(Jan 18 2014 15:24:56),"1",TRUE
"266","A3H8M155NBFE1L","Jan 18 2014","15:24:56",6,1,"Same",0,"Novel115",0,"Novel115",0,878,"eyesleftarrow","4","3",NA,1,(Jan 18 2014 15:24:56),"0",TRUE
"267","A3H8M155NBFE1L","Jan 18 2014","15:24:56",7,2,"Switch",0,"Novel85",2,"Novel63",3,1223,"eyesdownrightarrow","4","3",NA,1,(Jan 18 2014 15:24:56),"2",TRUE
"268","A3H8M155NBFE1L","Jan 18 2014","15:24:56",8,3,"Same",1,"Novel125",1,"Novel125",1,1021,"eyesdownleftarrow","4","3",NA,1,(Jan 18 2014 15:24:56),"1",TRUE
"273","A3H8M155NBFE1L","Jan 18 2014","15:24:56",13,4,"Switch",0,"Novel62",0,"Novel121",3,1010,"eyesleftarrow","4","3",NA,1,(Jan 18 2014 15:24:56),"0",TRUE
"274","A3H8M155NBFE1L","Jan 18 2014","15:24:56",14,5,"Same",0,"Novel21",1,"Novel21",1,804,"eyesdownleftarrow","4","3",NA,1,(Jan 18 2014 15:24:56),"1",TRUE
"275","A3H8M155NBFE1L","Jan 18 2014","15:24:56",15,6,"Switch",1,"Novel25",3,"Novel2",2,1157,"eyesrightarrow","4","3",NA,1,(Jan 18 2014 15:24:56),"3",TRUE
"276","A3H8M155NBFE1L","Jan 18 2014","15:24:56",16,7,"Same",1,"Novel73",2,"Novel73",2,935,"eyesdownrightarrow","4","3",NA,1,(Jan 18 2014 15:24:56),"2",TRUE
"125","A3NRI97XEKEXJH","Jan 18 2014","15:13:48",5,0,"Switch",0,"Novel105",1,"Novel127",2,1477,"eyesdownleftarrow","4","3",NA,1,(Jan 18 2014 15:13:48),"1",TRUE
"126","A3NRI97XEKEXJH","Jan 18 2014","15:13:48",6,1,"Same",0,"Novel68",2,"Novel68",2,1178,"eyesdownrightarrow","4","3",NA,1,(Jan 18 2014 15:13:48),"2",TRUE
"127","A3NRI97XEKEXJH","Jan 18 2014","15:13:48",7,2,"Switch",0,"Novel124",1,"Novel70",3,2122,"eyesdownleftarrow","4","3",NA,1,(Jan 18 2014 15:13:48),"1",TRUE
"128","A3NRI97XEKEXJH","Jan 18 2014","15:13:48",8,3,"Same",1,"Novel9",1,"Novel9",1,931,"eyesdownleftarrow","4","3",NA,1,(Jan 18 2014 15:13:48),"1",TRUE
"133","A3NRI97XEKEXJH","Jan 18 2014","15:13:48",13,4,"Switch",1,"Novel139",1,"Novel81",3,3283,"eyesdownleftarrow","4","3",NA,1,(Jan 18 2014 15:13:48),"1",TRUE
"134","A3NRI97XEKEXJH","Jan 18 2014","15:13:48",14,5,"Same",1,"Novel2",2,"Novel2",2,1291,"eyesdownrightarrow","4","3",NA,1,(Jan 18 2014 15:13:48),"2",TRUE
"135","A3NRI97XEKEXJH","Jan 18 2014","15:13:48",15,6,"Switch",1,"Novel91",3,"Novel132",2,1251,"eyesrightarrow","4","3",NA,1,(Jan 18 2014 15:13:48),"3",TRUE
"136","A3NRI97XEKEXJH","Jan 18 2014","15:13:48",16,7,"Same",0,"Novel136",3,"Novel136",3,839,"eyesrightarrow","4","3",NA,1,(Jan 18 2014 15:13:48),"3",TRUE
"205","A9I65QLIO7LS7","Jan 18 2014","15:22:10",5,0,"Same",1,"Novel24",0,"Novel24",0,3866,"eyesleftarrow","4","3",NA,1,(Jan 18 2014 15:22:10),"0",TRUE
"206","A9I65QLIO7LS7","Jan 18 2014","15:22:10",6,1,"Switch",1,"Novel95",1,"Novel48",2,1572,"eyesdownleftarrow","4","3",NA,1,(Jan 18 2014 15:22:10),"1",TRUE
"207","A9I65QLIO7LS7","Jan 18 2014","15:22:10",7,2,"Same",0,"Novel66",3,"Novel66",3,1008,"eyesdownleftarrow","4","3",NA,1,(Jan 18 2014 15:22:10),"1",FALSE
"208","A9I65QLIO7LS7","Jan 18 2014","15:22:10",8,3,"Switch",0,"Novel29",2,"Novel138",3,928,"eyesdownrightarrow","4","3",NA,1,(Jan 18 2014 15:22:10),"2",TRUE
"213","A9I65QLIO7LS7","Jan 18 2014","15:22:10",13,4,"Same",1,"Novel125",2,"Novel125",2,369,"eyesrightarrow","4","3",NA,1,(Jan 18 2014 15:22:10),"3",FALSE
"214","A9I65QLIO7LS7","Jan 18 2014","15:22:10",14,5,"Switch",0,"Novel13",0,"Novel99",1,388,"eyesdownrightarrow","4","3",NA,1,(Jan 18 2014 15:22:10),"2",FALSE
"215","A9I65QLIO7LS7","Jan 18 2014","15:22:10",15,6,"Same",0,"Novel46",0,"Novel46",0,465,"eyesdownrightarrow","4","3",NA,1,(Jan 18 2014 15:22:10),"2",FALSE
"216","A9I65QLIO7LS7","Jan 18 2014","15:22:10",16,7,"Switch",1,"Novel97",3,"Novel34",0,39,"eyesrightarrow","4","3",NA,1,(Jan 18 2014 15:22:10),"3",TRUE
"485","ANYGVVKZ1MJRP","Jan 18 2014","15:33:46",5,0,"Switch",0,"Novel112",1,"Novel93",2,5771,"eyesdownleftarrow","4","3",NA,1,(Jan 18 2014 15:33:46),"1",TRUE
"486","ANYGVVKZ1MJRP","Jan 18 2014","15:33:46",6,1,"Same",1,"Novel2",0,"Novel2",0,2670,"eyesleftarrow","4","3",NA,1,(Jan 18 2014 15:33:46),"0",TRUE
"487","ANYGVVKZ1MJRP","Jan 18 2014","15:33:46",7,2,"Switch",1,"Novel75",2,"Novel40",1,2058,"eyesdownrightarrow","4","3",NA,1,(Jan 18 2014 15:33:46),"2",TRUE
"488","ANYGVVKZ1MJRP","Jan 18 2014","15:33:46",8,3,"Same",0,"Novel43",3,"Novel43",3,2518,"eyesrightarrow","4","3",NA,1,(Jan 18 2014 15:33:46),"3",TRUE
"493","ANYGVVKZ1MJRP","Jan 18 2014","15:33:46",13,4,"Switch",0,"Novel121",1,"Novel92",0,2334,"eyesdownleftarrow","4","3",NA,1,(Jan 18 2014 15:33:46),"1",TRUE
"494","ANYGVVKZ1MJRP","Jan 18 2014","15:33:46",14,5,"Same",0,"Novel97",0,"Novel97",0,1603,"eyesleftarrow","4","3",NA,1,(Jan 18 2014 15:33:46),"0",TRUE
"495","ANYGVVKZ1MJRP","Jan 18 2014","15:33:46",15,6,"Switch",1,"Novel91",0,"Novel42",1,1558,"eyesleftarrow","4","3",NA,1,(Jan 18 2014 15:33:46),"0",TRUE
"496","ANYGVVKZ1MJRP","Jan 18 2014","15:33:46",16,7,"Same",1,"Novel103",2,"Novel103",2,2460,"eyesdownrightarrow","4","3",NA,1,(Jan 18 2014 15:33:46),"2",TRUE
"545","AO4241SMFJ95K","Jan 18 2014","15:38:24",5,0,"Switch",0,"Novel130",3,"Novel70",2,13565,"eyesrightarrow","4","3",NA,1,(Jan 18 2014 15:38:24),"3",TRUE
"546","AO4241SMFJ95K","Jan 18 2014","15:38:24",6,1,"Same",0,"Novel10",0,"Novel10",0,4827,"eyesleftarrow","4","3",NA,1,(Jan 18 2014 15:38:24),"0",TRUE
"547","AO4241SMFJ95K","Jan 18 2014","15:38:24",7,2,"Switch",1,"Novel128",1,"Novel47",2,7954,"eyesdownleftarrow","4","3",NA,1,(Jan 18 2014 15:38:24),"1",TRUE
"548","AO4241SMFJ95K","Jan 18 2014","15:38:24",8,3,"Same",1,"Novel69",2,"Novel69",2,3006,"eyesdownrightarrow","4","3",NA,1,(Jan 18 2014 15:38:24),"2",TRUE
"553","AO4241SMFJ95K","Jan 18 2014","15:38:24",13,4,"Switch",0,"Novel62",2,"Novel55",0,2188,"eyesdownrightarrow","4","3",NA,1,(Jan 18 2014 15:38:24),"2",TRUE
"554","AO4241SMFJ95K","Jan 18 2014","15:38:24",14,5,"Same",1,"Novel122",3,"Novel122",3,1410,"eyesrightarrow","4","3",NA,1,(Jan 18 2014 15:38:24),"3",TRUE
"555","AO4241SMFJ95K","Jan 18 2014","15:38:24",15,6,"Switch",1,"Novel97",3,"Novel73",2,1066,"eyesrightarrow","4","3",NA,1,(Jan 18 2014 15:38:24),"3",TRUE
"556","AO4241SMFJ95K","Jan 18 2014","15:38:24",16,7,"Same",0,"Novel25",1,"Novel25",1,1891,"eyesdownleftarrow","4","3",NA,1,(Jan 18 2014 15:38:24),"1",TRUE
"525","AP8QHC5BS3I6Z","Jan 18 2014","15:34:22",5,0,"Same",0,"Novel28",1,"Novel28",1,7818,"eyesdownrightarrow","4","3",NA,1,(Jan 18 2014 15:34:22),"2",FALSE
"526","AP8QHC5BS3I6Z","Jan 18 2014","15:34:22",6,1,"Switch",1,"Novel37",1,"Novel128",3,4478,"eyesdownrightarrow","4","3",NA,1,(Jan 18 2014 15:34:22),"2",FALSE
"527","AP8QHC5BS3I6Z","Jan 18 2014","15:34:22",7,2,"Same",1,"Novel95",3,"Novel95",3,2637,"eyesdownrightarrow","4","3",NA,1,(Jan 18 2014 15:34:22),"2",FALSE
"528","AP8QHC5BS3I6Z","Jan 18 2014","15:34:22",8,3,"Switch",1,"Novel41",3,"Novel68",2,3353,"eyesdownrightarrow","4","3",NA,1,(Jan 18 2014 15:34:22),"2",FALSE
"533","AP8QHC5BS3I6Z","Jan 18 2014","15:34:22",13,4,"Same",1,"Novel24",2,"Novel24",2,1774,"eyesdownrightarrow","4","3",NA,1,(Jan 18 2014 15:34:22),"2",TRUE
"534","AP8QHC5BS3I6Z","Jan 18 2014","15:34:22",14,5,"Switch",0,"Novel63",1,"Novel112",3,2088,"eyesdownleftarrow","4","3",NA,1,(Jan 18 2014 15:34:22),"1",TRUE
"535","AP8QHC5BS3I6Z","Jan 18 2014","15:34:22",15,6,"Same",0,"Novel52",0,"Novel52",0,1525,"eyesleftarrow","4","3",NA,1,(Jan 18 2014 15:34:22),"0",TRUE
"536","AP8QHC5BS3I6Z","Jan 18 2014","15:34:22",16,7,"Switch",0,"Novel116",0,"Novel58",3,1264,"eyesleftarrow","4","3",NA,1,(Jan 18 2014 15:34:22),"0",TRUE
"165","AQZDMXV5KGAYD","Jan 18 2014","15:17:09",5,0,"Same",1,"Novel6",2,"Novel6",2,3246,"eyesdownleftarrow","4","3",NA,1,(Jan 18 2014 15:17:09),"1",FALSE
"166","AQZDMXV5KGAYD","Jan 18 2014","15:17:09",6,1,"Switch",0,"Novel10",3,"Novel97",2,3466,"eyesrightarrow","4","3",NA,1,(Jan 18 2014 15:17:09),"3",TRUE
"167","AQZDMXV5KGAYD","Jan 18 2014","15:17:09",7,2,"Same",1,"Novel30",0,"Novel30",0,1629,"eyesleftarrow","4","3",NA,1,(Jan 18 2014 15:17:09),"0",TRUE
"168","AQZDMXV5KGAYD","Jan 18 2014","15:17:09",8,3,"Switch",0,"Novel127",2,"Novel2",1,1099,"eyesdownrightarrow","4","3",NA,1,(Jan 18 2014 15:17:09),"2",TRUE
"173","AQZDMXV5KGAYD","Jan 18 2014","15:17:09",13,4,"Same",0,"Novel117",0,"Novel117",0,1388,"eyesleftarrow","4","3",NA,1,(Jan 18 2014 15:17:09),"0",TRUE
"174","AQZDMXV5KGAYD","Jan 18 2014","15:17:09",14,5,"Switch",1,"Novel25",2,"Novel16",0,1115,"eyesdownrightarrow","4","3",NA,1,(Jan 18 2014 15:17:09),"2",TRUE
"175","AQZDMXV5KGAYD","Jan 18 2014","15:17:09",15,6,"Same",0,"Novel40",1,"Novel40",1,1164,"eyesdownleftarrow","4","3",NA,1,(Jan 18 2014 15:17:09),"1",TRUE
"176","AQZDMXV5KGAYD","Jan 18 2014","15:17:09",16,7,"Switch",1,"Novel138",3,"Novel58",2,1061,"eyesrightarrow","4","3",NA,1,(Jan 18 2014 15:17:09),"3",TRUE
"65","AST33WVZ5QC05","Jan 18 2014","15:13:18",5,0,"Same",1,"Novel55",3,"Novel55",3,3603,"eyesrightarrow","4","3",NA,1,(Jan 18 2014 15:13:18),"3",TRUE
"66","AST33WVZ5QC05","Jan 18 2014","15:13:18",6,1,"Switch",0,"Novel59",2,"Novel32",1,1884,"eyesdownrightarrow","4","3",NA,1,(Jan 18 2014 15:13:18),"2",TRUE
"67","AST33WVZ5QC05","Jan 18 2014","15:13:18",7,2,"Same",1,"Novel73",1,"Novel73",1,1353,"eyesdownleftarrow","4","3",NA,1,(Jan 18 2014 15:13:18),"1",TRUE
"68","AST33WVZ5QC05","Jan 18 2014","15:13:18",8,3,"Switch",1,"Novel121",2,"Novel27",3,1506,"eyesdownrightarrow","4","3",NA,1,(Jan 18 2014 15:13:18),"2",TRUE
"73","AST33WVZ5QC05","Jan 18 2014","15:13:18",13,4,"Same",0,"Novel100",1,"Novel100",1,1954,"eyesdownleftarrow","4","3",NA,1,(Jan 18 2014 15:13:18),"1",TRUE
"74","AST33WVZ5QC05","Jan 18 2014","15:13:18",14,5,"Switch",0,"Novel108",3,"Novel114",1,1719,"eyesrightarrow","4","3",NA,1,(Jan 18 2014 15:13:18),"3",TRUE
"75","AST33WVZ5QC05","Jan 18 2014","15:13:18",15,6,"Same",0,"Novel28",2,"Novel28",2,1419,"eyesdownrightarrow","4","3",NA,1,(Jan 18 2014 15:13:18),"2",TRUE
"76","AST33WVZ5QC05","Jan 18 2014","15:13:18",16,7,"Switch",1,"Novel138",0,"Novel119",3,1285,"eyesleftarrow","4","3",NA,1,(Jan 18 2014 15:13:18),"0",TRUE
