"","subid","submit.date","submit.time","trial.num","itemNum","trialType","samePos","chosen","chosenIdx","kept","keptIdx","rt","face","numPic","interval","test","exposure","day.and.time"
"305","A1421I54656YSD","Dec 03 2013","09:36:58",5,0,"Switch",0,"Novel50",1,"Novel78",3,4183,"eyesdownright","4","0",0,1,(Dec 03 2013 09:36:58)
"307","A1421I54656YSD","Dec 03 2013","09:36:58",7,1,"Same",0,"Novel127",3,"Novel127",3,3406,"eyesleft","4","0",0,1,(Dec 03 2013 09:36:58)
"309","A1421I54656YSD","Dec 03 2013","09:36:58",9,2,"Switch",0,"Novel90",3,"Novel94",0,2282,"eyesleft","4","0",0,1,(Dec 03 2013 09:36:58)
"311","A1421I54656YSD","Dec 03 2013","09:36:58",11,3,"Same",1,"Novel1",2,"Novel1",2,3235,"eyesdownright","4","0",0,1,(Dec 03 2013 09:36:58)
"313","A1421I54656YSD","Dec 03 2013","09:36:58",13,4,"Switch",1,"Novel95",1,"Novel113",3,1344,"eyesright","4","0",0,1,(Dec 03 2013 09:36:58)
"315","A1421I54656YSD","Dec 03 2013","09:36:58",15,5,"Same",1,"Novel8",3,"Novel8",3,1781,"eyesdownleft","4","0",0,1,(Dec 03 2013 09:36:58)
"317","A1421I54656YSD","Dec 03 2013","09:36:58",17,6,"Switch",1,"Novel88",1,"Novel129",3,1204,"eyesdownright","4","0",0,1,(Dec 03 2013 09:36:58)
"319","A1421I54656YSD","Dec 03 2013","09:36:58",19,7,"Same",0,"Novel138",1,"Novel138",1,1750,"eyesleft","4","0",0,1,(Dec 03 2013 09:36:58)
"325","A16PU53B41CJ22","Dec 03 2013","09:37:09",5,0,"Same",1,"Novel67",3,"Novel67",3,2761,"eyesdownright","4","0",0,1,(Dec 03 2013 09:37:09)
"327","A16PU53B41CJ22","Dec 03 2013","09:37:09",7,1,"Switch",1,"Novel113",2,"Novel135",3,2278,"eyesdownright","4","0",0,1,(Dec 03 2013 09:37:09)
"329","A16PU53B41CJ22","Dec 03 2013","09:37:09",9,2,"Same",1,"Novel89",0,"Novel89",0,2106,"eyesdownleft","4","0",0,1,(Dec 03 2013 09:37:09)
"331","A16PU53B41CJ22","Dec 03 2013","09:37:09",11,3,"Switch",1,"Novel92",3,"Novel62",2,1263,"eyesdownright","4","0",0,1,(Dec 03 2013 09:37:09)
"333","A16PU53B41CJ22","Dec 03 2013","09:37:09",13,4,"Same",0,"Novel63",0,"Novel63",0,1903,"eyesdownleft","4","0",0,1,(Dec 03 2013 09:37:09)
"335","A16PU53B41CJ22","Dec 03 2013","09:37:09",15,5,"Switch",0,"Novel44",0,"Novel47",2,1186,"eyesdownleft","4","0",0,1,(Dec 03 2013 09:37:09)
"337","A16PU53B41CJ22","Dec 03 2013","09:37:09",17,6,"Same",0,"Novel93",0,"Novel93",0,1810,"eyesdownleft","4","0",0,1,(Dec 03 2013 09:37:09)
"339","A16PU53B41CJ22","Dec 03 2013","09:37:09",19,7,"Switch",0,"Novel116",0,"Novel57",2,1186,"eyesdownleft","4","0",0,1,(Dec 03 2013 09:37:09)
"225","A18T7E73TNGOKP","Dec 03 2013","09:34:59",5,0,"Same",0,"Novel100",3,"Novel100",3,2075,"eyesright","4","0",0,1,(Dec 03 2013 09:34:59)
"227","A18T7E73TNGOKP","Dec 03 2013","09:34:59",7,1,"Switch",1,"Novel43",1,"Novel73",3,2012,"eyesright","4","0",0,1,(Dec 03 2013 09:34:59)
"229","A18T7E73TNGOKP","Dec 03 2013","09:34:59",9,2,"Same",0,"Novel40",0,"Novel40",0,1450,"eyesleft","4","0",0,1,(Dec 03 2013 09:34:59)
"231","A18T7E73TNGOKP","Dec 03 2013","09:34:59",11,3,"Switch",0,"Novel62",3,"Novel13",2,1513,"eyesleft","4","0",0,1,(Dec 03 2013 09:34:59)
"233","A18T7E73TNGOKP","Dec 03 2013","09:34:59",13,4,"Same",1,"Novel42",1,"Novel42",1,1045,"eyesdownleft","4","0",0,1,(Dec 03 2013 09:34:59)
"235","A18T7E73TNGOKP","Dec 03 2013","09:34:59",15,5,"Switch",1,"Novel65",2,"Novel117",0,1311,"eyesdownleft","4","0",0,1,(Dec 03 2013 09:34:59)
"237","A18T7E73TNGOKP","Dec 03 2013","09:34:59",17,6,"Same",1,"Novel25",3,"Novel25",3,905,"eyesdownleft","4","0",0,1,(Dec 03 2013 09:34:59)
"239","A18T7E73TNGOKP","Dec 03 2013","09:34:59",19,7,"Switch",0,"Novel107",2,"Novel114",0,1155,"eyesright","4","0",0,1,(Dec 03 2013 09:34:59)
"585","A1FDAQBV8RBA5K","Dec 03 2013","09:43:28",5,0,"Same",0,"Novel108",1,"Novel108",1,2294,"eyesdownleft","4","0",0,1,(Dec 03 2013 09:43:28)
"587","A1FDAQBV8RBA5K","Dec 03 2013","09:43:28",7,1,"Switch",1,"Novel53",1,"Novel127",3,1373,"eyesright","4","0",0,1,(Dec 03 2013 09:43:28)
"589","A1FDAQBV8RBA5K","Dec 03 2013","09:43:28",9,2,"Same",0,"Novel37",2,"Novel37",2,2481,"eyesdownleft","4","0",0,1,(Dec 03 2013 09:43:28)
"591","A1FDAQBV8RBA5K","Dec 03 2013","09:43:28",11,3,"Switch",0,"Novel114",2,"Novel8",1,2496,"eyesright","4","0",0,1,(Dec 03 2013 09:43:28)
"593","A1FDAQBV8RBA5K","Dec 03 2013","09:43:28",13,4,"Same",1,"Novel95",0,"Novel95",0,1685,"eyesdownright","4","0",0,1,(Dec 03 2013 09:43:28)
"595","A1FDAQBV8RBA5K","Dec 03 2013","09:43:28",15,5,"Switch",0,"Novel124",3,"Novel62",1,3149,"eyesdownleft","4","0",0,1,(Dec 03 2013 09:43:28)
"597","A1FDAQBV8RBA5K","Dec 03 2013","09:43:28",17,6,"Same",1,"Novel97",1,"Novel97",1,2636,"eyesright","4","0",0,1,(Dec 03 2013 09:43:28)
"599","A1FDAQBV8RBA5K","Dec 03 2013","09:43:28",19,7,"Switch",1,"Novel138",0,"Novel112",1,2918,"eyesright","4","0",0,1,(Dec 03 2013 09:43:28)
"465","A1KQGF9L042R9I","Dec 03 2013","09:38:35",5,0,"Same",1,"Novel72",1,"Novel72",1,1619,"eyesdownleft","4","0",0,1,(Dec 03 2013 09:38:35)
"467","A1KQGF9L042R9I","Dec 03 2013","09:38:35",7,1,"Switch",1,"Novel87",1,"Novel79",0,2196,"eyesleft","4","0",0,1,(Dec 03 2013 09:38:35)
"469","A1KQGF9L042R9I","Dec 03 2013","09:38:35",9,2,"Same",0,"Novel10",0,"Novel10",0,2663,"eyesdownleft","4","0",0,1,(Dec 03 2013 09:38:35)
"471","A1KQGF9L042R9I","Dec 03 2013","09:38:35",11,3,"Switch",1,"Novel76",3,"Novel6",2,3045,"eyesright","4","0",0,1,(Dec 03 2013 09:38:35)
"473","A1KQGF9L042R9I","Dec 03 2013","09:38:35",13,4,"Same",1,"Novel97",2,"Novel97",2,1762,"eyesright","4","0",0,1,(Dec 03 2013 09:38:35)
"475","A1KQGF9L042R9I","Dec 03 2013","09:38:35",15,5,"Switch",0,"Novel136",0,"Novel59",2,2299,"eyesleft","4","0",0,1,(Dec 03 2013 09:38:35)
"477","A1KQGF9L042R9I","Dec 03 2013","09:38:35",17,6,"Same",0,"Novel73",0,"Novel73",0,3014,"eyesdownright","4","0",0,1,(Dec 03 2013 09:38:35)
"479","A1KQGF9L042R9I","Dec 03 2013","09:38:35",19,7,"Switch",0,"Novel36",3,"Novel42",0,2653,"eyesdownright","4","0",0,1,(Dec 03 2013 09:38:35)
"105","A1NRSTQ6HURYZC","Dec 03 2013","09:33:04",5,0,"Same",0,"Novel100",3,"Novel100",3,2530,"eyesdownleft","4","0",0,1,(Dec 03 2013 09:33:04)
"107","A1NRSTQ6HURYZC","Dec 03 2013","09:33:04",7,1,"Switch",1,"Novel86",0,"Novel94",1,2682,"eyesdownright","4","0",0,1,(Dec 03 2013 09:33:04)
"109","A1NRSTQ6HURYZC","Dec 03 2013","09:33:04",9,2,"Same",0,"Novel44",2,"Novel44",2,2132,"eyesdownleft","4","0",0,1,(Dec 03 2013 09:33:04)
"111","A1NRSTQ6HURYZC","Dec 03 2013","09:33:04",11,3,"Switch",0,"Novel76",0,"Novel109",3,2400,"eyesdownright","4","0",0,1,(Dec 03 2013 09:33:04)
"113","A1NRSTQ6HURYZC","Dec 03 2013","09:33:04",13,4,"Same",1,"Novel138",3,"Novel138",3,2816,"eyesdownleft","4","0",0,1,(Dec 03 2013 09:33:04)
"115","A1NRSTQ6HURYZC","Dec 03 2013","09:33:04",15,5,"Switch",1,"Novel68",0,"Novel119",3,2635,"eyesright","4","0",0,1,(Dec 03 2013 09:33:04)
"117","A1NRSTQ6HURYZC","Dec 03 2013","09:33:04",17,6,"Same",1,"Novel24",2,"Novel24",2,1979,"eyesleft","4","0",0,1,(Dec 03 2013 09:33:04)
"119","A1NRSTQ6HURYZC","Dec 03 2013","09:33:04",19,7,"Switch",0,"Novel78",3,"Novel39",1,1520,"eyesright","4","0",0,1,(Dec 03 2013 09:33:04)
"285","A26JIHKBORI9X","Dec 03 2013","09:36:54",5,0,"Same",0,"Novel118",1,"Novel118",1,2418,"eyesdownleft","4","0",0,1,(Dec 03 2013 09:36:54)
"287","A26JIHKBORI9X","Dec 03 2013","09:36:54",7,1,"Switch",0,"Novel71",2,"Novel62",3,1903,"eyesdownleft","4","0",0,1,(Dec 03 2013 09:36:54)
"289","A26JIHKBORI9X","Dec 03 2013","09:36:54",9,2,"Same",0,"Novel3",3,"Novel3",3,2371,"eyesdownright","4","0",0,1,(Dec 03 2013 09:36:54)
"291","A26JIHKBORI9X","Dec 03 2013","09:36:54",11,3,"Switch",1,"Novel76",0,"Novel63",3,2547,"eyesright","4","0",0,1,(Dec 03 2013 09:36:54)
"293","A26JIHKBORI9X","Dec 03 2013","09:36:54",13,4,"Same",1,"Novel80",3,"Novel80",3,1436,"eyesdownright","4","0",0,1,(Dec 03 2013 09:36:54)
"295","A26JIHKBORI9X","Dec 03 2013","09:36:54",15,5,"Switch",1,"Novel54",0,"Novel129",3,2902,"eyesright","4","0",0,1,(Dec 03 2013 09:36:54)
"297","A26JIHKBORI9X","Dec 03 2013","09:36:54",17,6,"Same",1,"Novel2",0,"Novel2",0,2480,"eyesdownright","4","0",0,1,(Dec 03 2013 09:36:54)
"299","A26JIHKBORI9X","Dec 03 2013","09:36:54",19,7,"Switch",0,"Novel49",3,"Novel47",0,2918,"eyesright","4","0",0,1,(Dec 03 2013 09:36:54)
"485","A278FBYZ0NHZYN","Dec 03 2013","09:39:10",5,0,"Switch",1,"Novel43",2,"Novel84",0,2896,"eyesdownleft","4","0",0,1,(Dec 03 2013 09:39:10)
"487","A278FBYZ0NHZYN","Dec 03 2013","09:39:10",7,1,"Same",1,"Novel11",0,"Novel11",0,4116,"eyesleft","4","0",0,1,(Dec 03 2013 09:39:10)
"489","A278FBYZ0NHZYN","Dec 03 2013","09:39:10",9,2,"Switch",0,"Novel128",3,"Novel122",1,3983,"eyesright","4","0",0,1,(Dec 03 2013 09:39:10)
"491","A278FBYZ0NHZYN","Dec 03 2013","09:39:10",11,3,"Same",1,"Novel25",0,"Novel25",0,3242,"eyesleft","4","0",0,1,(Dec 03 2013 09:39:10)
"493","A278FBYZ0NHZYN","Dec 03 2013","09:39:10",13,4,"Switch",1,"Novel136",2,"Novel27",0,2661,"eyesright","4","0",0,1,(Dec 03 2013 09:39:10)
"495","A278FBYZ0NHZYN","Dec 03 2013","09:39:10",15,5,"Same",0,"Novel34",2,"Novel34",2,2522,"eyesdownright","4","0",0,1,(Dec 03 2013 09:39:10)
"497","A278FBYZ0NHZYN","Dec 03 2013","09:39:10",17,6,"Switch",0,"Novel33",0,"Novel89",1,4553,"eyesright","4","0",0,1,(Dec 03 2013 09:39:10)
"499","A278FBYZ0NHZYN","Dec 03 2013","09:39:10",19,7,"Same",0,"Novel99",1,"Novel99",1,2936,"eyesright","4","0",0,1,(Dec 03 2013 09:39:10)
"425","A28XFC7F3F89W8","Dec 03 2013","09:38:09",5,0,"Same",0,"Novel113",0,"Novel113",0,4992,"eyesleft","4","0",0,1,(Dec 03 2013 09:38:09)
"427","A28XFC7F3F89W8","Dec 03 2013","09:38:09",7,1,"Switch",0,"Novel69",3,"Novel18",2,3136,"eyesright","4","0",0,1,(Dec 03 2013 09:38:09)
"429","A28XFC7F3F89W8","Dec 03 2013","09:38:09",9,2,"Same",1,"Novel139",0,"Novel139",0,2730,"eyesdownleft","4","0",0,1,(Dec 03 2013 09:38:09)
"431","A28XFC7F3F89W8","Dec 03 2013","09:38:09",11,3,"Switch",1,"Novel66",3,"Novel39",2,1888,"eyesright","4","0",0,1,(Dec 03 2013 09:38:09)
"433","A28XFC7F3F89W8","Dec 03 2013","09:38:09",13,4,"Same",0,"Novel32",3,"Novel32",3,2028,"eyesright","4","0",0,1,(Dec 03 2013 09:38:09)
"435","A28XFC7F3F89W8","Dec 03 2013","09:38:09",15,5,"Switch",1,"Novel31",3,"Novel10",1,1451,"eyesright","4","0",0,1,(Dec 03 2013 09:38:09)
"437","A28XFC7F3F89W8","Dec 03 2013","09:38:09",17,6,"Same",1,"Novel115",3,"Novel115",3,1388,"eyesdownright","4","0",0,1,(Dec 03 2013 09:38:09)
"439","A28XFC7F3F89W8","Dec 03 2013","09:38:09",19,7,"Switch",0,"Novel49",3,"Novel138",2,1170,"eyesdownright","4","0",0,1,(Dec 03 2013 09:38:09)
"525","A2GXE6MIDN8DPR","Dec 03 2013","09:39:48",5,0,"Switch",1,"Novel90",2,"Novel33",3,6302,"eyesdownright","4","0",0,1,(Dec 03 2013 09:39:48)
"527","A2GXE6MIDN8DPR","Dec 03 2013","09:39:48",7,1,"Same",1,"Novel40",1,"Novel40",1,7644,"eyesdownright","4","0",0,1,(Dec 03 2013 09:39:48)
"529","A2GXE6MIDN8DPR","Dec 03 2013","09:39:48",9,2,"Switch",0,"Novel31",1,"Novel107",3,7644,"eyesdownleft","4","0",0,1,(Dec 03 2013 09:39:48)
"531","A2GXE6MIDN8DPR","Dec 03 2013","09:39:48",11,3,"Same",0,"Novel80",0,"Novel80",0,6989,"eyesdownright","4","0",0,1,(Dec 03 2013 09:39:48)
"533","A2GXE6MIDN8DPR","Dec 03 2013","09:39:48",13,4,"Switch",0,"Novel34",3,"Novel99",2,4431,"eyesdownright","4","0",0,1,(Dec 03 2013 09:39:48)
"535","A2GXE6MIDN8DPR","Dec 03 2013","09:39:48",15,5,"Same",0,"Novel138",0,"Novel138",0,8466,"eyesright","4","0",0,1,(Dec 03 2013 09:39:48)
"537","A2GXE6MIDN8DPR","Dec 03 2013","09:39:48",17,6,"Switch",1,"Novel121",0,"Novel39",3,9719,"eyesdownleft","4","0",0,1,(Dec 03 2013 09:39:48)
"539","A2GXE6MIDN8DPR","Dec 03 2013","09:39:48",19,7,"Same",1,"Novel108",3,"Novel108",3,7192,"eyesright","4","0",0,1,(Dec 03 2013 09:39:48)
"5","A2NHC0F1J1XYFX","Dec 03 2013","09:31:46",5,0,"Switch",0,"Novel9",0,"Novel16",1,2975,"eyesright","4","0",0,1,(Dec 03 2013 09:31:46)
"7","A2NHC0F1J1XYFX","Dec 03 2013","09:31:46",7,1,"Same",0,"Novel127",2,"Novel127",2,8416,"eyesdownleft","4","0",0,1,(Dec 03 2013 09:31:46)
"9","A2NHC0F1J1XYFX","Dec 03 2013","09:31:46",9,2,"Switch",0,"Novel78",2,"Novel117",3,2249,"eyesright","4","0",0,1,(Dec 03 2013 09:31:46)
"11","A2NHC0F1J1XYFX","Dec 03 2013","09:31:46",11,3,"Same",1,"Novel129",3,"Novel129",3,2064,"eyesright","4","0",0,1,(Dec 03 2013 09:31:46)
"13","A2NHC0F1J1XYFX","Dec 03 2013","09:31:46",13,4,"Switch",1,"Novel97",1,"Novel32",0,1636,"eyesleft","4","0",0,1,(Dec 03 2013 09:31:46)
"15","A2NHC0F1J1XYFX","Dec 03 2013","09:31:46",15,5,"Same",1,"Novel11",0,"Novel11",0,4539,"eyesdownleft","4","0",0,1,(Dec 03 2013 09:31:46)
"17","A2NHC0F1J1XYFX","Dec 03 2013","09:31:46",17,6,"Switch",1,"Novel124",3,"Novel34",1,1217,"eyesdownleft","4","0",0,1,(Dec 03 2013 09:31:46)
"19","A2NHC0F1J1XYFX","Dec 03 2013","09:31:46",19,7,"Same",0,"Novel74",2,"Novel74",2,2333,"eyesdownright","4","0",0,1,(Dec 03 2013 09:31:46)
"565","A2NIXIX2LIA624","Dec 03 2013","09:41:16",5,0,"Same",0,"Novel15",3,"Novel15",3,2777,"eyesdownleft","4","0",0,1,(Dec 03 2013 09:41:16)
"567","A2NIXIX2LIA624","Dec 03 2013","09:41:16",7,1,"Switch",0,"Novel33",3,"Novel75",2,1404,"eyesdownright","4","0",0,1,(Dec 03 2013 09:41:16)
"569","A2NIXIX2LIA624","Dec 03 2013","09:41:16",9,2,"Same",0,"Novel136",2,"Novel136",2,1404,"eyesright","4","0",0,1,(Dec 03 2013 09:41:16)
"571","A2NIXIX2LIA624","Dec 03 2013","09:41:16",11,3,"Switch",1,"Novel87",2,"Novel80",0,1716,"eyesleft","4","0",0,1,(Dec 03 2013 09:41:16)
"573","A2NIXIX2LIA624","Dec 03 2013","09:41:16",13,4,"Same",1,"Novel40",3,"Novel40",3,1809,"eyesdownright","4","0",0,1,(Dec 03 2013 09:41:16)
"575","A2NIXIX2LIA624","Dec 03 2013","09:41:16",15,5,"Switch",1,"Novel104",1,"Novel115",3,2574,"eyesright","4","0",0,1,(Dec 03 2013 09:41:16)
"577","A2NIXIX2LIA624","Dec 03 2013","09:41:16",17,6,"Same",1,"Novel106",0,"Novel106",0,1919,"eyesdownright","4","0",0,1,(Dec 03 2013 09:41:16)
"579","A2NIXIX2LIA624","Dec 03 2013","09:41:16",19,7,"Switch",0,"Novel98",3,"Novel3",1,1591,"eyesright","4","0",0,1,(Dec 03 2013 09:41:16)
"385","A2RCVGSZVKB036","Dec 03 2013","09:37:52",5,0,"Switch",0,"Novel103",1,"Novel88",0,2891,"eyesleft","4","0",0,1,(Dec 03 2013 09:37:52)
"387","A2RCVGSZVKB036","Dec 03 2013","09:37:52",7,1,"Same",0,"Novel135",0,"Novel135",0,3827,"eyesleft","4","0",0,1,(Dec 03 2013 09:37:52)
"389","A2RCVGSZVKB036","Dec 03 2013","09:37:52",9,2,"Switch",1,"Novel24",3,"Novel123",2,4338,"eyesdownleft","4","0",0,1,(Dec 03 2013 09:37:52)
"391","A2RCVGSZVKB036","Dec 03 2013","09:37:52",11,3,"Same",0,"Novel31",3,"Novel31",3,3238,"eyesdownleft","4","0",0,1,(Dec 03 2013 09:37:52)
"393","A2RCVGSZVKB036","Dec 03 2013","09:37:52",13,4,"Switch",1,"Novel53",3,"Novel36",0,3595,"eyesdownleft","4","0",0,1,(Dec 03 2013 09:37:52)
"395","A2RCVGSZVKB036","Dec 03 2013","09:37:52",15,5,"Same",1,"Novel90",2,"Novel90",2,3601,"eyesdownright","4","0",0,1,(Dec 03 2013 09:37:52)
"397","A2RCVGSZVKB036","Dec 03 2013","09:37:52",17,6,"Switch",0,"Novel68",1,"Novel64",0,2943,"eyesright","4","0",0,1,(Dec 03 2013 09:37:52)
"399","A2RCVGSZVKB036","Dec 03 2013","09:37:52",19,7,"Same",1,"Novel4",2,"Novel4",2,1863,"eyesdownright","4","0",0,1,(Dec 03 2013 09:37:52)
"45","A31A20Z5P0UJBH","Dec 03 2013","09:32:27",5,0,"Same",1,"Novel137",0,"Novel137",0,3109,"eyesdownright","4","0",0,1,(Dec 03 2013 09:32:27)
"47","A31A20Z5P0UJBH","Dec 03 2013","09:32:27",7,1,"Switch",0,"Novel34",2,"Novel47",3,1464,"eyesleft","4","0",0,1,(Dec 03 2013 09:32:27)
"49","A31A20Z5P0UJBH","Dec 03 2013","09:32:27",9,2,"Same",1,"Novel2",1,"Novel2",1,1564,"eyesdownright","4","0",0,1,(Dec 03 2013 09:32:27)
"51","A31A20Z5P0UJBH","Dec 03 2013","09:32:27",11,3,"Switch",1,"Novel7",3,"Novel77",1,1441,"eyesdownleft","4","0",0,1,(Dec 03 2013 09:32:27)
"53","A31A20Z5P0UJBH","Dec 03 2013","09:32:27",13,4,"Same",0,"Novel66",2,"Novel66",2,1577,"eyesdownleft","4","0",0,1,(Dec 03 2013 09:32:27)
"55","A31A20Z5P0UJBH","Dec 03 2013","09:32:27",15,5,"Switch",1,"Novel87",2,"Novel138",3,1595,"eyesleft","4","0",0,1,(Dec 03 2013 09:32:27)
"57","A31A20Z5P0UJBH","Dec 03 2013","09:32:27",17,6,"Same",0,"Novel136",1,"Novel136",1,2296,"eyesdownright","4","0",0,1,(Dec 03 2013 09:32:27)
"59","A31A20Z5P0UJBH","Dec 03 2013","09:32:27",19,7,"Switch",0,"Novel31",0,"Novel30",3,1025,"eyesleft","4","0",0,1,(Dec 03 2013 09:32:27)
"445","A33SMNMTMIOJ6T","Dec 03 2013","09:38:11",5,0,"Switch",0,"Novel132",2,"Novel107",0,1577,"eyesdownleft","4","0",0,1,(Dec 03 2013 09:38:11)
"447","A33SMNMTMIOJ6T","Dec 03 2013","09:38:11",7,1,"Same",0,"Novel49",2,"Novel49",2,2315,"eyesdownright","4","0",0,1,(Dec 03 2013 09:38:11)
"449","A33SMNMTMIOJ6T","Dec 03 2013","09:38:11",9,2,"Switch",1,"Novel71",0,"Novel31",1,3213,"eyesdownleft","4","0",0,1,(Dec 03 2013 09:38:11)
"451","A33SMNMTMIOJ6T","Dec 03 2013","09:38:11",11,3,"Same",1,"Novel23",0,"Novel23",0,2179,"eyesdownleft","4","0",0,1,(Dec 03 2013 09:38:11)
"453","A33SMNMTMIOJ6T","Dec 03 2013","09:38:11",13,4,"Switch",1,"Novel120",2,"Novel26",0,1712,"eyesright","4","0",0,1,(Dec 03 2013 09:38:11)
"455","A33SMNMTMIOJ6T","Dec 03 2013","09:38:11",15,5,"Same",1,"Novel79",1,"Novel79",1,1860,"eyesdownleft","4","0",0,1,(Dec 03 2013 09:38:11)
"457","A33SMNMTMIOJ6T","Dec 03 2013","09:38:11",17,6,"Switch",0,"Novel41",3,"Novel7",1,2403,"eyesleft","4","0",0,1,(Dec 03 2013 09:38:11)
"459","A33SMNMTMIOJ6T","Dec 03 2013","09:38:11",19,7,"Same",0,"Novel87",3,"Novel87",3,2991,"eyesright","4","0",0,1,(Dec 03 2013 09:38:11)
"145","A33UPV2G0DY67H","Dec 03 2013","09:33:48",5,0,"Same",0,"Novel95",1,"Novel95",1,5101,"eyesleft","4","0",0,1,(Dec 03 2013 09:33:48)
"147","A33UPV2G0DY67H","Dec 03 2013","09:33:48",7,1,"Switch",0,"Novel31",2,"Novel39",0,4196,"eyesdownleft","4","0",0,1,(Dec 03 2013 09:33:48)
"149","A33UPV2G0DY67H","Dec 03 2013","09:33:48",9,2,"Same",0,"Novel34",3,"Novel34",3,3198,"eyesdownright","4","0",0,1,(Dec 03 2013 09:33:48)
"151","A33UPV2G0DY67H","Dec 03 2013","09:33:48",11,3,"Switch",1,"Novel11",1,"Novel99",0,2886,"eyesdownright","4","0",0,1,(Dec 03 2013 09:33:48)
"153","A33UPV2G0DY67H","Dec 03 2013","09:33:48",13,4,"Same",1,"Novel66",0,"Novel66",0,3354,"eyesdownright","4","0",0,1,(Dec 03 2013 09:33:48)
"155","A33UPV2G0DY67H","Dec 03 2013","09:33:48",15,5,"Switch",0,"Novel116",2,"Novel137",3,3088,"eyesdownright","4","0",0,1,(Dec 03 2013 09:33:48)
"157","A33UPV2G0DY67H","Dec 03 2013","09:33:48",17,6,"Same",1,"Novel50",1,"Novel50",1,1919,"eyesright","4","0",0,1,(Dec 03 2013 09:33:48)
"159","A33UPV2G0DY67H","Dec 03 2013","09:33:48",19,7,"Switch",1,"Novel33",2,"Novel37",0,2933,"eyesdownleft","4","0",0,1,(Dec 03 2013 09:33:48)
"365","A35BQPABKN4Q8C","Dec 03 2013","09:37:41",5,0,"Same",1,"Novel82",0,"Novel82",0,5600,"eyesright","4","0",0,1,(Dec 03 2013 09:37:41)
"367","A35BQPABKN4Q8C","Dec 03 2013","09:37:41",7,1,"Switch",0,"Novel112",3,"Novel70",2,4883,"eyesdownleft","4","0",0,1,(Dec 03 2013 09:37:41)
"369","A35BQPABKN4Q8C","Dec 03 2013","09:37:41",9,2,"Same",0,"Novel33",1,"Novel33",1,3058,"eyesdownleft","4","0",0,1,(Dec 03 2013 09:37:41)
"371","A35BQPABKN4Q8C","Dec 03 2013","09:37:41",11,3,"Switch",1,"Novel92",0,"Novel63",1,4462,"eyesleft","4","0",0,1,(Dec 03 2013 09:37:41)
"373","A35BQPABKN4Q8C","Dec 03 2013","09:37:41",13,4,"Same",0,"Novel97",2,"Novel97",2,5725,"eyesleft","4","0",0,1,(Dec 03 2013 09:37:41)
"375","A35BQPABKN4Q8C","Dec 03 2013","09:37:41",15,5,"Switch",0,"Novel84",3,"Novel10",0,3837,"eyesleft","4","0",0,1,(Dec 03 2013 09:37:41)
"377","A35BQPABKN4Q8C","Dec 03 2013","09:37:41",17,6,"Same",1,"Novel48",2,"Novel48",2,4649,"eyesleft","4","0",0,1,(Dec 03 2013 09:37:41)
"379","A35BQPABKN4Q8C","Dec 03 2013","09:37:41",19,7,"Switch",1,"Novel106",0,"Novel85",2,3542,"eyesleft","4","0",0,1,(Dec 03 2013 09:37:41)
"25","A38DC3BG1ZCVZ2","Dec 03 2013","09:32:15",5,0,"Same",1,"Novel86",1,"Novel86",1,4290,"eyesdownright","4","0",0,1,(Dec 03 2013 09:32:15)
"27","A38DC3BG1ZCVZ2","Dec 03 2013","09:32:15",7,1,"Switch",1,"Novel116",0,"Novel54",1,2293,"eyesdownleft","4","0",0,1,(Dec 03 2013 09:32:15)
"29","A38DC3BG1ZCVZ2","Dec 03 2013","09:32:15",9,2,"Same",1,"Novel36",3,"Novel36",3,2309,"eyesright","4","0",0,1,(Dec 03 2013 09:32:15)
"31","A38DC3BG1ZCVZ2","Dec 03 2013","09:32:15",11,3,"Switch",0,"Novel48",3,"Novel3",0,2340,"eyesright","4","0",0,1,(Dec 03 2013 09:32:15)
"33","A38DC3BG1ZCVZ2","Dec 03 2013","09:32:15",13,4,"Same",0,"Novel81",3,"Novel81",3,3510,"eyesdownleft","4","0",0,1,(Dec 03 2013 09:32:15)
"35","A38DC3BG1ZCVZ2","Dec 03 2013","09:32:15",15,5,"Switch",0,"Novel124",2,"Novel114",1,1107,"eyesleft","4","0",0,1,(Dec 03 2013 09:32:15)
"37","A38DC3BG1ZCVZ2","Dec 03 2013","09:32:15",17,6,"Same",0,"Novel41",1,"Novel41",1,1155,"eyesleft","4","0",0,1,(Dec 03 2013 09:32:15)
"39","A38DC3BG1ZCVZ2","Dec 03 2013","09:32:15",19,7,"Switch",1,"Novel82",3,"Novel13",0,1794,"eyesdownleft","4","0",0,1,(Dec 03 2013 09:32:15)
"165","A3B3AKQ9G1VX9J","Dec 03 2013","09:33:54",5,0,"Switch",0,"Novel7",1,"Novel116",0,969,"eyesdownleft","4","0",0,1,(Dec 03 2013 09:33:54)
"167","A3B3AKQ9G1VX9J","Dec 03 2013","09:33:54",7,1,"Same",0,"Novel5",1,"Novel5",1,1093,"eyesright","4","0",0,1,(Dec 03 2013 09:33:54)
"169","A3B3AKQ9G1VX9J","Dec 03 2013","09:33:54",9,2,"Switch",1,"Novel124",2,"Novel75",1,1281,"eyesleft","4","0",0,1,(Dec 03 2013 09:33:54)
"171","A3B3AKQ9G1VX9J","Dec 03 2013","09:33:54",11,3,"Same",1,"Novel29",2,"Novel29",2,1250,"eyesleft","4","0",0,1,(Dec 03 2013 09:33:54)
"173","A3B3AKQ9G1VX9J","Dec 03 2013","09:33:54",13,4,"Switch",1,"Novel72",2,"Novel129",0,703,"eyesdownleft","4","0",0,1,(Dec 03 2013 09:33:54)
"175","A3B3AKQ9G1VX9J","Dec 03 2013","09:33:54",15,5,"Same",1,"Novel136",1,"Novel136",1,1250,"eyesdownright","4","0",0,1,(Dec 03 2013 09:33:54)
"177","A3B3AKQ9G1VX9J","Dec 03 2013","09:33:54",17,6,"Switch",0,"Novel78",0,"Novel132",3,1078,"eyesdownright","4","0",0,1,(Dec 03 2013 09:33:54)
"179","A3B3AKQ9G1VX9J","Dec 03 2013","09:33:54",19,7,"Same",0,"Novel49",2,"Novel49",2,1688,"eyesdownright","4","0",0,1,(Dec 03 2013 09:33:54)
"405","A3O9VWYB0F4RJ4","Dec 03 2013","09:37:53",5,0,"Switch",1,"Novel41",1,"Novel92",2,4384,"eyesright","4","0",0,1,(Dec 03 2013 09:37:53)
"407","A3O9VWYB0F4RJ4","Dec 03 2013","09:37:53",7,1,"Same",0,"Novel6",2,"Novel6",2,5320,"eyesleft","4","0",0,1,(Dec 03 2013 09:37:53)
"409","A3O9VWYB0F4RJ4","Dec 03 2013","09:37:53",9,2,"Switch",0,"Novel7",3,"Novel117",0,3713,"eyesright","4","0",0,1,(Dec 03 2013 09:37:53)
"411","A3O9VWYB0F4RJ4","Dec 03 2013","09:37:53",11,3,"Same",0,"Novel67",1,"Novel67",1,3432,"eyesright","4","0",0,1,(Dec 03 2013 09:37:53)
"413","A3O9VWYB0F4RJ4","Dec 03 2013","09:37:53",13,4,"Switch",0,"Novel44",2,"Novel74",1,2558,"eyesright","4","0",0,1,(Dec 03 2013 09:37:53)
"415","A3O9VWYB0F4RJ4","Dec 03 2013","09:37:53",15,5,"Same",1,"Novel136",0,"Novel136",0,1779,"eyesdownleft","4","0",0,1,(Dec 03 2013 09:37:53)
"417","A3O9VWYB0F4RJ4","Dec 03 2013","09:37:53",17,6,"Switch",1,"Novel2",1,"Novel56",0,3853,"eyesdownleft","4","0",0,1,(Dec 03 2013 09:37:53)
"419","A3O9VWYB0F4RJ4","Dec 03 2013","09:37:53",19,7,"Same",1,"Novel10",2,"Novel10",2,2886,"eyesdownleft","4","0",0,1,(Dec 03 2013 09:37:53)
"85","A3ORE2BNURPVNI","Dec 03 2013","09:33:00",5,0,"Same",0,"Novel91",2,"Novel91",2,2825,"eyesleft","4","0",0,1,(Dec 03 2013 09:33:00)
"87","A3ORE2BNURPVNI","Dec 03 2013","09:33:00",7,1,"Switch",1,"Novel129",2,"Novel22",0,2776,"eyesright","4","0",0,1,(Dec 03 2013 09:33:00)
"89","A3ORE2BNURPVNI","Dec 03 2013","09:33:00",9,2,"Same",0,"Novel60",3,"Novel60",3,2884,"eyesright","4","0",0,1,(Dec 03 2013 09:33:00)
"91","A3ORE2BNURPVNI","Dec 03 2013","09:33:00",11,3,"Switch",0,"Novel105",3,"Novel51",0,2812,"eyesdownright","4","0",0,1,(Dec 03 2013 09:33:00)
"93","A3ORE2BNURPVNI","Dec 03 2013","09:33:00",13,4,"Same",1,"Novel73",1,"Novel73",1,1602,"eyesright","4","0",0,1,(Dec 03 2013 09:33:00)
"95","A3ORE2BNURPVNI","Dec 03 2013","09:33:00",15,5,"Switch",0,"Novel32",3,"Novel39",1,1704,"eyesright","4","0",0,1,(Dec 03 2013 09:33:00)
"97","A3ORE2BNURPVNI","Dec 03 2013","09:33:00",17,6,"Same",1,"Novel3",2,"Novel3",2,1513,"eyesdownleft","4","0",0,1,(Dec 03 2013 09:33:00)
"99","A3ORE2BNURPVNI","Dec 03 2013","09:33:00",19,7,"Switch",1,"Novel94",1,"Novel74",2,2159,"eyesdownleft","4","0",0,1,(Dec 03 2013 09:33:00)
"205","A3QC57KUVJP5EW","Dec 03 2013","09:34:56",5,0,"Switch",0,"Novel5",3,"Novel15",0,4084,"eyesdownleft","4","0",0,1,(Dec 03 2013 09:34:56)
"207","A3QC57KUVJP5EW","Dec 03 2013","09:34:56",7,1,"Same",0,"Novel40",3,"Novel40",3,3881,"eyesdownright","4","0",0,1,(Dec 03 2013 09:34:56)
"209","A3QC57KUVJP5EW","Dec 03 2013","09:34:56",9,2,"Switch",1,"Novel53",3,"Novel47",2,4382,"eyesdownright","4","0",0,1,(Dec 03 2013 09:34:56)
"211","A3QC57KUVJP5EW","Dec 03 2013","09:34:56",11,3,"Same",1,"Novel62",2,"Novel62",2,4529,"eyesleft","4","0",0,1,(Dec 03 2013 09:34:56)
"213","A3QC57KUVJP5EW","Dec 03 2013","09:34:56",13,4,"Switch",0,"Novel137",1,"Novel72",0,4594,"eyesleft","4","0",0,1,(Dec 03 2013 09:34:56)
"215","A3QC57KUVJP5EW","Dec 03 2013","09:34:56",15,5,"Same",0,"Novel90",3,"Novel90",3,2599,"eyesdownleft","4","0",0,1,(Dec 03 2013 09:34:56)
"217","A3QC57KUVJP5EW","Dec 03 2013","09:34:56",17,6,"Switch",1,"Novel112",3,"Novel105",1,4421,"eyesright","4","0",0,1,(Dec 03 2013 09:34:56)
"219","A3QC57KUVJP5EW","Dec 03 2013","09:34:56",19,7,"Same",1,"Novel1",3,"Novel1",3,3914,"eyesdownleft","4","0",0,1,(Dec 03 2013 09:34:56)
"185","A8TCR99262PGK","Dec 03 2013","09:34:36",5,0,"Switch",1,"Novel8",1,"Novel48",0,3292,"eyesright","4","0",0,1,(Dec 03 2013 09:34:36)
"187","A8TCR99262PGK","Dec 03 2013","09:34:36",7,1,"Same",1,"Novel44",1,"Novel44",1,2871,"eyesright","4","0",0,1,(Dec 03 2013 09:34:36)
"189","A8TCR99262PGK","Dec 03 2013","09:34:36",9,2,"Switch",1,"Novel40",0,"Novel67",2,3073,"eyesdownright","4","0",0,1,(Dec 03 2013 09:34:36)
"191","A8TCR99262PGK","Dec 03 2013","09:34:36",11,3,"Same",1,"Novel98",1,"Novel98",1,1358,"eyesleft","4","0",0,1,(Dec 03 2013 09:34:36)
"193","A8TCR99262PGK","Dec 03 2013","09:34:36",13,4,"Switch",0,"Novel66",0,"Novel16",1,1576,"eyesdownleft","4","0",0,1,(Dec 03 2013 09:34:36)
"195","A8TCR99262PGK","Dec 03 2013","09:34:36",15,5,"Same",0,"Novel21",1,"Novel21",1,1077,"eyesdownleft","4","0",0,1,(Dec 03 2013 09:34:36)
"197","A8TCR99262PGK","Dec 03 2013","09:34:36",17,6,"Switch",0,"Novel2",3,"Novel96",2,624,"eyesright","4","0",0,1,(Dec 03 2013 09:34:36)
"199","A8TCR99262PGK","Dec 03 2013","09:34:36",19,7,"Same",0,"Novel118",0,"Novel118",0,1045,"eyesleft","4","0",0,1,(Dec 03 2013 09:34:36)
"345","AGPBP85B17VXL","Dec 03 2013","09:37:33",5,0,"Same",0,"Novel121",2,"Novel121",2,5382,"eyesleft","4","0",0,1,(Dec 03 2013 09:37:33)
"347","AGPBP85B17VXL","Dec 03 2013","09:37:33",7,1,"Switch",1,"Novel56",2,"Novel83",0,8941,"eyesdownleft","4","0",0,1,(Dec 03 2013 09:37:33)
"349","AGPBP85B17VXL","Dec 03 2013","09:37:33",9,2,"Same",1,"Novel5",3,"Novel5",3,3382,"eyesleft","4","0",0,1,(Dec 03 2013 09:37:33)
"351","AGPBP85B17VXL","Dec 03 2013","09:37:33",11,3,"Switch",1,"Novel51",3,"Novel124",0,50219,"eyesright","4","0",0,1,(Dec 03 2013 09:37:33)
"353","AGPBP85B17VXL","Dec 03 2013","09:37:33",13,4,"Same",0,"Novel30",3,"Novel30",3,2003,"eyesdownright","4","0",0,1,(Dec 03 2013 09:37:33)
"355","AGPBP85B17VXL","Dec 03 2013","09:37:33",15,5,"Switch",0,"Novel45",0,"Novel66",1,5168,"eyesright","4","0",0,1,(Dec 03 2013 09:37:33)
"357","AGPBP85B17VXL","Dec 03 2013","09:37:33",17,6,"Same",1,"Novel73",2,"Novel73",2,2531,"eyesright","4","0",0,1,(Dec 03 2013 09:37:33)
"359","AGPBP85B17VXL","Dec 03 2013","09:37:33",19,7,"Switch",0,"Novel37",0,"Novel92",3,5561,"eyesdownleft","4","0",0,1,(Dec 03 2013 09:37:33)
"545","AHR15NJNGBAB0","Dec 03 2013","09:40:08",5,0,"Same",1,"Novel82",1,"Novel82",1,6724,"eyesright","4","0",0,1,(Dec 03 2013 09:40:08)
"547","AHR15NJNGBAB0","Dec 03 2013","09:40:08",7,1,"Switch",0,"Novel75",0,"Novel47",1,4041,"eyesdownleft","4","0",0,1,(Dec 03 2013 09:40:08)
"549","AHR15NJNGBAB0","Dec 03 2013","09:40:08",9,2,"Same",0,"Novel21",1,"Novel21",1,6053,"eyesdownright","4","0",0,1,(Dec 03 2013 09:40:08)
"551","AHR15NJNGBAB0","Dec 03 2013","09:40:08",11,3,"Switch",1,"Novel49",0,"Novel39",1,3416,"eyesleft","4","0",0,1,(Dec 03 2013 09:40:08)
"553","AHR15NJNGBAB0","Dec 03 2013","09:40:08",13,4,"Same",1,"Novel80",0,"Novel80",0,1966,"eyesleft","4","0",0,1,(Dec 03 2013 09:40:08)
"555","AHR15NJNGBAB0","Dec 03 2013","09:40:08",15,5,"Switch",1,"Novel87",3,"Novel125",1,2168,"eyesright","4","0",0,1,(Dec 03 2013 09:40:08)
"557","AHR15NJNGBAB0","Dec 03 2013","09:40:08",17,6,"Same",0,"Novel121",0,"Novel121",0,2169,"eyesdownleft","4","0",0,1,(Dec 03 2013 09:40:08)
"559","AHR15NJNGBAB0","Dec 03 2013","09:40:08",19,7,"Switch",0,"Novel51",1,"Novel57",3,2699,"eyesdownleft","4","0",0,1,(Dec 03 2013 09:40:08)
"505","AK2L7MFN06P5T","Dec 03 2013","09:39:13",5,0,"Same",0,"Novel135",2,"Novel135",2,9280,"eyesdownright","4","0",0,1,(Dec 03 2013 09:39:13)
"507","AK2L7MFN06P5T","Dec 03 2013","09:39:13",7,1,"Switch",1,"Novel105",1,"Novel28",0,2645,"eyesleft","4","0",0,1,(Dec 03 2013 09:39:13)
"509","AK2L7MFN06P5T","Dec 03 2013","09:39:13",9,2,"Same",0,"Novel84",3,"Novel84",3,5169,"eyesdownleft","4","0",0,1,(Dec 03 2013 09:39:13)
"511","AK2L7MFN06P5T","Dec 03 2013","09:39:13",11,3,"Switch",0,"Novel130",3,"Novel119",2,4187,"eyesdownleft","4","0",0,1,(Dec 03 2013 09:39:13)
"513","AK2L7MFN06P5T","Dec 03 2013","09:39:13",13,4,"Same",1,"Novel116",3,"Novel116",3,2621,"eyesleft","4","0",0,1,(Dec 03 2013 09:39:13)
"515","AK2L7MFN06P5T","Dec 03 2013","09:39:13",15,5,"Switch",1,"Novel36",0,"Novel46",1,4710,"eyesdownleft","4","0",0,1,(Dec 03 2013 09:39:13)
"517","AK2L7MFN06P5T","Dec 03 2013","09:39:13",17,6,"Same",1,"Novel18",1,"Novel18",1,4550,"eyesdownright","4","0",0,1,(Dec 03 2013 09:39:13)
"519","AK2L7MFN06P5T","Dec 03 2013","09:39:13",19,7,"Switch",0,"Novel33",0,"Novel24",3,4287,"eyesright","4","0",0,1,(Dec 03 2013 09:39:13)
"245","AK884VX5S74ZW","Dec 03 2013","09:35:39",5,0,"Same",1,"Novel23",1,"Novel23",1,2479,"eyesleft","4","0",0,1,(Dec 03 2013 09:35:39)
"247","AK884VX5S74ZW","Dec 03 2013","09:35:39",7,1,"Switch",0,"Novel100",2,"Novel46",1,3572,"eyesdownleft","4","0",0,1,(Dec 03 2013 09:35:39)
"249","AK884VX5S74ZW","Dec 03 2013","09:35:39",9,2,"Same",0,"Novel53",2,"Novel53",2,4564,"eyesright","4","0",0,1,(Dec 03 2013 09:35:39)
"251","AK884VX5S74ZW","Dec 03 2013","09:35:39",11,3,"Switch",1,"Novel47",2,"Novel97",0,4821,"eyesdownleft","4","0",0,1,(Dec 03 2013 09:35:39)
"253","AK884VX5S74ZW","Dec 03 2013","09:35:39",13,4,"Same",0,"Novel51",1,"Novel51",1,4805,"eyesright","4","0",0,1,(Dec 03 2013 09:35:39)
"255","AK884VX5S74ZW","Dec 03 2013","09:35:39",15,5,"Switch",1,"Novel10",1,"Novel116",0,2924,"eyesright","4","0",0,1,(Dec 03 2013 09:35:39)
"257","AK884VX5S74ZW","Dec 03 2013","09:35:39",17,6,"Same",1,"Novel68",1,"Novel68",1,3037,"eyesdownright","4","0",0,1,(Dec 03 2013 09:35:39)
"259","AK884VX5S74ZW","Dec 03 2013","09:35:39",19,7,"Switch",0,"Novel60",1,"Novel81",0,5526,"eyesright","4","0",0,1,(Dec 03 2013 09:35:39)
"65","AN8SUIGI03DLJ","Dec 03 2013","09:32:38",5,0,"Same",1,"Novel126",1,"Novel126",1,3916,"eyesdownright","4","0",0,1,(Dec 03 2013 09:32:38)
"67","AN8SUIGI03DLJ","Dec 03 2013","09:32:38",7,1,"Switch",0,"Novel133",3,"Novel3",2,2808,"eyesdownright","4","0",0,1,(Dec 03 2013 09:32:38)
"69","AN8SUIGI03DLJ","Dec 03 2013","09:32:38",9,2,"Same",1,"Novel38",0,"Novel38",0,2309,"eyesdownright","4","0",0,1,(Dec 03 2013 09:32:38)
"71","AN8SUIGI03DLJ","Dec 03 2013","09:32:38",11,3,"Switch",1,"Novel8",0,"Novel97",3,2994,"eyesdownleft","4","0",0,1,(Dec 03 2013 09:32:38)
"73","AN8SUIGI03DLJ","Dec 03 2013","09:32:38",13,4,"Same",0,"Novel63",2,"Novel63",2,2293,"eyesright","4","0",0,1,(Dec 03 2013 09:32:38)
"75","AN8SUIGI03DLJ","Dec 03 2013","09:32:38",15,5,"Switch",0,"Novel39",3,"Novel13",0,2168,"eyesleft","4","0",0,1,(Dec 03 2013 09:32:38)
"77","AN8SUIGI03DLJ","Dec 03 2013","09:32:38",17,6,"Same",0,"Novel101",0,"Novel101",0,1965,"eyesdownleft","4","0",0,1,(Dec 03 2013 09:32:38)
"79","AN8SUIGI03DLJ","Dec 03 2013","09:32:38",19,7,"Switch",1,"Novel112",3,"Novel130",0,2308,"eyesleft","4","0",0,1,(Dec 03 2013 09:32:38)
"265","ASB8T0H7L99RF","Dec 03 2013","09:36:25",5,0,"Switch",1,"Novel90",1,"Novel115",0,3619,"eyesdownleft","4","0",0,1,(Dec 03 2013 09:36:25)
"267","ASB8T0H7L99RF","Dec 03 2013","09:36:25",7,1,"Same",1,"Novel130",0,"Novel130",0,4438,"eyesdownleft","4","0",0,1,(Dec 03 2013 09:36:25)
"269","ASB8T0H7L99RF","Dec 03 2013","09:36:25",9,2,"Switch",0,"Novel134",1,"Novel16",2,2175,"eyesleft","4","0",0,1,(Dec 03 2013 09:36:25)
"271","ASB8T0H7L99RF","Dec 03 2013","09:36:25",11,3,"Same",1,"Novel116",2,"Novel116",2,3167,"eyesdownleft","4","0",0,1,(Dec 03 2013 09:36:25)
"273","ASB8T0H7L99RF","Dec 03 2013","09:36:25",13,4,"Switch",1,"Novel131",3,"Novel132",0,2773,"eyesdownleft","4","0",0,1,(Dec 03 2013 09:36:25)
"275","ASB8T0H7L99RF","Dec 03 2013","09:36:25",15,5,"Same",0,"Novel39",3,"Novel39",3,4263,"eyesleft","4","0",0,1,(Dec 03 2013 09:36:25)
"277","ASB8T0H7L99RF","Dec 03 2013","09:36:25",17,6,"Switch",0,"Novel33",1,"Novel54",2,3101,"eyesdownleft","4","0",0,1,(Dec 03 2013 09:36:25)
"279","ASB8T0H7L99RF","Dec 03 2013","09:36:25",19,7,"Same",0,"Novel14",2,"Novel14",2,2457,"eyesleft","4","0",0,1,(Dec 03 2013 09:36:25)
"125","AVS077OA03NB6","Dec 03 2013","09:33:26",5,0,"Same",0,"Novel120",0,"Novel120",0,7798,"eyesdownright","4","0",0,1,(Dec 03 2013 09:33:26)
"127","AVS077OA03NB6","Dec 03 2013","09:33:26",7,1,"Switch",1,"Novel37",0,"Novel32",2,6107,"eyesdownleft","4","0",0,1,(Dec 03 2013 09:33:26)
"129","AVS077OA03NB6","Dec 03 2013","09:33:26",9,2,"Same",1,"Novel129",1,"Novel129",1,3124,"eyesdownright","4","0",0,1,(Dec 03 2013 09:33:26)
"131","AVS077OA03NB6","Dec 03 2013","09:33:26",11,3,"Switch",1,"Novel131",2,"Novel63",3,3083,"eyesleft","4","0",0,1,(Dec 03 2013 09:33:26)
"133","AVS077OA03NB6","Dec 03 2013","09:33:26",13,4,"Same",0,"Novel101",3,"Novel101",3,3828,"eyesleft","4","0",0,1,(Dec 03 2013 09:33:26)
"135","AVS077OA03NB6","Dec 03 2013","09:33:26",15,5,"Switch",0,"Novel92",0,"Novel125",1,3563,"eyesright","4","0",0,1,(Dec 03 2013 09:33:26)
"137","AVS077OA03NB6","Dec 03 2013","09:33:26",17,6,"Same",1,"Novel42",2,"Novel42",2,2868,"eyesleft","4","0",0,1,(Dec 03 2013 09:33:26)
"139","AVS077OA03NB6","Dec 03 2013","09:33:26",19,7,"Switch",0,"Novel5",0,"Novel67",1,5044,"eyesdownright","4","0",0,1,(Dec 03 2013 09:33:26)
