"","X","subid","submit.date","submit.time","trial.num","itemNum","trialType","samePos","chosen","chosenIdx","kept","keptIdx","rt","face","numPic","interval","test","day.and.time","correct","include","first.trial","numPicN","intervalN","condition"
"1",1,"A1421I54656YSD","Dec 03 2013","09:36:58",6,0,"Switch",0,"Novel7",2,"Novel78",3,2719,"eyescenter",4,0,1,"(Dec 03 2013 09:36:58)",FALSE,TRUE,TRUE,4,0,"Social"
"2",2,"A1421I54656YSD","Dec 03 2013","09:36:58",8,1,"Same",0,"Novel127",0,"Novel127",3,1000,"eyescenter",4,0,1,"(Dec 03 2013 09:36:58)",TRUE,TRUE,FALSE,4,0,"Social"
"3",3,"A1421I54656YSD","Dec 03 2013","09:36:58",10,2,"Switch",0,"Novel37",0,"Novel94",0,1922,"eyescenter",4,0,1,"(Dec 03 2013 09:36:58)",FALSE,TRUE,FALSE,4,0,"Social"
"4",4,"A1421I54656YSD","Dec 03 2013","09:36:58",12,3,"Same",1,"Novel1",2,"Novel1",2,1093,"eyescenter",4,0,1,"(Dec 03 2013 09:36:58)",TRUE,TRUE,FALSE,4,0,"Social"
"5",5,"A1421I54656YSD","Dec 03 2013","09:36:58",14,4,"Switch",1,"Novel113",3,"Novel113",3,1297,"eyescenter",4,0,1,"(Dec 03 2013 09:36:58)",TRUE,TRUE,FALSE,4,0,"Social"
"6",6,"A1421I54656YSD","Dec 03 2013","09:36:58",16,5,"Same",1,"Novel8",3,"Novel8",3,735,"eyescenter",4,0,1,"(Dec 03 2013 09:36:58)",TRUE,TRUE,FALSE,4,0,"Social"
"7",7,"A1421I54656YSD","Dec 03 2013","09:36:58",18,6,"Switch",1,"Novel74",0,"Novel129",3,1110,"eyescenter",4,0,1,"(Dec 03 2013 09:36:58)",FALSE,TRUE,FALSE,4,0,"Social"
"8",8,"A1421I54656YSD","Dec 03 2013","09:36:58",20,7,"Same",0,"Novel138",2,"Novel138",1,671,"eyescenter",4,0,1,"(Dec 03 2013 09:36:58)",TRUE,TRUE,FALSE,4,0,"Social"
"9",9,"A16PU53B41CJ22","Dec 03 2013","09:37:09",6,0,"Same",1,"Novel26",2,"Novel67",3,4758,"eyescenter",4,0,1,"(Dec 03 2013 09:37:09)",FALSE,TRUE,TRUE,4,0,"Social"
"10",10,"A16PU53B41CJ22","Dec 03 2013","09:37:09",8,1,"Switch",1,"Novel17",1,"Novel135",3,3620,"eyescenter",4,0,1,"(Dec 03 2013 09:37:09)",FALSE,TRUE,FALSE,4,0,"Social"
"11",11,"A16PU53B41CJ22","Dec 03 2013","09:37:09",10,2,"Same",1,"Novel132",1,"Novel89",0,5008,"eyescenter",4,0,1,"(Dec 03 2013 09:37:09)",FALSE,TRUE,FALSE,4,0,"Social"
"12",12,"A16PU53B41CJ22","Dec 03 2013","09:37:09",12,3,"Switch",1,"Novel62",2,"Novel62",2,2418,"eyescenter",4,0,1,"(Dec 03 2013 09:37:09)",TRUE,TRUE,FALSE,4,0,"Social"
"13",13,"A16PU53B41CJ22","Dec 03 2013","09:37:09",14,4,"Same",0,"Novel63",2,"Novel63",0,733,"eyescenter",4,0,1,"(Dec 03 2013 09:37:09)",TRUE,TRUE,FALSE,4,0,"Social"
"14",14,"A16PU53B41CJ22","Dec 03 2013","09:37:09",16,5,"Switch",0,"Novel114",1,"Novel47",2,2293,"eyescenter",4,0,1,"(Dec 03 2013 09:37:09)",FALSE,TRUE,FALSE,4,0,"Social"
"15",15,"A16PU53B41CJ22","Dec 03 2013","09:37:09",18,6,"Same",0,"Novel93",1,"Novel93",0,921,"eyescenter",4,0,1,"(Dec 03 2013 09:37:09)",TRUE,TRUE,FALSE,4,0,"Social"
"16",16,"A16PU53B41CJ22","Dec 03 2013","09:37:09",20,7,"Switch",0,"Novel50",1,"Novel57",2,1435,"eyescenter",4,0,1,"(Dec 03 2013 09:37:09)",FALSE,TRUE,FALSE,4,0,"Social"
"17",17,"A18T7E73TNGOKP","Dec 03 2013","09:34:59",6,0,"Same",0,"Novel64",3,"Novel100",3,1357,"eyescenter",4,0,1,"(Dec 03 2013 09:34:59)",FALSE,TRUE,TRUE,4,0,"Social"
"18",18,"A18T7E73TNGOKP","Dec 03 2013","09:34:59",8,1,"Switch",1,"Novel38",1,"Novel73",3,1029,"eyescenter",4,0,1,"(Dec 03 2013 09:34:59)",FALSE,TRUE,FALSE,4,0,"Social"
"19",19,"A18T7E73TNGOKP","Dec 03 2013","09:34:59",10,2,"Same",0,"Novel40",2,"Novel40",0,1233,"eyescenter",4,0,1,"(Dec 03 2013 09:34:59)",TRUE,TRUE,FALSE,4,0,"Social"
"20",20,"A18T7E73TNGOKP","Dec 03 2013","09:34:59",12,3,"Switch",0,"Novel134",1,"Novel13",2,1591,"eyescenter",4,0,1,"(Dec 03 2013 09:34:59)",FALSE,TRUE,FALSE,4,0,"Social"
"21",21,"A18T7E73TNGOKP","Dec 03 2013","09:34:59",14,4,"Same",1,"Novel42",1,"Novel42",1,531,"eyescenter",4,0,1,"(Dec 03 2013 09:34:59)",TRUE,TRUE,FALSE,4,0,"Social"
"22",22,"A18T7E73TNGOKP","Dec 03 2013","09:34:59",16,5,"Switch",1,"Novel117",0,"Novel117",0,827,"eyescenter",4,0,1,"(Dec 03 2013 09:34:59)",TRUE,TRUE,FALSE,4,0,"Social"
"23",23,"A18T7E73TNGOKP","Dec 03 2013","09:34:59",18,6,"Same",1,"Novel25",3,"Novel25",3,483,"eyescenter",4,0,1,"(Dec 03 2013 09:34:59)",TRUE,TRUE,FALSE,4,0,"Social"
"24",24,"A18T7E73TNGOKP","Dec 03 2013","09:34:59",20,7,"Switch",0,"Novel98",0,"Novel114",0,780,"eyescenter",4,0,1,"(Dec 03 2013 09:34:59)",FALSE,TRUE,FALSE,4,0,"Social"
"25",25,"A1FDAQBV8RBA5K","Dec 03 2013","09:43:28",6,0,"Same",0,"Novel108",3,"Novel108",1,1919,"eyescenter",4,0,1,"(Dec 03 2013 09:43:28)",TRUE,TRUE,TRUE,4,0,"Social"
"26",26,"A1FDAQBV8RBA5K","Dec 03 2013","09:43:28",8,1,"Switch",1,"Novel125",2,"Novel127",3,2715,"eyescenter",4,0,1,"(Dec 03 2013 09:43:28)",FALSE,TRUE,FALSE,4,0,"Social"
"27",27,"A1FDAQBV8RBA5K","Dec 03 2013","09:43:28",10,2,"Same",0,"Novel37",0,"Novel37",2,1669,"eyescenter",4,0,1,"(Dec 03 2013 09:43:28)",TRUE,TRUE,FALSE,4,0,"Social"
"28",28,"A1FDAQBV8RBA5K","Dec 03 2013","09:43:28",12,3,"Switch",0,"Novel55",0,"Novel8",1,1856,"eyescenter",4,0,1,"(Dec 03 2013 09:43:28)",FALSE,TRUE,FALSE,4,0,"Social"
"29",29,"A1FDAQBV8RBA5K","Dec 03 2013","09:43:28",14,4,"Same",1,"Novel95",0,"Novel95",0,1357,"eyescenter",4,0,1,"(Dec 03 2013 09:43:28)",TRUE,TRUE,FALSE,4,0,"Social"
"30",30,"A1FDAQBV8RBA5K","Dec 03 2013","09:43:28",16,5,"Switch",0,"Novel62",3,"Novel62",1,2075,"eyescenter",4,0,1,"(Dec 03 2013 09:43:28)",TRUE,TRUE,FALSE,4,0,"Social"
"31",31,"A1FDAQBV8RBA5K","Dec 03 2013","09:43:28",18,6,"Same",1,"Novel97",1,"Novel97",1,983,"eyescenter",4,0,1,"(Dec 03 2013 09:43:28)",TRUE,TRUE,FALSE,4,0,"Social"
"32",32,"A1FDAQBV8RBA5K","Dec 03 2013","09:43:28",20,7,"Switch",1,"Novel112",1,"Novel112",1,1279,"eyescenter",4,0,1,"(Dec 03 2013 09:43:28)",TRUE,TRUE,FALSE,4,0,"Social"
"33",33,"A1KQGF9L042R9I","Dec 03 2013","09:38:35",6,0,"Same",1,"Novel72",1,"Novel72",1,1084,"eyescenter",4,0,1,"(Dec 03 2013 09:38:35)",TRUE,TRUE,TRUE,4,0,"Social"
"34",34,"A1KQGF9L042R9I","Dec 03 2013","09:38:35",8,1,"Switch",1,"Novel121",3,"Novel79",0,2533,"eyescenter",4,0,1,"(Dec 03 2013 09:38:35)",FALSE,TRUE,FALSE,4,0,"Social"
"35",35,"A1KQGF9L042R9I","Dec 03 2013","09:38:35",10,2,"Same",0,"Novel10",1,"Novel10",0,1483,"eyescenter",4,0,1,"(Dec 03 2013 09:38:35)",TRUE,TRUE,FALSE,4,0,"Social"
"36",36,"A1KQGF9L042R9I","Dec 03 2013","09:38:35",12,3,"Switch",1,"Novel2",3,"Novel6",2,2348,"eyescenter",4,0,1,"(Dec 03 2013 09:38:35)",FALSE,TRUE,FALSE,4,0,"Social"
"37",37,"A1KQGF9L042R9I","Dec 03 2013","09:38:35",14,4,"Same",1,"Novel97",2,"Novel97",2,1478,"eyescenter",4,0,1,"(Dec 03 2013 09:38:35)",TRUE,TRUE,FALSE,4,0,"Social"
"38",38,"A1KQGF9L042R9I","Dec 03 2013","09:38:35",16,5,"Switch",0,"Novel12",1,"Novel59",2,961,"eyescenter",4,0,1,"(Dec 03 2013 09:38:35)",FALSE,TRUE,FALSE,4,0,"Social"
"39",39,"A1KQGF9L042R9I","Dec 03 2013","09:38:35",18,6,"Same",0,"Novel73",2,"Novel73",0,767,"eyescenter",4,0,1,"(Dec 03 2013 09:38:35)",TRUE,TRUE,FALSE,4,0,"Social"
"40",40,"A1KQGF9L042R9I","Dec 03 2013","09:38:35",20,7,"Switch",0,"Novel20",1,"Novel42",0,830,"eyescenter",4,0,1,"(Dec 03 2013 09:38:35)",FALSE,TRUE,FALSE,4,0,"Social"
"41",41,"A1NRSTQ6HURYZC","Dec 03 2013","09:33:04",6,0,"Same",0,"Novel100",2,"Novel100",3,1388,"eyescenter",4,0,1,"(Dec 03 2013 09:33:04)",TRUE,TRUE,TRUE,4,0,"Social"
"42",42,"A1NRSTQ6HURYZC","Dec 03 2013","09:33:04",8,1,"Switch",1,"Novel94",1,"Novel94",1,1829,"eyescenter",4,0,1,"(Dec 03 2013 09:33:04)",TRUE,TRUE,FALSE,4,0,"Social"
"43",43,"A1NRSTQ6HURYZC","Dec 03 2013","09:33:04",10,2,"Same",0,"Novel44",1,"Novel44",2,1193,"eyescenter",4,0,1,"(Dec 03 2013 09:33:04)",TRUE,TRUE,FALSE,4,0,"Social"
"44",44,"A1NRSTQ6HURYZC","Dec 03 2013","09:33:04",12,3,"Switch",0,"Novel109",1,"Novel109",3,1423,"eyescenter",4,0,1,"(Dec 03 2013 09:33:04)",TRUE,TRUE,FALSE,4,0,"Social"
"45",45,"A1NRSTQ6HURYZC","Dec 03 2013","09:33:04",14,4,"Same",1,"Novel138",3,"Novel138",3,741,"eyescenter",4,0,1,"(Dec 03 2013 09:33:04)",TRUE,TRUE,FALSE,4,0,"Social"
"46",46,"A1NRSTQ6HURYZC","Dec 03 2013","09:33:04",16,5,"Switch",1,"Novel132",2,"Novel119",3,1034,"eyescenter",4,0,1,"(Dec 03 2013 09:33:04)",FALSE,TRUE,FALSE,4,0,"Social"
"47",47,"A1NRSTQ6HURYZC","Dec 03 2013","09:33:04",18,6,"Same",1,"Novel24",2,"Novel24",2,806,"eyescenter",4,0,1,"(Dec 03 2013 09:33:04)",TRUE,TRUE,FALSE,4,0,"Social"
"48",48,"A1NRSTQ6HURYZC","Dec 03 2013","09:33:04",20,7,"Switch",0,"Novel39",2,"Novel39",1,1014,"eyescenter",4,0,1,"(Dec 03 2013 09:33:04)",TRUE,TRUE,FALSE,4,0,"Social"
"49",49,"A26JIHKBORI9X","Dec 03 2013","09:36:54",6,0,"Same",0,"Novel118",0,"Novel118",1,1529,"eyescenter",4,0,1,"(Dec 03 2013 09:36:54)",TRUE,TRUE,TRUE,4,0,"Social"
"50",50,"A26JIHKBORI9X","Dec 03 2013","09:36:54",8,1,"Switch",0,"Novel57",3,"Novel62",3,3448,"eyescenter",4,0,1,"(Dec 03 2013 09:36:54)",FALSE,TRUE,FALSE,4,0,"Social"
"51",51,"A26JIHKBORI9X","Dec 03 2013","09:36:54",10,2,"Same",0,"Novel3",1,"Novel3",3,780,"eyescenter",4,0,1,"(Dec 03 2013 09:36:54)",TRUE,TRUE,FALSE,4,0,"Social"
"52",52,"A26JIHKBORI9X","Dec 03 2013","09:36:54",12,3,"Switch",1,"Novel63",3,"Novel63",3,1654,"eyescenter",4,0,1,"(Dec 03 2013 09:36:54)",TRUE,TRUE,FALSE,4,0,"Social"
"53",53,"A26JIHKBORI9X","Dec 03 2013","09:36:54",14,4,"Same",1,"Novel80",3,"Novel80",3,156,"eyescenter",4,0,1,"(Dec 03 2013 09:36:54)",TRUE,TRUE,FALSE,4,0,"Social"
"54",54,"A26JIHKBORI9X","Dec 03 2013","09:36:54",16,5,"Switch",1,"Novel106",2,"Novel129",3,1466,"eyescenter",4,0,1,"(Dec 03 2013 09:36:54)",FALSE,TRUE,FALSE,4,0,"Social"
"55",55,"A26JIHKBORI9X","Dec 03 2013","09:36:54",18,6,"Same",1,"Novel2",0,"Novel2",0,1186,"eyescenter",4,0,1,"(Dec 03 2013 09:36:54)",TRUE,TRUE,FALSE,4,0,"Social"
"56",56,"A26JIHKBORI9X","Dec 03 2013","09:36:54",20,7,"Switch",0,"Novel10",0,"Novel47",0,2699,"eyescenter",4,0,1,"(Dec 03 2013 09:36:54)",FALSE,TRUE,FALSE,4,0,"Social"
"57",57,"A278FBYZ0NHZYN","Dec 03 2013","09:39:10",6,0,"Switch",1,"Novel26",3,"Novel84",0,1693,"eyescenter",4,0,1,"(Dec 03 2013 09:39:10)",FALSE,TRUE,TRUE,4,0,"Social"
"58",58,"A278FBYZ0NHZYN","Dec 03 2013","09:39:10",8,1,"Same",1,"Novel8",1,"Novel11",0,1020,"eyescenter",4,0,1,"(Dec 03 2013 09:39:10)",FALSE,TRUE,FALSE,4,0,"Social"
"59",59,"A278FBYZ0NHZYN","Dec 03 2013","09:39:10",10,2,"Switch",0,"Novel122",3,"Novel122",1,2735,"eyescenter",4,0,1,"(Dec 03 2013 09:39:10)",TRUE,TRUE,FALSE,4,0,"Social"
"60",60,"A278FBYZ0NHZYN","Dec 03 2013","09:39:10",12,3,"Same",1,"Novel25",0,"Novel25",0,837,"eyescenter",4,0,1,"(Dec 03 2013 09:39:10)",TRUE,TRUE,FALSE,4,0,"Social"
"61",61,"A278FBYZ0NHZYN","Dec 03 2013","09:39:10",14,4,"Switch",1,"Novel116",1,"Novel27",0,2518,"eyescenter",4,0,1,"(Dec 03 2013 09:39:10)",FALSE,TRUE,FALSE,4,0,"Social"
"62",62,"A278FBYZ0NHZYN","Dec 03 2013","09:39:10",16,5,"Same",0,"Novel34",0,"Novel34",2,1159,"eyescenter",4,0,1,"(Dec 03 2013 09:39:10)",TRUE,TRUE,FALSE,4,0,"Social"
"63",63,"A278FBYZ0NHZYN","Dec 03 2013","09:39:10",18,6,"Switch",0,"Novel37",3,"Novel89",1,1293,"eyescenter",4,0,1,"(Dec 03 2013 09:39:10)",FALSE,TRUE,FALSE,4,0,"Social"
"64",64,"A278FBYZ0NHZYN","Dec 03 2013","09:39:10",20,7,"Same",0,"Novel99",2,"Novel99",1,3646,"eyescenter",4,0,1,"(Dec 03 2013 09:39:10)",TRUE,TRUE,FALSE,4,0,"Social"
"65",65,"A28XFC7F3F89W8","Dec 03 2013","09:38:09",6,0,"Same",0,"Novel58",1,"Novel113",0,3996,"eyescenter",4,0,1,"(Dec 03 2013 09:38:09)",FALSE,TRUE,TRUE,4,0,"Social"
"66",66,"A28XFC7F3F89W8","Dec 03 2013","09:38:09",8,1,"Switch",0,"Novel60",2,"Novel18",2,5835,"eyescenter",4,0,1,"(Dec 03 2013 09:38:09)",FALSE,TRUE,FALSE,4,0,"Social"
"67",67,"A28XFC7F3F89W8","Dec 03 2013","09:38:09",10,2,"Same",1,"Novel56",1,"Novel139",0,5101,"eyescenter",4,0,1,"(Dec 03 2013 09:38:09)",FALSE,TRUE,FALSE,4,0,"Social"
"68",68,"A28XFC7F3F89W8","Dec 03 2013","09:38:09",12,3,"Switch",1,"Novel77",1,"Novel39",2,1965,"eyescenter",4,0,1,"(Dec 03 2013 09:38:09)",FALSE,TRUE,FALSE,4,0,"Social"
"69",69,"A28XFC7F3F89W8","Dec 03 2013","09:38:09",14,4,"Same",0,"Novel32",1,"Novel32",3,1201,"eyescenter",4,0,1,"(Dec 03 2013 09:38:09)",TRUE,TRUE,FALSE,4,0,"Social"
"70",70,"A28XFC7F3F89W8","Dec 03 2013","09:38:09",16,5,"Switch",1,"Novel10",1,"Novel10",1,2122,"eyescenter",4,0,1,"(Dec 03 2013 09:38:09)",TRUE,TRUE,FALSE,4,0,"Social"
"71",71,"A28XFC7F3F89W8","Dec 03 2013","09:38:09",18,6,"Same",1,"Novel47",1,"Novel115",3,2277,"eyescenter",4,0,1,"(Dec 03 2013 09:38:09)",FALSE,TRUE,FALSE,4,0,"Social"
"72",72,"A28XFC7F3F89W8","Dec 03 2013","09:38:09",20,7,"Switch",0,"Novel108",1,"Novel138",2,921,"eyescenter",4,0,1,"(Dec 03 2013 09:38:09)",FALSE,TRUE,FALSE,4,0,"Social"
"73",73,"A2GXE6MIDN8DPR","Dec 03 2013","09:39:48",6,0,"Switch",1,"Novel33",3,"Novel33",3,8954,"eyescenter",4,0,1,"(Dec 03 2013 09:39:48)",TRUE,TRUE,TRUE,4,0,"Social"
"74",74,"A2GXE6MIDN8DPR","Dec 03 2013","09:39:48",8,1,"Same",1,"Novel84",2,"Novel40",1,11395,"eyescenter",4,0,1,"(Dec 03 2013 09:39:48)",FALSE,TRUE,FALSE,4,0,"Social"
"75",75,"A2GXE6MIDN8DPR","Dec 03 2013","09:39:48",10,2,"Switch",0,"Novel107",1,"Novel107",3,8845,"eyescenter",4,0,1,"(Dec 03 2013 09:39:48)",TRUE,TRUE,FALSE,4,0,"Social"
"76",76,"A2GXE6MIDN8DPR","Dec 03 2013","09:39:48",12,3,"Same",0,"Novel80",3,"Novel80",0,1700,"eyescenter",4,0,1,"(Dec 03 2013 09:39:48)",TRUE,TRUE,FALSE,4,0,"Social"
"77",77,"A2GXE6MIDN8DPR","Dec 03 2013","09:39:48",14,4,"Switch",0,"Novel99",0,"Novel99",2,3417,"eyescenter",4,0,1,"(Dec 03 2013 09:39:48)",TRUE,TRUE,FALSE,4,0,"Social"
"78",78,"A2GXE6MIDN8DPR","Dec 03 2013","09:39:48",16,5,"Same",0,"Novel50",0,"Novel138",0,9531,"eyescenter",4,0,1,"(Dec 03 2013 09:39:48)",FALSE,TRUE,FALSE,4,0,"Social"
"79",79,"A2GXE6MIDN8DPR","Dec 03 2013","09:39:48",18,6,"Switch",1,"Novel39",3,"Novel39",3,889,"eyescenter",4,0,1,"(Dec 03 2013 09:39:48)",TRUE,TRUE,FALSE,4,0,"Social"
"80",80,"A2GXE6MIDN8DPR","Dec 03 2013","09:39:48",20,7,"Same",1,"Novel108",3,"Novel108",3,4306,"eyescenter",4,0,1,"(Dec 03 2013 09:39:48)",TRUE,TRUE,FALSE,4,0,"Social"
"81",81,"A2NHC0F1J1XYFX","Dec 03 2013","09:31:46",6,0,"Switch",0,"Novel16",3,"Novel16",1,4045,"eyescenter",4,0,1,"(Dec 03 2013 09:31:46)",TRUE,TRUE,TRUE,4,0,"Social"
"82",82,"A2NHC0F1J1XYFX","Dec 03 2013","09:31:46",8,1,"Same",0,"Novel127",3,"Novel127",2,1989,"eyescenter",4,0,1,"(Dec 03 2013 09:31:46)",TRUE,TRUE,FALSE,4,0,"Social"
"83",83,"A2NHC0F1J1XYFX","Dec 03 2013","09:31:46",10,2,"Switch",0,"Novel117",0,"Novel117",3,1062,"eyescenter",4,0,1,"(Dec 03 2013 09:31:46)",TRUE,TRUE,FALSE,4,0,"Social"
"84",84,"A2NHC0F1J1XYFX","Dec 03 2013","09:31:46",12,3,"Same",1,"Novel129",3,"Novel129",3,946,"eyescenter",4,0,1,"(Dec 03 2013 09:31:46)",TRUE,TRUE,FALSE,4,0,"Social"
"85",85,"A2NHC0F1J1XYFX","Dec 03 2013","09:31:46",14,4,"Switch",1,"Novel32",0,"Novel32",0,1208,"eyescenter",4,0,1,"(Dec 03 2013 09:31:46)",TRUE,TRUE,FALSE,4,0,"Social"
"86",86,"A2NHC0F1J1XYFX","Dec 03 2013","09:31:46",16,5,"Same",1,"Novel11",0,"Novel11",0,815,"eyescenter",4,0,1,"(Dec 03 2013 09:31:46)",TRUE,TRUE,FALSE,4,0,"Social"
"87",87,"A2NHC0F1J1XYFX","Dec 03 2013","09:31:46",18,6,"Switch",1,"Novel34",1,"Novel34",1,1554,"eyescenter",4,0,1,"(Dec 03 2013 09:31:46)",TRUE,TRUE,FALSE,4,0,"Social"
"88",88,"A2NHC0F1J1XYFX","Dec 03 2013","09:31:46",20,7,"Same",0,"Novel74",1,"Novel74",2,902,"eyescenter",4,0,1,"(Dec 03 2013 09:31:46)",TRUE,TRUE,FALSE,4,0,"Social"
"89",89,"A2NIXIX2LIA624","Dec 03 2013","09:41:16",6,0,"Same",0,"Novel15",0,"Novel15",3,1311,"eyescenter",4,0,1,"(Dec 03 2013 09:41:16)",TRUE,TRUE,TRUE,4,0,"Social"
"90",90,"A2NIXIX2LIA624","Dec 03 2013","09:41:16",8,1,"Switch",0,"Novel75",0,"Novel75",2,2450,"eyescenter",4,0,1,"(Dec 03 2013 09:41:16)",TRUE,TRUE,FALSE,4,0,"Social"
"91",91,"A2NIXIX2LIA624","Dec 03 2013","09:41:16",10,2,"Same",0,"Novel136",3,"Novel136",2,1326,"eyescenter",4,0,1,"(Dec 03 2013 09:41:16)",TRUE,TRUE,FALSE,4,0,"Social"
"92",92,"A2NIXIX2LIA624","Dec 03 2013","09:41:16",12,3,"Switch",1,"Novel121",1,"Novel80",0,1856,"eyescenter",4,0,1,"(Dec 03 2013 09:41:16)",FALSE,TRUE,FALSE,4,0,"Social"
"93",93,"A2NIXIX2LIA624","Dec 03 2013","09:41:16",14,4,"Same",1,"Novel40",3,"Novel40",3,1248,"eyescenter",4,0,1,"(Dec 03 2013 09:41:16)",TRUE,TRUE,FALSE,4,0,"Social"
"94",94,"A2NIXIX2LIA624","Dec 03 2013","09:41:16",16,5,"Switch",1,"Novel125",2,"Novel115",3,1155,"eyescenter",4,0,1,"(Dec 03 2013 09:41:16)",FALSE,TRUE,FALSE,4,0,"Social"
"95",95,"A2NIXIX2LIA624","Dec 03 2013","09:41:16",18,6,"Same",1,"Novel106",0,"Novel106",0,1076,"eyescenter",4,0,1,"(Dec 03 2013 09:41:16)",TRUE,TRUE,FALSE,4,0,"Social"
"96",96,"A2NIXIX2LIA624","Dec 03 2013","09:41:16",20,7,"Switch",0,"Novel67",0,"Novel3",1,2511,"eyescenter",4,0,1,"(Dec 03 2013 09:41:16)",FALSE,TRUE,FALSE,4,0,"Social"
"97",105,"A31A20Z5P0UJBH","Dec 03 2013","09:32:27",6,0,"Same",1,"Novel137",0,"Novel137",0,1578,"eyescenter",4,0,1,"(Dec 03 2013 09:32:27)",TRUE,TRUE,TRUE,4,0,"Social"
"98",106,"A31A20Z5P0UJBH","Dec 03 2013","09:32:27",8,1,"Switch",0,"Novel114",2,"Novel47",3,1222,"eyescenter",4,0,1,"(Dec 03 2013 09:32:27)",FALSE,TRUE,FALSE,4,0,"Social"
"99",107,"A31A20Z5P0UJBH","Dec 03 2013","09:32:27",10,2,"Same",1,"Novel2",1,"Novel2",1,1075,"eyescenter",4,0,1,"(Dec 03 2013 09:32:27)",TRUE,TRUE,FALSE,4,0,"Social"
"100",108,"A31A20Z5P0UJBH","Dec 03 2013","09:32:27",12,3,"Switch",1,"Novel76",0,"Novel77",1,3041,"eyescenter",4,0,1,"(Dec 03 2013 09:32:27)",FALSE,TRUE,FALSE,4,0,"Social"
"101",109,"A31A20Z5P0UJBH","Dec 03 2013","09:32:27",14,4,"Same",0,"Novel66",3,"Novel66",2,517,"eyescenter",4,0,1,"(Dec 03 2013 09:32:27)",TRUE,TRUE,FALSE,4,0,"Social"
"102",110,"A31A20Z5P0UJBH","Dec 03 2013","09:32:27",16,5,"Switch",1,"Novel93",1,"Novel138",3,1742,"eyescenter",4,0,1,"(Dec 03 2013 09:32:27)",FALSE,TRUE,FALSE,4,0,"Social"
"103",111,"A31A20Z5P0UJBH","Dec 03 2013","09:32:27",18,6,"Same",0,"Novel136",3,"Novel136",1,254,"eyescenter",4,0,1,"(Dec 03 2013 09:32:27)",TRUE,TRUE,FALSE,4,0,"Social"
"104",112,"A31A20Z5P0UJBH","Dec 03 2013","09:32:27",20,7,"Switch",0,"Novel30",0,"Novel30",3,888,"eyescenter",4,0,1,"(Dec 03 2013 09:32:27)",TRUE,TRUE,FALSE,4,0,"Social"
"105",113,"A33SMNMTMIOJ6T","Dec 03 2013","09:38:11",6,0,"Switch",0,"Novel107",1,"Novel107",0,1184,"eyescenter",4,0,1,"(Dec 03 2013 09:38:11)",TRUE,TRUE,TRUE,4,0,"Social"
"106",114,"A33SMNMTMIOJ6T","Dec 03 2013","09:38:11",8,1,"Same",0,"Novel49",3,"Novel49",2,1197,"eyescenter",4,0,1,"(Dec 03 2013 09:38:11)",TRUE,TRUE,FALSE,4,0,"Social"
"107",115,"A33SMNMTMIOJ6T","Dec 03 2013","09:38:11",10,2,"Switch",1,"Novel63",2,"Novel31",1,2691,"eyescenter",4,0,1,"(Dec 03 2013 09:38:11)",FALSE,TRUE,FALSE,4,0,"Social"
"108",116,"A33SMNMTMIOJ6T","Dec 03 2013","09:38:11",12,3,"Same",1,"Novel23",0,"Novel23",0,998,"eyescenter",4,0,1,"(Dec 03 2013 09:38:11)",TRUE,TRUE,FALSE,4,0,"Social"
"109",117,"A33SMNMTMIOJ6T","Dec 03 2013","09:38:11",14,4,"Switch",1,"Novel103",3,"Novel26",0,1214,"eyescenter",4,0,1,"(Dec 03 2013 09:38:11)",FALSE,TRUE,FALSE,4,0,"Social"
"110",118,"A33SMNMTMIOJ6T","Dec 03 2013","09:38:11",16,5,"Same",1,"Novel79",1,"Novel79",1,2121,"eyescenter",4,0,1,"(Dec 03 2013 09:38:11)",TRUE,TRUE,FALSE,4,0,"Social"
"111",119,"A33SMNMTMIOJ6T","Dec 03 2013","09:38:11",18,6,"Switch",0,"Novel7",2,"Novel7",1,1108,"eyescenter",4,0,1,"(Dec 03 2013 09:38:11)",TRUE,TRUE,FALSE,4,0,"Social"
"112",120,"A33SMNMTMIOJ6T","Dec 03 2013","09:38:11",20,7,"Same",0,"Novel87",0,"Novel87",3,1608,"eyescenter",4,0,1,"(Dec 03 2013 09:38:11)",TRUE,TRUE,FALSE,4,0,"Social"
"113",121,"A33UPV2G0DY67H","Dec 03 2013","09:33:48",6,0,"Same",0,"Novel95",0,"Novel95",1,3354,"eyescenter",4,0,1,"(Dec 03 2013 09:33:48)",TRUE,TRUE,TRUE,4,0,"Social"
"114",122,"A33UPV2G0DY67H","Dec 03 2013","09:33:48",8,1,"Switch",0,"Novel39",3,"Novel39",0,2106,"eyescenter",4,0,1,"(Dec 03 2013 09:33:48)",TRUE,TRUE,FALSE,4,0,"Social"
"115",123,"A33UPV2G0DY67H","Dec 03 2013","09:33:48",10,2,"Same",0,"Novel34",2,"Novel34",3,1139,"eyescenter",4,0,1,"(Dec 03 2013 09:33:48)",TRUE,TRUE,FALSE,4,0,"Social"
"116",124,"A33UPV2G0DY67H","Dec 03 2013","09:33:48",12,3,"Switch",1,"Novel99",0,"Novel99",0,1154,"eyescenter",4,0,1,"(Dec 03 2013 09:33:48)",TRUE,TRUE,FALSE,4,0,"Social"
"117",125,"A33UPV2G0DY67H","Dec 03 2013","09:33:48",14,4,"Same",1,"Novel66",0,"Novel66",0,936,"eyescenter",4,0,1,"(Dec 03 2013 09:33:48)",TRUE,TRUE,FALSE,4,0,"Social"
"118",126,"A33UPV2G0DY67H","Dec 03 2013","09:33:48",16,5,"Switch",0,"Novel137",0,"Novel137",3,1326,"eyescenter",4,0,1,"(Dec 03 2013 09:33:48)",TRUE,TRUE,FALSE,4,0,"Social"
"119",127,"A33UPV2G0DY67H","Dec 03 2013","09:33:48",18,6,"Same",1,"Novel50",1,"Novel50",1,858,"eyescenter",4,0,1,"(Dec 03 2013 09:33:48)",TRUE,TRUE,FALSE,4,0,"Social"
"120",128,"A33UPV2G0DY67H","Dec 03 2013","09:33:48",20,7,"Switch",1,"Novel37",0,"Novel37",0,1092,"eyescenter",4,0,1,"(Dec 03 2013 09:33:48)",TRUE,TRUE,FALSE,4,0,"Social"
"121",129,"A35BQPABKN4Q8C","Dec 03 2013","09:37:41",6,0,"Same",1,"Novel82",0,"Novel82",0,2215,"eyescenter",4,0,1,"(Dec 03 2013 09:37:41)",TRUE,TRUE,TRUE,4,0,"Social"
"122",130,"A35BQPABKN4Q8C","Dec 03 2013","09:37:41",8,1,"Switch",0,"Novel70",3,"Novel70",2,1233,"eyescenter",4,0,1,"(Dec 03 2013 09:37:41)",TRUE,TRUE,FALSE,4,0,"Social"
"123",131,"A35BQPABKN4Q8C","Dec 03 2013","09:37:41",10,2,"Same",0,"Novel33",2,"Novel33",1,4166,"eyescenter",4,0,1,"(Dec 03 2013 09:37:41)",TRUE,TRUE,FALSE,4,0,"Social"
"124",132,"A35BQPABKN4Q8C","Dec 03 2013","09:37:41",12,3,"Switch",1,"Novel130",0,"Novel63",1,5179,"eyescenter",4,0,1,"(Dec 03 2013 09:37:41)",FALSE,TRUE,FALSE,4,0,"Social"
"125",133,"A35BQPABKN4Q8C","Dec 03 2013","09:37:41",14,4,"Same",0,"Novel97",1,"Novel97",2,1232,"eyescenter",4,0,1,"(Dec 03 2013 09:37:41)",TRUE,TRUE,FALSE,4,0,"Social"
"126",134,"A35BQPABKN4Q8C","Dec 03 2013","09:37:41",16,5,"Switch",0,"Novel10",1,"Novel10",0,5866,"eyescenter",4,0,1,"(Dec 03 2013 09:37:41)",TRUE,TRUE,FALSE,4,0,"Social"
"127",135,"A35BQPABKN4Q8C","Dec 03 2013","09:37:41",18,6,"Same",1,"Novel48",2,"Novel48",2,920,"eyescenter",4,0,1,"(Dec 03 2013 09:37:41)",TRUE,TRUE,FALSE,4,0,"Social"
"128",136,"A35BQPABKN4Q8C","Dec 03 2013","09:37:41",20,7,"Switch",1,"Novel85",2,"Novel85",2,3229,"eyescenter",4,0,1,"(Dec 03 2013 09:37:41)",TRUE,TRUE,FALSE,4,0,"Social"
"129",137,"A38DC3BG1ZCVZ2","Dec 03 2013","09:32:15",6,0,"Same",1,"Novel86",1,"Novel86",1,1014,"eyescenter",4,0,1,"(Dec 03 2013 09:32:15)",TRUE,TRUE,TRUE,4,0,"Social"
"130",138,"A38DC3BG1ZCVZ2","Dec 03 2013","09:32:15",8,1,"Switch",1,"Novel29",3,"Novel54",1,1747,"eyescenter",4,0,1,"(Dec 03 2013 09:32:15)",FALSE,TRUE,FALSE,4,0,"Social"
"131",139,"A38DC3BG1ZCVZ2","Dec 03 2013","09:32:15",10,2,"Same",1,"Novel36",3,"Novel36",3,718,"eyescenter",4,0,1,"(Dec 03 2013 09:32:15)",TRUE,TRUE,FALSE,4,0,"Social"
"132",140,"A38DC3BG1ZCVZ2","Dec 03 2013","09:32:15",12,3,"Switch",0,"Novel98",1,"Novel3",0,1528,"eyescenter",4,0,1,"(Dec 03 2013 09:32:15)",FALSE,TRUE,FALSE,4,0,"Social"
"133",141,"A38DC3BG1ZCVZ2","Dec 03 2013","09:32:15",14,4,"Same",0,"Novel81",0,"Novel81",3,1029,"eyescenter",4,0,1,"(Dec 03 2013 09:32:15)",TRUE,TRUE,FALSE,4,0,"Social"
"134",142,"A38DC3BG1ZCVZ2","Dec 03 2013","09:32:15",16,5,"Switch",0,"Novel114",0,"Novel114",1,655,"eyescenter",4,0,1,"(Dec 03 2013 09:32:15)",TRUE,TRUE,FALSE,4,0,"Social"
"135",143,"A38DC3BG1ZCVZ2","Dec 03 2013","09:32:15",18,6,"Same",0,"Novel41",0,"Novel41",1,1451,"eyescenter",4,0,1,"(Dec 03 2013 09:32:15)",TRUE,TRUE,FALSE,4,0,"Social"
"136",144,"A38DC3BG1ZCVZ2","Dec 03 2013","09:32:15",20,7,"Switch",1,"Novel13",0,"Novel13",0,624,"eyescenter",4,0,1,"(Dec 03 2013 09:32:15)",TRUE,TRUE,FALSE,4,0,"Social"
"137",145,"A3B3AKQ9G1VX9J","Dec 03 2013","09:33:54",6,0,"Switch",0,"Novel46",1,"Novel116",0,875,"eyescenter",4,0,1,"(Dec 03 2013 09:33:54)",FALSE,TRUE,TRUE,4,0,"Social"
"138",146,"A3B3AKQ9G1VX9J","Dec 03 2013","09:33:54",8,1,"Same",0,"Novel5",2,"Novel5",1,766,"eyescenter",4,0,1,"(Dec 03 2013 09:33:54)",TRUE,TRUE,FALSE,4,0,"Social"
"139",147,"A3B3AKQ9G1VX9J","Dec 03 2013","09:33:54",10,2,"Switch",1,"Novel75",1,"Novel75",1,1937,"eyescenter",4,0,1,"(Dec 03 2013 09:33:54)",TRUE,TRUE,FALSE,4,0,"Social"
"140",148,"A3B3AKQ9G1VX9J","Dec 03 2013","09:33:54",12,3,"Same",1,"Novel29",2,"Novel29",2,547,"eyescenter",4,0,1,"(Dec 03 2013 09:33:54)",TRUE,TRUE,FALSE,4,0,"Social"
"141",149,"A3B3AKQ9G1VX9J","Dec 03 2013","09:33:54",14,4,"Switch",1,"Novel119",1,"Novel129",0,672,"eyescenter",4,0,1,"(Dec 03 2013 09:33:54)",FALSE,TRUE,FALSE,4,0,"Social"
"142",150,"A3B3AKQ9G1VX9J","Dec 03 2013","09:33:54",16,5,"Same",1,"Novel136",1,"Novel136",1,532,"eyescenter",4,0,1,"(Dec 03 2013 09:33:54)",TRUE,TRUE,FALSE,4,0,"Social"
"143",151,"A3B3AKQ9G1VX9J","Dec 03 2013","09:33:54",18,6,"Switch",0,"Novel41",1,"Novel132",3,703,"eyescenter",4,0,1,"(Dec 03 2013 09:33:54)",FALSE,TRUE,FALSE,4,0,"Social"
"144",152,"A3B3AKQ9G1VX9J","Dec 03 2013","09:33:54",20,7,"Same",0,"Novel49",1,"Novel49",2,453,"eyescenter",4,0,1,"(Dec 03 2013 09:33:54)",TRUE,TRUE,FALSE,4,0,"Social"
"145",153,"A3O9VWYB0F4RJ4","Dec 03 2013","09:37:53",6,0,"Switch",1,"Novel92",2,"Novel92",2,3807,"eyescenter",4,0,1,"(Dec 03 2013 09:37:53)",TRUE,TRUE,TRUE,4,0,"Social"
"146",154,"A3O9VWYB0F4RJ4","Dec 03 2013","09:37:53",8,1,"Same",0,"Novel6",0,"Novel6",2,1294,"eyescenter",4,0,1,"(Dec 03 2013 09:37:53)",TRUE,TRUE,FALSE,4,0,"Social"
"147",155,"A3O9VWYB0F4RJ4","Dec 03 2013","09:37:53",10,2,"Switch",0,"Novel4",1,"Novel117",0,2418,"eyescenter",4,0,1,"(Dec 03 2013 09:37:53)",FALSE,TRUE,FALSE,4,0,"Social"
"148",156,"A3O9VWYB0F4RJ4","Dec 03 2013","09:37:53",12,3,"Same",0,"Novel67",0,"Novel67",1,749,"eyescenter",4,0,1,"(Dec 03 2013 09:37:53)",TRUE,TRUE,FALSE,4,0,"Social"
"149",157,"A3O9VWYB0F4RJ4","Dec 03 2013","09:37:53",14,4,"Switch",0,"Novel74",3,"Novel74",1,2433,"eyescenter",4,0,1,"(Dec 03 2013 09:37:53)",TRUE,TRUE,FALSE,4,0,"Social"
"150",158,"A3O9VWYB0F4RJ4","Dec 03 2013","09:37:53",16,5,"Same",1,"Novel136",0,"Novel136",0,3006,"eyescenter",4,0,1,"(Dec 03 2013 09:37:53)",TRUE,TRUE,FALSE,4,0,"Social"
"151",159,"A3O9VWYB0F4RJ4","Dec 03 2013","09:37:53",18,6,"Switch",1,"Novel103",2,"Novel56",0,1825,"eyescenter",4,0,1,"(Dec 03 2013 09:37:53)",FALSE,TRUE,FALSE,4,0,"Social"
"152",160,"A3O9VWYB0F4RJ4","Dec 03 2013","09:37:53",20,7,"Same",1,"Novel10",2,"Novel10",2,1310,"eyescenter",4,0,1,"(Dec 03 2013 09:37:53)",TRUE,TRUE,FALSE,4,0,"Social"
"153",161,"A3ORE2BNURPVNI","Dec 03 2013","09:33:00",6,0,"Same",0,"Novel91",0,"Novel91",2,1193,"eyescenter",4,0,1,"(Dec 03 2013 09:33:00)",TRUE,TRUE,TRUE,4,0,"Social"
"154",162,"A3ORE2BNURPVNI","Dec 03 2013","09:33:00",8,1,"Switch",1,"Novel89",1,"Novel22",0,2871,"eyescenter",4,0,1,"(Dec 03 2013 09:33:00)",FALSE,TRUE,FALSE,4,0,"Social"
"155",163,"A3ORE2BNURPVNI","Dec 03 2013","09:33:00",10,2,"Same",0,"Novel60",1,"Novel60",3,678,"eyescenter",4,0,1,"(Dec 03 2013 09:33:00)",TRUE,TRUE,FALSE,4,0,"Social"
"156",164,"A3ORE2BNURPVNI","Dec 03 2013","09:33:00",12,3,"Switch",0,"Novel55",2,"Novel51",0,1933,"eyescenter",4,0,1,"(Dec 03 2013 09:33:00)",FALSE,TRUE,FALSE,4,0,"Social"
"157",165,"A3ORE2BNURPVNI","Dec 03 2013","09:33:00",14,4,"Same",1,"Novel73",1,"Novel73",1,792,"eyescenter",4,0,1,"(Dec 03 2013 09:33:00)",TRUE,TRUE,FALSE,4,0,"Social"
"158",166,"A3ORE2BNURPVNI","Dec 03 2013","09:33:00",16,5,"Switch",0,"Novel71",3,"Novel39",1,1214,"eyescenter",4,0,1,"(Dec 03 2013 09:33:00)",FALSE,TRUE,FALSE,4,0,"Social"
"159",167,"A3ORE2BNURPVNI","Dec 03 2013","09:33:00",18,6,"Same",1,"Novel3",2,"Novel3",2,703,"eyescenter",4,0,1,"(Dec 03 2013 09:33:00)",TRUE,TRUE,FALSE,4,0,"Social"
"160",168,"A3ORE2BNURPVNI","Dec 03 2013","09:33:00",20,7,"Switch",1,"Novel74",2,"Novel74",2,1499,"eyescenter",4,0,1,"(Dec 03 2013 09:33:00)",TRUE,TRUE,FALSE,4,0,"Social"
"161",169,"A3QC57KUVJP5EW","Dec 03 2013","09:34:56",6,0,"Switch",0,"Novel81",0,"Novel15",0,3093,"eyescenter",4,0,1,"(Dec 03 2013 09:34:56)",FALSE,TRUE,TRUE,4,0,"Social"
"162",170,"A3QC57KUVJP5EW","Dec 03 2013","09:34:56",8,1,"Same",0,"Novel40",1,"Novel40",3,1106,"eyescenter",4,0,1,"(Dec 03 2013 09:34:56)",TRUE,TRUE,FALSE,4,0,"Social"
"163",171,"A3QC57KUVJP5EW","Dec 03 2013","09:34:56",10,2,"Switch",1,"Novel103",1,"Novel47",2,2786,"eyescenter",4,0,1,"(Dec 03 2013 09:34:56)",FALSE,TRUE,FALSE,4,0,"Social"
"164",172,"A3QC57KUVJP5EW","Dec 03 2013","09:34:56",12,3,"Same",1,"Novel62",2,"Novel62",2,1026,"eyescenter",4,0,1,"(Dec 03 2013 09:34:56)",TRUE,TRUE,FALSE,4,0,"Social"
"165",173,"A3QC57KUVJP5EW","Dec 03 2013","09:34:56",14,4,"Switch",0,"Novel79",0,"Novel72",0,7409,"eyescenter",4,0,1,"(Dec 03 2013 09:34:56)",FALSE,TRUE,FALSE,4,0,"Social"
"166",174,"A3QC57KUVJP5EW","Dec 03 2013","09:34:56",16,5,"Same",0,"Novel90",0,"Novel90",3,929,"eyescenter",4,0,1,"(Dec 03 2013 09:34:56)",TRUE,TRUE,FALSE,4,0,"Social"
"167",175,"A3QC57KUVJP5EW","Dec 03 2013","09:34:56",18,6,"Switch",1,"Novel88",3,"Novel105",1,3385,"eyescenter",4,0,1,"(Dec 03 2013 09:34:56)",FALSE,TRUE,FALSE,4,0,"Social"
"168",176,"A3QC57KUVJP5EW","Dec 03 2013","09:34:56",20,7,"Same",1,"Novel1",3,"Novel1",3,865,"eyescenter",4,0,1,"(Dec 03 2013 09:34:56)",TRUE,TRUE,FALSE,4,0,"Social"
"169",177,"A8TCR99262PGK","Dec 03 2013","09:34:36",6,0,"Switch",1,"Novel97",2,"Novel48",0,6646,"eyescenter",4,0,1,"(Dec 03 2013 09:34:36)",FALSE,TRUE,TRUE,4,0,"Social"
"170",178,"A8TCR99262PGK","Dec 03 2013","09:34:36",8,1,"Same",1,"Novel44",1,"Novel44",1,608,"eyescenter",4,0,1,"(Dec 03 2013 09:34:36)",TRUE,TRUE,FALSE,4,0,"Social"
"171",179,"A8TCR99262PGK","Dec 03 2013","09:34:36",10,2,"Switch",1,"Novel67",2,"Novel67",2,1030,"eyescenter",4,0,1,"(Dec 03 2013 09:34:36)",TRUE,TRUE,FALSE,4,0,"Social"
"172",180,"A8TCR99262PGK","Dec 03 2013","09:34:36",12,3,"Same",1,"Novel98",1,"Novel98",1,1576,"eyescenter",4,0,1,"(Dec 03 2013 09:34:36)",TRUE,TRUE,FALSE,4,0,"Social"
"173",181,"A8TCR99262PGK","Dec 03 2013","09:34:36",14,4,"Switch",0,"Novel16",2,"Novel16",1,1935,"eyescenter",4,0,1,"(Dec 03 2013 09:34:36)",TRUE,TRUE,FALSE,4,0,"Social"
"174",182,"A8TCR99262PGK","Dec 03 2013","09:34:36",16,5,"Same",0,"Novel21",2,"Novel21",1,328,"eyescenter",4,0,1,"(Dec 03 2013 09:34:36)",TRUE,TRUE,FALSE,4,0,"Social"
"175",183,"A8TCR99262PGK","Dec 03 2013","09:34:36",18,6,"Switch",0,"Novel75",2,"Novel96",2,702,"eyescenter",4,0,1,"(Dec 03 2013 09:34:36)",FALSE,TRUE,FALSE,4,0,"Social"
"176",184,"A8TCR99262PGK","Dec 03 2013","09:34:36",20,7,"Same",0,"Novel118",1,"Novel118",0,16,"eyescenter",4,0,1,"(Dec 03 2013 09:34:36)",TRUE,TRUE,FALSE,4,0,"Social"
"177",185,"AGPBP85B17VXL","Dec 03 2013","09:37:33",6,0,"Same",0,"Novel121",3,"Novel121",2,2685,"eyescenter",4,0,1,"(Dec 03 2013 09:37:33)",TRUE,TRUE,TRUE,4,0,"Social"
"178",186,"AGPBP85B17VXL","Dec 03 2013","09:37:33",8,1,"Switch",1,"Novel7",3,"Novel83",0,1393,"eyescenter",4,0,1,"(Dec 03 2013 09:37:33)",FALSE,TRUE,FALSE,4,0,"Social"
"179",187,"AGPBP85B17VXL","Dec 03 2013","09:37:33",10,2,"Same",1,"Novel5",3,"Novel5",3,1163,"eyescenter",4,0,1,"(Dec 03 2013 09:37:33)",TRUE,TRUE,FALSE,4,0,"Social"
"180",188,"AGPBP85B17VXL","Dec 03 2013","09:37:33",12,3,"Switch",1,"Novel21",2,"Novel124",0,2949,"eyescenter",4,0,1,"(Dec 03 2013 09:37:33)",FALSE,TRUE,FALSE,4,0,"Social"
"181",189,"AGPBP85B17VXL","Dec 03 2013","09:37:33",14,4,"Same",0,"Novel81",2,"Novel30",3,1905,"eyescenter",4,0,1,"(Dec 03 2013 09:37:33)",FALSE,TRUE,FALSE,4,0,"Social"
"182",190,"AGPBP85B17VXL","Dec 03 2013","09:37:33",16,5,"Switch",0,"Novel123",0,"Novel66",1,1912,"eyescenter",4,0,1,"(Dec 03 2013 09:37:33)",FALSE,TRUE,FALSE,4,0,"Social"
"183",191,"AGPBP85B17VXL","Dec 03 2013","09:37:33",18,6,"Same",1,"Novel73",2,"Novel73",2,1359,"eyescenter",4,0,1,"(Dec 03 2013 09:37:33)",TRUE,TRUE,FALSE,4,0,"Social"
"184",192,"AGPBP85B17VXL","Dec 03 2013","09:37:33",20,7,"Switch",0,"Novel24",1,"Novel92",3,140260,"eyescenter",4,0,1,"(Dec 03 2013 09:37:33)",FALSE,TRUE,FALSE,4,0,"Social"
"185",193,"AHR15NJNGBAB0","Dec 03 2013","09:40:08",6,0,"Same",1,"Novel82",1,"Novel82",1,3089,"eyescenter",4,0,1,"(Dec 03 2013 09:40:08)",TRUE,TRUE,TRUE,4,0,"Social"
"186",194,"AHR15NJNGBAB0","Dec 03 2013","09:40:08",8,1,"Switch",0,"Novel23",3,"Novel47",1,2262,"eyescenter",4,0,1,"(Dec 03 2013 09:40:08)",FALSE,TRUE,FALSE,4,0,"Social"
"187",195,"AHR15NJNGBAB0","Dec 03 2013","09:40:08",10,2,"Same",0,"Novel21",2,"Novel21",1,1170,"eyescenter",4,0,1,"(Dec 03 2013 09:40:08)",TRUE,TRUE,FALSE,4,0,"Social"
"188",196,"AHR15NJNGBAB0","Dec 03 2013","09:40:08",12,3,"Switch",1,"Novel54",3,"Novel39",1,1373,"eyescenter",4,0,1,"(Dec 03 2013 09:40:08)",FALSE,TRUE,FALSE,4,0,"Social"
"189",197,"AHR15NJNGBAB0","Dec 03 2013","09:40:08",14,4,"Same",1,"Novel80",0,"Novel80",0,827,"eyescenter",4,0,1,"(Dec 03 2013 09:40:08)",TRUE,TRUE,FALSE,4,0,"Social"
"190",198,"AHR15NJNGBAB0","Dec 03 2013","09:40:08",16,5,"Switch",1,"Novel126",2,"Novel125",1,1488,"eyescenter",4,0,1,"(Dec 03 2013 09:40:08)",FALSE,TRUE,FALSE,4,0,"Social"
"191",199,"AHR15NJNGBAB0","Dec 03 2013","09:40:08",18,6,"Same",0,"Novel121",3,"Novel121",0,1061,"eyescenter",4,0,1,"(Dec 03 2013 09:40:08)",TRUE,TRUE,FALSE,4,0,"Social"
"192",200,"AHR15NJNGBAB0","Dec 03 2013","09:40:08",20,7,"Switch",0,"Novel115",2,"Novel57",3,1202,"eyescenter",4,0,1,"(Dec 03 2013 09:40:08)",FALSE,TRUE,FALSE,4,0,"Social"
"193",209,"AK884VX5S74ZW","Dec 03 2013","09:35:39",6,0,"Same",1,"Novel23",1,"Novel23",1,1820,"eyescenter",4,0,1,"(Dec 03 2013 09:35:39)",TRUE,TRUE,TRUE,4,0,"Social"
"194",210,"AK884VX5S74ZW","Dec 03 2013","09:35:39",8,1,"Switch",0,"Novel119",0,"Novel46",1,3428,"eyescenter",4,0,1,"(Dec 03 2013 09:35:39)",FALSE,TRUE,FALSE,4,0,"Social"
"195",211,"AK884VX5S74ZW","Dec 03 2013","09:35:39",10,2,"Same",0,"Novel53",0,"Novel53",2,2237,"eyescenter",4,0,1,"(Dec 03 2013 09:35:39)",TRUE,TRUE,FALSE,4,0,"Social"
"196",212,"AK884VX5S74ZW","Dec 03 2013","09:35:39",12,3,"Switch",1,"Novel97",0,"Novel97",0,3997,"eyescenter",4,0,1,"(Dec 03 2013 09:35:39)",TRUE,TRUE,FALSE,4,0,"Social"
"197",213,"AK884VX5S74ZW","Dec 03 2013","09:35:39",14,4,"Same",0,"Novel51",3,"Novel51",1,1548,"eyescenter",4,0,1,"(Dec 03 2013 09:35:39)",TRUE,TRUE,FALSE,4,0,"Social"
"198",214,"AK884VX5S74ZW","Dec 03 2013","09:35:39",16,5,"Switch",1,"Novel116",0,"Novel116",0,4628,"eyescenter",4,0,1,"(Dec 03 2013 09:35:39)",TRUE,TRUE,FALSE,4,0,"Social"
"199",215,"AK884VX5S74ZW","Dec 03 2013","09:35:39",18,6,"Same",1,"Novel68",1,"Novel68",1,1244,"eyescenter",4,0,1,"(Dec 03 2013 09:35:39)",TRUE,TRUE,FALSE,4,0,"Social"
"200",216,"AK884VX5S74ZW","Dec 03 2013","09:35:39",20,7,"Switch",0,"Novel81",1,"Novel81",0,6730,"eyescenter",4,0,1,"(Dec 03 2013 09:35:39)",TRUE,TRUE,FALSE,4,0,"Social"
"201",217,"AN8SUIGI03DLJ","Dec 03 2013","09:32:38",6,0,"Same",1,"Novel108",2,"Novel126",1,4649,"eyescenter",4,0,1,"(Dec 03 2013 09:32:38)",FALSE,TRUE,TRUE,4,0,"Social"
"202",218,"AN8SUIGI03DLJ","Dec 03 2013","09:32:38",8,1,"Switch",0,"Novel22",2,"Novel3",2,1529,"eyescenter",4,0,1,"(Dec 03 2013 09:32:38)",FALSE,TRUE,FALSE,4,0,"Social"
"203",219,"AN8SUIGI03DLJ","Dec 03 2013","09:32:38",10,2,"Same",1,"Novel38",0,"Novel38",0,2012,"eyescenter",4,0,1,"(Dec 03 2013 09:32:38)",TRUE,TRUE,FALSE,4,0,"Social"
"204",220,"AN8SUIGI03DLJ","Dec 03 2013","09:32:38",12,3,"Switch",1,"Novel72",2,"Novel97",3,1248,"eyescenter",4,0,1,"(Dec 03 2013 09:32:38)",FALSE,TRUE,FALSE,4,0,"Social"
"205",221,"AN8SUIGI03DLJ","Dec 03 2013","09:32:38",14,4,"Same",0,"Novel63",3,"Novel63",2,1124,"eyescenter",4,0,1,"(Dec 03 2013 09:32:38)",TRUE,TRUE,FALSE,4,0,"Social"
"206",222,"AN8SUIGI03DLJ","Dec 03 2013","09:32:38",16,5,"Switch",0,"Novel13",3,"Novel13",0,2433,"eyescenter",4,0,1,"(Dec 03 2013 09:32:38)",TRUE,TRUE,FALSE,4,0,"Social"
"207",223,"AN8SUIGI03DLJ","Dec 03 2013","09:32:38",18,6,"Same",0,"Novel101",1,"Novel101",0,1825,"eyescenter",4,0,1,"(Dec 03 2013 09:32:38)",TRUE,TRUE,FALSE,4,0,"Social"
"208",224,"AN8SUIGI03DLJ","Dec 03 2013","09:32:38",20,7,"Switch",1,"Novel116",2,"Novel130",0,1373,"eyescenter",4,0,1,"(Dec 03 2013 09:32:38)",FALSE,TRUE,FALSE,4,0,"Social"
"209",225,"ASB8T0H7L99RF","Dec 03 2013","09:36:25",6,0,"Switch",1,"Novel109",1,"Novel115",0,6147,"eyescenter",4,0,1,"(Dec 03 2013 09:36:25)",FALSE,TRUE,TRUE,4,0,"Social"
"210",226,"ASB8T0H7L99RF","Dec 03 2013","09:36:25",8,1,"Same",1,"Novel130",0,"Novel130",0,1654,"eyescenter",4,0,1,"(Dec 03 2013 09:36:25)",TRUE,TRUE,FALSE,4,0,"Social"
"211",227,"ASB8T0H7L99RF","Dec 03 2013","09:36:25",10,2,"Switch",0,"Novel105",1,"Novel16",2,3291,"eyescenter",4,0,1,"(Dec 03 2013 09:36:25)",FALSE,TRUE,FALSE,4,0,"Social"
"212",228,"ASB8T0H7L99RF","Dec 03 2013","09:36:25",12,3,"Same",1,"Novel116",2,"Novel116",2,859,"eyescenter",4,0,1,"(Dec 03 2013 09:36:25)",TRUE,TRUE,FALSE,4,0,"Social"
"213",229,"ASB8T0H7L99RF","Dec 03 2013","09:36:25",14,4,"Switch",1,"Novel5",2,"Novel132",0,1243,"eyescenter",4,0,1,"(Dec 03 2013 09:36:25)",FALSE,TRUE,FALSE,4,0,"Social"
"214",230,"ASB8T0H7L99RF","Dec 03 2013","09:36:25",16,5,"Same",0,"Novel8",3,"Novel39",3,1277,"eyescenter",4,0,1,"(Dec 03 2013 09:36:25)",FALSE,TRUE,FALSE,4,0,"Social"
"215",231,"ASB8T0H7L99RF","Dec 03 2013","09:36:25",18,6,"Switch",0,"Novel60",2,"Novel54",2,2164,"eyescenter",4,0,1,"(Dec 03 2013 09:36:25)",FALSE,TRUE,FALSE,4,0,"Social"
"216",232,"ASB8T0H7L99RF","Dec 03 2013","09:36:25",20,7,"Same",0,"Novel14",1,"Novel14",2,1021,"eyescenter",4,0,1,"(Dec 03 2013 09:36:25)",TRUE,TRUE,FALSE,4,0,"Social"
"217",233,"AVS077OA03NB6","Dec 03 2013","09:33:26",6,0,"Same",0,"Novel120",2,"Novel120",0,1651,"eyescenter",4,0,1,"(Dec 03 2013 09:33:26)",TRUE,TRUE,TRUE,4,0,"Social"
"218",234,"AVS077OA03NB6","Dec 03 2013","09:33:26",8,1,"Switch",1,"Novel32",2,"Novel32",2,4931,"eyescenter",4,0,1,"(Dec 03 2013 09:33:26)",TRUE,TRUE,FALSE,4,0,"Social"
"219",235,"AVS077OA03NB6","Dec 03 2013","09:33:26",10,2,"Same",1,"Novel129",1,"Novel129",1,1386,"eyescenter",4,0,1,"(Dec 03 2013 09:33:26)",TRUE,TRUE,FALSE,4,0,"Social"
"220",236,"AVS077OA03NB6","Dec 03 2013","09:33:26",12,3,"Switch",1,"Novel28",0,"Novel63",3,2572,"eyescenter",4,0,1,"(Dec 03 2013 09:33:26)",FALSE,TRUE,FALSE,4,0,"Social"
"221",237,"AVS077OA03NB6","Dec 03 2013","09:33:26",14,4,"Same",0,"Novel101",1,"Novel101",3,1115,"eyescenter",4,0,1,"(Dec 03 2013 09:33:26)",TRUE,TRUE,FALSE,4,0,"Social"
"222",238,"AVS077OA03NB6","Dec 03 2013","09:33:26",16,5,"Switch",0,"Novel66",1,"Novel125",1,1804,"eyescenter",4,0,1,"(Dec 03 2013 09:33:26)",FALSE,TRUE,FALSE,4,0,"Social"
"223",239,"AVS077OA03NB6","Dec 03 2013","09:33:26",18,6,"Same",1,"Novel42",2,"Novel42",2,1733,"eyescenter",4,0,1,"(Dec 03 2013 09:33:26)",TRUE,TRUE,FALSE,4,0,"Social"
"224",240,"AVS077OA03NB6","Dec 03 2013","09:33:26",20,7,"Switch",0,"Novel122",3,"Novel67",1,2915,"eyescenter",4,0,1,"(Dec 03 2013 09:33:26)",FALSE,TRUE,FALSE,4,0,"Social"
"225",1,"A16S0KKQ2MIZHT","Dec 02 2013","03:47:16",6,0,"Switch",1,"Novel11",0,"Novel138",2,1982,"eyescenter",4,0,1,"(Dec 02 2013 03:47:16)",FALSE,TRUE,TRUE,4,0,"Social"
"226",2,"A16S0KKQ2MIZHT","Dec 02 2013","03:47:16",8,1,"Same",0,"Novel21",2,"Novel21",3,3205,"eyescenter",4,0,1,"(Dec 02 2013 03:47:16)",TRUE,TRUE,FALSE,4,0,"Social"
"227",3,"A16S0KKQ2MIZHT","Dec 02 2013","03:47:16",10,2,"Switch",0,"Novel129",3,"Novel70",3,5775,"eyescenter",4,0,1,"(Dec 02 2013 03:47:16)",FALSE,TRUE,FALSE,4,0,"Social"
"228",4,"A16S0KKQ2MIZHT","Dec 02 2013","03:47:16",12,3,"Same",0,"Novel73",0,"Novel73",3,2748,"eyescenter",4,0,1,"(Dec 02 2013 03:47:16)",TRUE,TRUE,FALSE,4,0,"Social"
"229",5,"A16S0KKQ2MIZHT","Dec 02 2013","03:47:16",14,4,"Switch",1,"Novel80",3,"Novel80",3,2188,"eyescenter",4,0,1,"(Dec 02 2013 03:47:16)",TRUE,TRUE,FALSE,4,0,"Social"
"230",6,"A16S0KKQ2MIZHT","Dec 02 2013","03:47:16",16,5,"Same",1,"Novel28",0,"Novel28",0,697,"eyescenter",4,0,1,"(Dec 02 2013 03:47:16)",TRUE,TRUE,FALSE,4,0,"Social"
"231",7,"A16S0KKQ2MIZHT","Dec 02 2013","03:47:16",18,6,"Switch",0,"Novel75",1,"Novel75",3,1252,"eyescenter",4,0,1,"(Dec 02 2013 03:47:16)",TRUE,TRUE,FALSE,4,0,"Social"
"232",8,"A16S0KKQ2MIZHT","Dec 02 2013","03:47:16",20,7,"Same",1,"Novel108",3,"Novel108",3,789,"eyescenter",4,0,1,"(Dec 02 2013 03:47:16)",TRUE,TRUE,FALSE,4,0,"Social"
"233",9,"A1SR3GIAAPL50D","Dec 02 2013","03:57:12",6,0,"Switch",1,"Novel5",3,"Novel6",2,2812,"eyescenter",4,0,1,"(Dec 02 2013 03:57:12)",FALSE,TRUE,TRUE,4,0,"Social"
"234",10,"A1SR3GIAAPL50D","Dec 02 2013","03:57:12",8,1,"Same",0,"Novel129",3,"Novel129",1,2021,"eyescenter",4,0,1,"(Dec 02 2013 03:57:12)",TRUE,TRUE,FALSE,4,0,"Social"
"235",11,"A1SR3GIAAPL50D","Dec 02 2013","03:57:12",10,2,"Switch",0,"Novel105",1,"Novel91",2,2923,"eyescenter",4,0,1,"(Dec 02 2013 03:57:12)",FALSE,TRUE,FALSE,4,0,"Social"
"236",12,"A1SR3GIAAPL50D","Dec 02 2013","03:57:12",12,3,"Same",1,"Novel65",1,"Novel9",2,25540,"eyescenter",4,0,1,"(Dec 02 2013 03:57:12)",FALSE,TRUE,FALSE,4,0,"Social"
"237",13,"A1SR3GIAAPL50D","Dec 02 2013","03:57:12",14,4,"Switch",1,"Novel51",3,"Novel51",3,2869,"eyescenter",4,0,1,"(Dec 02 2013 03:57:12)",TRUE,TRUE,FALSE,4,0,"Social"
"238",14,"A1SR3GIAAPL50D","Dec 02 2013","03:57:12",16,5,"Same",1,"Novel79",3,"Novel79",3,1626,"eyescenter",4,0,1,"(Dec 02 2013 03:57:12)",TRUE,TRUE,FALSE,4,0,"Social"
"239",15,"A1SR3GIAAPL50D","Dec 02 2013","03:57:12",18,6,"Switch",0,"Novel28",0,"Novel28",3,794,"eyescenter",4,0,1,"(Dec 02 2013 03:57:12)",TRUE,TRUE,FALSE,4,0,"Social"
"240",16,"A1SR3GIAAPL50D","Dec 02 2013","03:57:12",20,7,"Same",0,"Novel95",1,"Novel95",3,685,"eyescenter",4,0,1,"(Dec 02 2013 03:57:12)",TRUE,TRUE,FALSE,4,0,"Social"
"241",17,"A2J5N770I859WE","Dec 02 2013","03:50:29",6,0,"Switch",0,"Novel79",2,"Novel34",3,1579,"eyescenter",4,0,1,"(Dec 02 2013 03:50:29)",FALSE,TRUE,TRUE,4,0,"Social"
"242",18,"A2J5N770I859WE","Dec 02 2013","03:50:29",8,1,"Same",1,"Novel93",3,"Novel93",3,750,"eyescenter",4,0,1,"(Dec 02 2013 03:50:29)",TRUE,TRUE,FALSE,4,0,"Social"
"243",19,"A2J5N770I859WE","Dec 02 2013","03:50:29",10,2,"Switch",1,"Novel37",0,"Novel37",0,3141,"eyescenter",4,0,1,"(Dec 02 2013 03:50:29)",TRUE,TRUE,FALSE,4,0,"Social"
"244",20,"A2J5N770I859WE","Dec 02 2013","03:50:29",12,3,"Same",0,"Novel96",2,"Novel96",1,687,"eyescenter",4,0,1,"(Dec 02 2013 03:50:29)",TRUE,TRUE,FALSE,4,0,"Social"
"245",21,"A2J5N770I859WE","Dec 02 2013","03:50:29",14,4,"Switch",0,"Novel72",1,"Novel112",2,1594,"eyescenter",4,0,1,"(Dec 02 2013 03:50:29)",FALSE,TRUE,FALSE,4,0,"Social"
"246",22,"A2J5N770I859WE","Dec 02 2013","03:50:29",16,5,"Same",1,"Novel81",3,"Novel81",3,782,"eyescenter",4,0,1,"(Dec 02 2013 03:50:29)",TRUE,TRUE,FALSE,4,0,"Social"
"247",23,"A2J5N770I859WE","Dec 02 2013","03:50:29",18,6,"Switch",1,"Novel92",1,"Novel49",2,1281,"eyescenter",4,0,1,"(Dec 02 2013 03:50:29)",FALSE,TRUE,FALSE,4,0,"Social"
"248",24,"A2J5N770I859WE","Dec 02 2013","03:50:29",20,7,"Same",0,"Novel50",3,"Novel50",0,781,"eyescenter",4,0,1,"(Dec 02 2013 03:50:29)",TRUE,TRUE,FALSE,4,0,"Social"
