"","subid","submit.date","submit.time","trial.num","itemNum","trialType","samePos","chosen","chosenIdx","kept","keptIdx","rt","face","numPic","interval","test","exposure","day.and.time"
"325","A14OLGXAFT9LO5","Dec 02 2013","16:05:24",5,0,"Same",1,"Novel46",2,"Novel46",2,8452,"eyescenter","4","0",0,1,(Dec 02 2013 16:05:24)
"327","A14OLGXAFT9LO5","Dec 02 2013","16:05:24",7,1,"Switch",0,"Novel122",1,"Novel96",3,3765,"eyescenter","4","0",0,1,(Dec 02 2013 16:05:24)
"329","A14OLGXAFT9LO5","Dec 02 2013","16:05:24",9,2,"Same",1,"Novel76",3,"Novel76",3,3589,"eyescenter","4","0",0,1,(Dec 02 2013 16:05:24)
"331","A14OLGXAFT9LO5","Dec 02 2013","16:05:24",11,3,"Switch",1,"Novel80",2,"Novel5",3,3563,"eyescenter","4","0",0,1,(Dec 02 2013 16:05:24)
"333","A14OLGXAFT9LO5","Dec 02 2013","16:05:24",13,4,"Same",0,"Novel115",3,"Novel115",3,3221,"eyescenter","4","0",0,1,(Dec 02 2013 16:05:24)
"335","A14OLGXAFT9LO5","Dec 02 2013","16:05:24",15,5,"Switch",1,"Novel88",1,"Novel28",3,2413,"eyescenter","4","0",0,1,(Dec 02 2013 16:05:24)
"337","A14OLGXAFT9LO5","Dec 02 2013","16:05:24",17,6,"Same",0,"Novel62",2,"Novel62",2,3176,"eyescenter","4","0",0,1,(Dec 02 2013 16:05:24)
"339","A14OLGXAFT9LO5","Dec 02 2013","16:05:24",19,7,"Switch",0,"Novel112",1,"Novel139",3,2453,"eyescenter","4","0",0,1,(Dec 02 2013 16:05:24)
"125","A175ZTL2OZO9YU","Dec 02 2013","16:00:56",5,0,"Switch",0,"Novel55",0,"Novel137",3,7082,"eyescenter","4","0",0,1,(Dec 02 2013 16:00:56)
"127","A175ZTL2OZO9YU","Dec 02 2013","16:00:56",7,1,"Same",0,"Novel86",1,"Novel86",1,4150,"eyescenter","4","0",0,1,(Dec 02 2013 16:00:56)
"129","A175ZTL2OZO9YU","Dec 02 2013","16:00:56",9,2,"Switch",1,"Novel74",2,"Novel120",1,1935,"eyescenter","4","0",0,1,(Dec 02 2013 16:00:56)
"131","A175ZTL2OZO9YU","Dec 02 2013","16:00:56",11,3,"Same",0,"Novel36",3,"Novel36",3,2761,"eyescenter","4","0",0,1,(Dec 02 2013 16:00:56)
"133","A175ZTL2OZO9YU","Dec 02 2013","16:00:56",13,4,"Switch",1,"Novel121",0,"Novel85",2,1623,"eyescenter","4","0",0,1,(Dec 02 2013 16:00:56)
"135","A175ZTL2OZO9YU","Dec 02 2013","16:00:56",15,5,"Same",1,"Novel20",2,"Novel20",2,1342,"eyescenter","4","0",0,1,(Dec 02 2013 16:00:56)
"137","A175ZTL2OZO9YU","Dec 02 2013","16:00:56",17,6,"Switch",0,"Novel14",1,"Novel17",0,1606,"eyescenter","4","0",0,1,(Dec 02 2013 16:00:56)
"139","A175ZTL2OZO9YU","Dec 02 2013","16:00:56",19,7,"Same",1,"Novel123",2,"Novel123",2,1014,"eyescenter","4","0",0,1,(Dec 02 2013 16:00:56)
"385","A1FKCYWMD3HCXU","Dec 02 2013","16:09:44",5,0,"Switch",0,"Novel16",1,"Novel9",2,1965,"eyescenter","4","0",0,1,(Dec 02 2013 16:09:44)
"387","A1FKCYWMD3HCXU","Dec 02 2013","16:09:44",7,1,"Same",0,"Novel57",1,"Novel57",1,2090,"eyescenter","4","0",0,1,(Dec 02 2013 16:09:44)
"389","A1FKCYWMD3HCXU","Dec 02 2013","16:09:44",9,2,"Switch",0,"Novel69",0,"Novel63",1,1311,"eyescenter","4","0",0,1,(Dec 02 2013 16:09:44)
"391","A1FKCYWMD3HCXU","Dec 02 2013","16:09:44",11,3,"Same",0,"Novel13",1,"Novel13",1,1981,"eyescenter","4","0",0,1,(Dec 02 2013 16:09:44)
"393","A1FKCYWMD3HCXU","Dec 02 2013","16:09:44",13,4,"Switch",1,"Novel120",2,"Novel99",0,1981,"eyescenter","4","0",0,1,(Dec 02 2013 16:09:44)
"395","A1FKCYWMD3HCXU","Dec 02 2013","16:09:44",15,5,"Same",1,"Novel82",3,"Novel82",3,1248,"eyescenter","4","0",0,1,(Dec 02 2013 16:09:44)
"397","A1FKCYWMD3HCXU","Dec 02 2013","16:09:44",17,6,"Switch",1,"Novel73",1,"Novel123",2,1354,"eyescenter","4","0",0,1,(Dec 02 2013 16:09:44)
"399","A1FKCYWMD3HCXU","Dec 02 2013","16:09:44",19,7,"Same",1,"Novel37",0,"Novel37",0,764,"eyescenter","4","0",0,1,(Dec 02 2013 16:09:44)
"145","A1JT53BJT9J5HU","Dec 02 2013","16:02:13",5,0,"Switch",0,"Novel73",1,"Novel96",2,2849,"eyescenter","4","0",0,1,(Dec 02 2013 16:02:13)
"147","A1JT53BJT9J5HU","Dec 02 2013","16:02:13",7,1,"Same",1,"Novel38",2,"Novel38",2,3564,"eyescenter","4","0",0,1,(Dec 02 2013 16:02:13)
"149","A1JT53BJT9J5HU","Dec 02 2013","16:02:13",9,2,"Switch",1,"Novel102",1,"Novel103",2,1961,"eyescenter","4","0",0,1,(Dec 02 2013 16:02:13)
"151","A1JT53BJT9J5HU","Dec 02 2013","16:02:13",11,3,"Same",1,"Novel68",0,"Novel68",0,1919,"eyescenter","4","0",0,1,(Dec 02 2013 16:02:13)
"153","A1JT53BJT9J5HU","Dec 02 2013","16:02:13",13,4,"Switch",1,"Novel17",1,"Novel107",2,1910,"eyescenter","4","0",0,1,(Dec 02 2013 16:02:13)
"155","A1JT53BJT9J5HU","Dec 02 2013","16:02:13",15,5,"Same",0,"Novel42",1,"Novel42",1,1504,"eyescenter","4","0",0,1,(Dec 02 2013 16:02:13)
"157","A1JT53BJT9J5HU","Dec 02 2013","16:02:13",17,6,"Switch",0,"Novel65",1,"Novel135",0,1959,"eyescenter","4","0",0,1,(Dec 02 2013 16:02:13)
"159","A1JT53BJT9J5HU","Dec 02 2013","16:02:13",19,7,"Same",0,"Novel92",3,"Novel92",3,2038,"eyescenter","4","0",0,1,(Dec 02 2013 16:02:13)
"285","A1KMAROXODYNCC","Dec 02 2013","16:04:28",5,0,"Same",1,"Novel126",2,"Novel126",2,3342,"eyescenter","4","0",0,1,(Dec 02 2013 16:04:28)
"287","A1KMAROXODYNCC","Dec 02 2013","16:04:28",7,1,"Switch",0,"Novel22",1,"Novel39",0,1364,"eyescenter","4","0",0,1,(Dec 02 2013 16:04:28)
"289","A1KMAROXODYNCC","Dec 02 2013","16:04:28",9,2,"Same",0,"Novel132",1,"Novel132",1,1743,"eyescenter","4","0",0,1,(Dec 02 2013 16:04:28)
"291","A1KMAROXODYNCC","Dec 02 2013","16:04:28",11,3,"Switch",1,"Novel23",3,"Novel131",0,1457,"eyescenter","4","0",0,1,(Dec 02 2013 16:04:28)
"293","A1KMAROXODYNCC","Dec 02 2013","16:04:28",13,4,"Same",1,"Novel46",2,"Novel46",2,1456,"eyescenter","4","0",0,1,(Dec 02 2013 16:04:28)
"295","A1KMAROXODYNCC","Dec 02 2013","16:04:28",15,5,"Switch",1,"Novel94",1,"Novel63",3,1501,"eyescenter","4","0",0,1,(Dec 02 2013 16:04:28)
"297","A1KMAROXODYNCC","Dec 02 2013","16:04:28",17,6,"Same",0,"Novel83",0,"Novel83",0,1114,"eyescenter","4","0",0,1,(Dec 02 2013 16:04:28)
"299","A1KMAROXODYNCC","Dec 02 2013","16:04:28",19,7,"Switch",0,"Novel45",2,"Novel129",3,1064,"eyescenter","4","0",0,1,(Dec 02 2013 16:04:28)
"185","A1LJ5F9TIW88ND","Dec 02 2013","16:02:41",5,0,"Same",1,"Novel9",1,"Novel9",1,4462,"eyescenter","4","0",0,1,(Dec 02 2013 16:02:41)
"187","A1LJ5F9TIW88ND","Dec 02 2013","16:02:41",7,1,"Switch",0,"Novel134",3,"Novel47",1,2231,"eyescenter","4","0",0,1,(Dec 02 2013 16:02:41)
"189","A1LJ5F9TIW88ND","Dec 02 2013","16:02:41",9,2,"Same",0,"Novel72",2,"Novel72",2,1529,"eyescenter","4","0",0,1,(Dec 02 2013 16:02:41)
"191","A1LJ5F9TIW88ND","Dec 02 2013","16:02:41",11,3,"Switch",1,"Novel130",3,"Novel56",2,1903,"eyescenter","4","0",0,1,(Dec 02 2013 16:02:41)
"193","A1LJ5F9TIW88ND","Dec 02 2013","16:02:41",13,4,"Same",1,"Novel35",3,"Novel35",3,1857,"eyescenter","4","0",0,1,(Dec 02 2013 16:02:41)
"195","A1LJ5F9TIW88ND","Dec 02 2013","16:02:41",15,5,"Switch",1,"Novel120",2,"Novel88",1,2106,"eyescenter","4","0",0,1,(Dec 02 2013 16:02:41)
"197","A1LJ5F9TIW88ND","Dec 02 2013","16:02:41",17,6,"Same",0,"Novel48",3,"Novel48",3,2137,"eyescenter","4","0",0,1,(Dec 02 2013 16:02:41)
"199","A1LJ5F9TIW88ND","Dec 02 2013","16:02:41",19,7,"Switch",0,"Novel5",3,"Novel96",1,1045,"eyescenter","4","0",0,1,(Dec 02 2013 16:02:41)
"465","A1OQIXAU1SEJ4P","Dec 02 2013","16:23:39",5,0,"Same",0,"Novel112",3,"Novel112",3,3760,"eyescenter","4","0",0,1,(Dec 02 2013 16:23:39)
"467","A1OQIXAU1SEJ4P","Dec 02 2013","16:23:39",7,1,"Switch",0,"Novel137",3,"Novel56",0,6396,"eyescenter","4","0",0,1,(Dec 02 2013 16:23:39)
"469","A1OQIXAU1SEJ4P","Dec 02 2013","16:23:39",9,2,"Same",1,"Novel9",2,"Novel9",2,2122,"eyescenter","4","0",0,1,(Dec 02 2013 16:23:39)
"471","A1OQIXAU1SEJ4P","Dec 02 2013","16:23:39",11,3,"Switch",0,"Novel117",3,"Novel26",0,4462,"eyescenter","4","0",0,1,(Dec 02 2013 16:23:39)
"473","A1OQIXAU1SEJ4P","Dec 02 2013","16:23:39",13,4,"Same",0,"Novel94",0,"Novel94",0,3182,"eyescenter","4","0",0,1,(Dec 02 2013 16:23:39)
"475","A1OQIXAU1SEJ4P","Dec 02 2013","16:23:39",15,5,"Switch",1,"Novel76",0,"Novel55",3,3604,"eyescenter","4","0",0,1,(Dec 02 2013 16:23:39)
"477","A1OQIXAU1SEJ4P","Dec 02 2013","16:23:39",17,6,"Same",1,"Novel124",3,"Novel124",3,2200,"eyescenter","4","0",0,1,(Dec 02 2013 16:23:39)
"479","A1OQIXAU1SEJ4P","Dec 02 2013","16:23:39",19,7,"Switch",1,"Novel97",3,"Novel32",0,2824,"eyescenter","4","0",0,1,(Dec 02 2013 16:23:39)
"25","A25ZADCJI3D5AF","Dec 02 2013","15:56:49",5,0,"Same",1,"Novel86",1,"Novel86",1,4652,"eyescenter","4","0",0,1,(Dec 02 2013 15:56:49)
"27","A25ZADCJI3D5AF","Dec 02 2013","15:56:49",7,1,"Switch",1,"Novel102",2,"Novel70",1,4345,"eyescenter","4","0",0,1,(Dec 02 2013 15:56:49)
"29","A25ZADCJI3D5AF","Dec 02 2013","15:56:49",9,2,"Same",0,"Novel108",1,"Novel108",1,2043,"eyescenter","4","0",0,1,(Dec 02 2013 15:56:49)
"31","A25ZADCJI3D5AF","Dec 02 2013","15:56:49",11,3,"Switch",1,"Novel17",1,"Novel125",2,3394,"eyescenter","4","0",0,1,(Dec 02 2013 15:56:49)
"33","A25ZADCJI3D5AF","Dec 02 2013","15:56:49",13,4,"Same",1,"Novel110",1,"Novel110",1,1903,"eyescenter","4","0",0,1,(Dec 02 2013 15:56:49)
"35","A25ZADCJI3D5AF","Dec 02 2013","15:56:49",15,5,"Switch",0,"Novel13",2,"Novel26",3,4013,"eyescenter","4","0",0,1,(Dec 02 2013 15:56:49)
"37","A25ZADCJI3D5AF","Dec 02 2013","15:56:49",17,6,"Same",0,"Novel72",2,"Novel72",2,2466,"eyescenter","4","0",0,1,(Dec 02 2013 15:56:49)
"39","A25ZADCJI3D5AF","Dec 02 2013","15:56:49",19,7,"Switch",0,"Novel136",3,"Novel44",2,2865,"eyescenter","4","0",0,1,(Dec 02 2013 15:56:49)
"165","A2HTHF27PGIVER","Dec 02 2013","16:02:31",5,0,"Switch",0,"Novel91",1,"Novel139",2,17770,"eyescenter","4","0",0,1,(Dec 02 2013 16:02:31)
"167","A2HTHF27PGIVER","Dec 02 2013","16:02:31",7,1,"Same",0,"Novel93",2,"Novel93",2,4065,"eyescenter","4","0",0,1,(Dec 02 2013 16:02:31)
"169","A2HTHF27PGIVER","Dec 02 2013","16:02:31",9,2,"Switch",0,"Novel70",3,"Novel81",2,3370,"eyescenter","4","0",0,1,(Dec 02 2013 16:02:31)
"171","A2HTHF27PGIVER","Dec 02 2013","16:02:31",11,3,"Same",1,"Novel44",3,"Novel44",3,4330,"eyescenter","4","0",0,1,(Dec 02 2013 16:02:31)
"173","A2HTHF27PGIVER","Dec 02 2013","16:02:31",13,4,"Switch",1,"Novel41",1,"Novel56",3,5091,"eyescenter","4","0",0,1,(Dec 02 2013 16:02:31)
"175","A2HTHF27PGIVER","Dec 02 2013","16:02:31",15,5,"Same",1,"Novel55",3,"Novel55",3,3138,"eyescenter","4","0",0,1,(Dec 02 2013 16:02:31)
"177","A2HTHF27PGIVER","Dec 02 2013","16:02:31",17,6,"Switch",1,"Novel95",1,"Novel112",2,6500,"eyescenter","4","0",0,1,(Dec 02 2013 16:02:31)
"179","A2HTHF27PGIVER","Dec 02 2013","16:02:31",19,7,"Same",0,"Novel63",2,"Novel63",2,4421,"eyescenter","4","0",0,1,(Dec 02 2013 16:02:31)
"225","A2OJMQGSQBEKEQ","Dec 02 2013","16:03:17",5,0,"Switch",1,"Novel98",0,"Novel43",3,9786,"eyescenter","4","0",0,1,(Dec 02 2013 16:03:17)
"227","A2OJMQGSQBEKEQ","Dec 02 2013","16:03:17",7,1,"Same",0,"Novel125",0,"Novel125",0,2173,"eyescenter","4","0",0,1,(Dec 02 2013 16:03:17)
"229","A2OJMQGSQBEKEQ","Dec 02 2013","16:03:17",9,2,"Switch",0,"Novel134",2,"Novel126",3,11400,"eyescenter","4","0",0,1,(Dec 02 2013 16:03:17)
"231","A2OJMQGSQBEKEQ","Dec 02 2013","16:03:17",11,3,"Same",0,"Novel124",2,"Novel124",2,3904,"eyescenter","4","0",0,1,(Dec 02 2013 16:03:17)
"233","A2OJMQGSQBEKEQ","Dec 02 2013","16:03:17",13,4,"Switch",1,"Novel82",2,"Novel78",1,1961,"eyescenter","4","0",0,1,(Dec 02 2013 16:03:17)
"235","A2OJMQGSQBEKEQ","Dec 02 2013","16:03:17",15,5,"Same",1,"Novel42",1,"Novel42",1,3840,"eyescenter","4","0",0,1,(Dec 02 2013 16:03:17)
"237","A2OJMQGSQBEKEQ","Dec 02 2013","16:03:17",17,6,"Switch",0,"Novel106",1,"Novel30",2,3995,"eyescenter","4","0",0,1,(Dec 02 2013 16:03:17)
"239","A2OJMQGSQBEKEQ","Dec 02 2013","16:03:17",19,7,"Same",1,"Novel54",1,"Novel54",1,2864,"eyescenter","4","0",0,1,(Dec 02 2013 16:03:17)
"425","A2RMJNF6IPI42F","Dec 02 2013","16:11:33",5,0,"Switch",0,"Novel77",0,"Novel4",3,2053,"eyescenter","4","0",0,1,(Dec 02 2013 16:11:33)
"427","A2RMJNF6IPI42F","Dec 02 2013","16:11:33",7,1,"Same",1,"Novel14",0,"Novel14",0,2411,"eyescenter","4","0",0,1,(Dec 02 2013 16:11:33)
"429","A2RMJNF6IPI42F","Dec 02 2013","16:11:33",9,2,"Switch",1,"Novel6",2,"Novel72",1,1051,"eyescenter","4","0",0,1,(Dec 02 2013 16:11:33)
"431","A2RMJNF6IPI42F","Dec 02 2013","16:11:33",11,3,"Same",1,"Novel27",0,"Novel27",0,972,"eyescenter","4","0",0,1,(Dec 02 2013 16:11:33)
"433","A2RMJNF6IPI42F","Dec 02 2013","16:11:33",13,4,"Switch",1,"Novel76",3,"Novel92",0,1540,"eyescenter","4","0",0,1,(Dec 02 2013 16:11:33)
"435","A2RMJNF6IPI42F","Dec 02 2013","16:11:33",15,5,"Same",0,"Novel90",1,"Novel90",1,1258,"eyescenter","4","0",0,1,(Dec 02 2013 16:11:33)
"437","A2RMJNF6IPI42F","Dec 02 2013","16:11:33",17,6,"Switch",0,"Novel75",0,"Novel41",3,1203,"eyescenter","4","0",0,1,(Dec 02 2013 16:11:33)
"439","A2RMJNF6IPI42F","Dec 02 2013","16:11:33",19,7,"Same",0,"Novel11",2,"Novel11",2,939,"eyescenter","4","0",0,1,(Dec 02 2013 16:11:33)
"505","A2UIPRZUHUN9OU","Dec 02 2013","16:42:27",5,0,"Same",1,"Novel135",1,"Novel135",1,5007,"eyescenter","4","0",0,1,(Dec 02 2013 16:42:27)
"507","A2UIPRZUHUN9OU","Dec 02 2013","16:42:27",7,1,"Switch",1,"Novel116",0,"Novel43",2,5180,"eyescenter","4","0",0,1,(Dec 02 2013 16:42:27)
"509","A2UIPRZUHUN9OU","Dec 02 2013","16:42:27",9,2,"Same",0,"Novel1",3,"Novel1",3,3276,"eyescenter","4","0",0,1,(Dec 02 2013 16:42:27)
"511","A2UIPRZUHUN9OU","Dec 02 2013","16:42:27",11,3,"Switch",0,"Novel18",0,"Novel30",3,281,"eyescenter","4","0",0,1,(Dec 02 2013 16:42:27)
"513","A2UIPRZUHUN9OU","Dec 02 2013","16:42:27",13,4,"Same",0,"Novel49",2,"Novel49",2,1623,"eyescenter","4","0",0,1,(Dec 02 2013 16:42:27)
"515","A2UIPRZUHUN9OU","Dec 02 2013","16:42:27",15,5,"Switch",0,"Novel37",1,"Novel133",0,1997,"eyescenter","4","0",0,1,(Dec 02 2013 16:42:27)
"517","A2UIPRZUHUN9OU","Dec 02 2013","16:42:27",17,6,"Same",1,"Novel114",2,"Novel114",2,1436,"eyescenter","4","0",0,1,(Dec 02 2013 16:42:27)
"519","A2UIPRZUHUN9OU","Dec 02 2013","16:42:27",19,7,"Switch",1,"Novel62",2,"Novel44",1,1560,"eyescenter","4","0",0,1,(Dec 02 2013 16:42:27)
"245","A2VWG0L5JHOBWN","Dec 02 2013","16:03:31",5,0,"Switch",1,"Novel133",2,"Novel31",3,4383,"eyescenter","4","0",0,1,(Dec 02 2013 16:03:31)
"247","A2VWG0L5JHOBWN","Dec 02 2013","16:03:31",7,1,"Same",0,"Novel94",0,"Novel94",0,2598,"eyescenter","4","0",0,1,(Dec 02 2013 16:03:31)
"249","A2VWG0L5JHOBWN","Dec 02 2013","16:03:31",9,2,"Switch",0,"Novel85",3,"Novel52",1,2316,"eyescenter","4","0",0,1,(Dec 02 2013 16:03:31)
"251","A2VWG0L5JHOBWN","Dec 02 2013","16:03:31",11,3,"Same",1,"Novel4",2,"Novel4",2,32010,"eyescenter","4","0",0,1,(Dec 02 2013 16:03:31)
"253","A2VWG0L5JHOBWN","Dec 02 2013","16:03:31",13,4,"Switch",0,"Novel45",2,"Novel127",0,1065,"eyescenter","4","0",0,1,(Dec 02 2013 16:03:31)
"255","A2VWG0L5JHOBWN","Dec 02 2013","16:03:31",15,5,"Same",0,"Novel37",1,"Novel37",1,2293,"eyescenter","4","0",0,1,(Dec 02 2013 16:03:31)
"257","A2VWG0L5JHOBWN","Dec 02 2013","16:03:31",17,6,"Switch",1,"Novel39",2,"Novel30",0,19,"eyescenter","4","0",0,1,(Dec 02 2013 16:03:31)
"259","A2VWG0L5JHOBWN","Dec 02 2013","16:03:31",19,7,"Same",1,"Novel139",2,"Novel139",2,771,"eyescenter","4","0",0,1,(Dec 02 2013 16:03:31)
"105","A320QA9HJFUOZO","Dec 02 2013","16:00:28",5,0,"Same",1,"Novel1",1,"Novel1",1,3947,"eyescenter","4","0",0,1,(Dec 02 2013 16:00:28)
"107","A320QA9HJFUOZO","Dec 02 2013","16:00:28",7,1,"Switch",1,"Novel54",2,"Novel105",3,3869,"eyescenter","4","0",0,1,(Dec 02 2013 16:00:28)
"109","A320QA9HJFUOZO","Dec 02 2013","16:00:28",9,2,"Same",1,"Novel56",1,"Novel56",1,3900,"eyescenter","4","0",0,1,(Dec 02 2013 16:00:28)
"111","A320QA9HJFUOZO","Dec 02 2013","16:00:28",11,3,"Switch",1,"Novel70",2,"Novel50",3,2886,"eyescenter","4","0",0,1,(Dec 02 2013 16:00:28)
"113","A320QA9HJFUOZO","Dec 02 2013","16:00:28",13,4,"Same",0,"Novel119",0,"Novel119",0,2215,"eyescenter","4","0",0,1,(Dec 02 2013 16:00:28)
"115","A320QA9HJFUOZO","Dec 02 2013","16:00:28",15,5,"Switch",0,"Novel78",3,"Novel89",0,2137,"eyescenter","4","0",0,1,(Dec 02 2013 16:00:28)
"117","A320QA9HJFUOZO","Dec 02 2013","16:00:28",17,6,"Same",0,"Novel74",2,"Novel74",2,2403,"eyescenter","4","0",0,1,(Dec 02 2013 16:00:28)
"119","A320QA9HJFUOZO","Dec 02 2013","16:00:28",19,7,"Switch",0,"Novel116",3,"Novel95",1,3775,"eyescenter","4","0",0,1,(Dec 02 2013 16:00:28)
"265","A341G96EYJLBKF","Dec 02 2013","16:04:13",5,0,"Same",0,"Novel36",3,"Novel36",3,1454,"eyescenter","4","0",0,1,(Dec 02 2013 16:04:13)
"267","A341G96EYJLBKF","Dec 02 2013","16:04:13",7,1,"Switch",0,"Novel99",3,"Novel5",0,1625,"eyescenter","4","0",0,1,(Dec 02 2013 16:04:13)
"269","A341G96EYJLBKF","Dec 02 2013","16:04:13",9,2,"Same",0,"Novel17",1,"Novel17",1,1562,"eyescenter","4","0",0,1,(Dec 02 2013 16:04:13)
"271","A341G96EYJLBKF","Dec 02 2013","16:04:13",11,3,"Switch",0,"Novel56",1,"Novel106",0,1047,"eyescenter","4","0",0,1,(Dec 02 2013 16:04:13)
"273","A341G96EYJLBKF","Dec 02 2013","16:04:13",13,4,"Same",1,"Novel75",1,"Novel75",1,1235,"eyescenter","4","0",0,1,(Dec 02 2013 16:04:13)
"275","A341G96EYJLBKF","Dec 02 2013","16:04:13",15,5,"Switch",1,"Novel85",0,"Novel21",3,1609,"eyescenter","4","0",0,1,(Dec 02 2013 16:04:13)
"277","A341G96EYJLBKF","Dec 02 2013","16:04:13",17,6,"Same",1,"Novel135",2,"Novel135",2,1625,"eyescenter","4","0",0,1,(Dec 02 2013 16:04:13)
"279","A341G96EYJLBKF","Dec 02 2013","16:04:13",19,7,"Switch",1,"Novel108",1,"Novel111",0,1093,"eyescenter","4","0",0,1,(Dec 02 2013 16:04:13)
"305","A3DKCN0XUVGJ1H","Dec 02 2013","16:05:10",5,0,"Switch",0,"Novel121",0,"Novel89",2,2259,"eyescenter","4","0",0,1,(Dec 02 2013 16:05:10)
"307","A3DKCN0XUVGJ1H","Dec 02 2013","16:05:10",7,1,"Same",1,"Novel19",3,"Novel19",3,2474,"eyescenter","4","0",0,1,(Dec 02 2013 16:05:10)
"309","A3DKCN0XUVGJ1H","Dec 02 2013","16:05:10",9,2,"Switch",0,"Novel43",1,"Novel68",0,2273,"eyescenter","4","0",0,1,(Dec 02 2013 16:05:10)
"311","A3DKCN0XUVGJ1H","Dec 02 2013","16:05:10",11,3,"Same",0,"Novel18",0,"Novel18",0,2092,"eyescenter","4","0",0,1,(Dec 02 2013 16:05:10)
"313","A3DKCN0XUVGJ1H","Dec 02 2013","16:05:10",13,4,"Switch",1,"Novel92",2,"Novel72",0,1778,"eyescenter","4","0",0,1,(Dec 02 2013 16:05:10)
"315","A3DKCN0XUVGJ1H","Dec 02 2013","16:05:10",15,5,"Same",0,"Novel80",1,"Novel80",1,1553,"eyescenter","4","0",0,1,(Dec 02 2013 16:05:10)
"317","A3DKCN0XUVGJ1H","Dec 02 2013","16:05:10",17,6,"Switch",1,"Novel105",2,"Novel86",3,1910,"eyescenter","4","0",0,1,(Dec 02 2013 16:05:10)
"319","A3DKCN0XUVGJ1H","Dec 02 2013","16:05:10",19,7,"Same",1,"Novel125",3,"Novel125",3,1355,"eyescenter","4","0",0,1,(Dec 02 2013 16:05:10)
"445","A3FOKP72T5I4FR","Dec 02 2013","16:14:25",5,0,"Same",0,"Novel52",3,"Novel52",3,7207,"eyescenter","4","0",0,1,(Dec 02 2013 16:14:25)
"447","A3FOKP72T5I4FR","Dec 02 2013","16:14:25",7,1,"Switch",0,"Novel129",1,"Novel88",2,3542,"eyescenter","4","0",0,1,(Dec 02 2013 16:14:25)
"449","A3FOKP72T5I4FR","Dec 02 2013","16:14:25",9,2,"Same",0,"Novel124",1,"Novel124",1,3806,"eyescenter","4","0",0,1,(Dec 02 2013 16:14:25)
"451","A3FOKP72T5I4FR","Dec 02 2013","16:14:25",11,3,"Switch",0,"Novel50",2,"Novel3",0,2402,"eyescenter","4","0",0,1,(Dec 02 2013 16:14:25)
"453","A3FOKP72T5I4FR","Dec 02 2013","16:14:25",13,4,"Same",1,"Novel23",2,"Novel23",2,5819,"eyescenter","4","0",0,1,(Dec 02 2013 16:14:25)
"455","A3FOKP72T5I4FR","Dec 02 2013","16:14:25",15,5,"Switch",1,"Novel76",2,"Novel95",1,4165,"eyescenter","4","0",0,1,(Dec 02 2013 16:14:25)
"457","A3FOKP72T5I4FR","Dec 02 2013","16:14:25",17,6,"Same",1,"Novel16",3,"Novel16",3,3479,"eyescenter","4","0",0,1,(Dec 02 2013 16:14:25)
"459","A3FOKP72T5I4FR","Dec 02 2013","16:14:25",19,7,"Switch",1,"Novel65",3,"Novel139",1,4368,"eyescenter","4","0",0,1,(Dec 02 2013 16:14:25)
"5","A3H3U25KN2ZHFU","Dec 02 2013","15:53:09",5,0,"Same",1,"Novel138",3,"Novel138",3,6318,"eyescenter","4","0",0,1,(Dec 02 2013 15:53:09)
"7","A3H3U25KN2ZHFU","Dec 02 2013","15:53:09",7,1,"Switch",1,"Novel19",1,"Novel95",2,4047,"eyescenter","4","0",0,1,(Dec 02 2013 15:53:09)
"9","A3H3U25KN2ZHFU","Dec 02 2013","15:53:09",9,2,"Same",0,"Novel50",2,"Novel50",2,4875,"eyescenter","4","0",0,1,(Dec 02 2013 15:53:09)
"11","A3H3U25KN2ZHFU","Dec 02 2013","15:53:09",11,3,"Switch",0,"Novel25",0,"Novel97",2,4281,"eyescenter","4","0",0,1,(Dec 02 2013 15:53:09)
"13","A3H3U25KN2ZHFU","Dec 02 2013","15:53:09",13,4,"Same",1,"Novel98",3,"Novel98",3,2609,"eyescenter","4","0",0,1,(Dec 02 2013 15:53:09)
"15","A3H3U25KN2ZHFU","Dec 02 2013","15:53:09",15,5,"Switch",1,"Novel1",1,"Novel61",0,3922,"eyescenter","4","0",0,1,(Dec 02 2013 15:53:09)
"17","A3H3U25KN2ZHFU","Dec 02 2013","15:53:09",17,6,"Same",0,"Novel87",2,"Novel87",2,2140,"eyescenter","4","0",0,1,(Dec 02 2013 15:53:09)
"19","A3H3U25KN2ZHFU","Dec 02 2013","15:53:09",19,7,"Switch",0,"Novel96",1,"Novel92",3,3422,"eyescenter","4","0",0,1,(Dec 02 2013 15:53:09)
"485","A3OGXVZ41XKHBV","Dec 02 2013","16:24:00",5,0,"Switch",0,"Novel8",3,"Novel122",1,3114,"eyescenter","4","0",0,1,(Dec 02 2013 16:24:00)
"487","A3OGXVZ41XKHBV","Dec 02 2013","16:24:00",7,1,"Same",1,"Novel56",0,"Novel56",0,4597,"eyescenter","4","0",0,1,(Dec 02 2013 16:24:00)
"489","A3OGXVZ41XKHBV","Dec 02 2013","16:24:00",9,2,"Switch",1,"Novel6",0,"Novel96",3,3860,"eyescenter","4","0",0,1,(Dec 02 2013 16:24:00)
"491","A3OGXVZ41XKHBV","Dec 02 2013","16:24:00",11,3,"Same",0,"Novel127",1,"Novel127",1,3034,"eyescenter","4","0",0,1,(Dec 02 2013 16:24:00)
"493","A3OGXVZ41XKHBV","Dec 02 2013","16:24:00",13,4,"Switch",0,"Novel111",2,"Novel137",3,2184,"eyescenter","4","0",0,1,(Dec 02 2013 16:24:00)
"495","A3OGXVZ41XKHBV","Dec 02 2013","16:24:00",15,5,"Same",0,"Novel136",1,"Novel136",1,1155,"eyescenter","4","0",0,1,(Dec 02 2013 16:24:00)
"497","A3OGXVZ41XKHBV","Dec 02 2013","16:24:00",17,6,"Switch",1,"Novel38",2,"Novel58",3,1542,"eyescenter","4","0",0,1,(Dec 02 2013 16:24:00)
"499","A3OGXVZ41XKHBV","Dec 02 2013","16:24:00",19,7,"Same",1,"Novel31",0,"Novel31",0,1379,"eyescenter","4","0",0,1,(Dec 02 2013 16:24:00)
"85","A6O1VFV32LBS8","Dec 02 2013","16:00:24",5,0,"Same",0,"Novel41",2,"Novel41",2,3415,"eyescenter","4","0",0,1,(Dec 02 2013 16:00:24)
"87","A6O1VFV32LBS8","Dec 02 2013","16:00:24",7,1,"Switch",0,"Novel10",0,"Novel31",1,2095,"eyescenter","4","0",0,1,(Dec 02 2013 16:00:24)
"89","A6O1VFV32LBS8","Dec 02 2013","16:00:24",9,2,"Same",1,"Novel104",1,"Novel104",1,581,"eyescenter","4","0",0,1,(Dec 02 2013 16:00:24)
"91","A6O1VFV32LBS8","Dec 02 2013","16:00:24",11,3,"Switch",1,"Novel59",2,"Novel1",1,1469,"eyescenter","4","0",0,1,(Dec 02 2013 16:00:24)
"93","A6O1VFV32LBS8","Dec 02 2013","16:00:24",13,4,"Same",0,"Novel116",2,"Novel116",2,2354,"eyescenter","4","0",0,1,(Dec 02 2013 16:00:24)
"95","A6O1VFV32LBS8","Dec 02 2013","16:00:24",15,5,"Switch",0,"Novel129",2,"Novel19",3,3714,"eyescenter","4","0",0,1,(Dec 02 2013 16:00:24)
"97","A6O1VFV32LBS8","Dec 02 2013","16:00:24",17,6,"Same",1,"Novel83",3,"Novel83",3,4851,"eyescenter","4","0",0,1,(Dec 02 2013 16:00:24)
"99","A6O1VFV32LBS8","Dec 02 2013","16:00:24",19,7,"Switch",1,"Novel37",2,"Novel27",0,672,"eyescenter","4","0",0,1,(Dec 02 2013 16:00:24)
"405","A6YMRKGNX6D3Z","Dec 02 2013","16:10:30",5,0,"Switch",0,"Novel124",1,"Novel37",0,11338,"eyescenter","4","0",0,1,(Dec 02 2013 16:10:30)
"407","A6YMRKGNX6D3Z","Dec 02 2013","16:10:30",7,1,"Same",1,"Novel42",1,"Novel42",1,1981,"eyescenter","4","0",0,1,(Dec 02 2013 16:10:30)
"409","A6YMRKGNX6D3Z","Dec 02 2013","16:10:30",9,2,"Switch",0,"Novel4",2,"Novel32",0,1653,"eyescenter","4","0",0,1,(Dec 02 2013 16:10:30)
"411","A6YMRKGNX6D3Z","Dec 02 2013","16:10:30",11,3,"Same",0,"Novel107",1,"Novel107",1,1841,"eyescenter","4","0",0,1,(Dec 02 2013 16:10:30)
"413","A6YMRKGNX6D3Z","Dec 02 2013","16:10:30",13,4,"Switch",1,"Novel126",2,"Novel3",3,2356,"eyescenter","4","0",0,1,(Dec 02 2013 16:10:30)
"415","A6YMRKGNX6D3Z","Dec 02 2013","16:10:30",15,5,"Same",1,"Novel78",3,"Novel78",3,1544,"eyescenter","4","0",0,1,(Dec 02 2013 16:10:30)
"417","A6YMRKGNX6D3Z","Dec 02 2013","16:10:30",17,6,"Switch",1,"Novel68",3,"Novel51",2,2231,"eyescenter","4","0",0,1,(Dec 02 2013 16:10:30)
"419","A6YMRKGNX6D3Z","Dec 02 2013","16:10:30",19,7,"Same",0,"Novel67",2,"Novel67",2,2402,"eyescenter","4","0",0,1,(Dec 02 2013 16:10:30)
"205","A9QYAH5BONH1W","Dec 02 2013","16:03:11",5,0,"Switch",0,"Novel102",3,"Novel98",2,4119,"eyescenter","4","0",0,1,(Dec 02 2013 16:03:11)
"207","A9QYAH5BONH1W","Dec 02 2013","16:03:11",7,1,"Same",0,"Novel105",1,"Novel105",1,1186,"eyescenter","4","0",0,1,(Dec 02 2013 16:03:11)
"209","A9QYAH5BONH1W","Dec 02 2013","16:03:11",9,2,"Switch",0,"Novel66",0,"Novel139",3,1248,"eyescenter","4","0",0,1,(Dec 02 2013 16:03:11)
"211","A9QYAH5BONH1W","Dec 02 2013","16:03:11",11,3,"Same",1,"Novel127",1,"Novel127",1,1061,"eyescenter","4","0",0,1,(Dec 02 2013 16:03:11)
"213","A9QYAH5BONH1W","Dec 02 2013","16:03:11",13,4,"Switch",1,"Novel134",0,"Novel112",2,1186,"eyescenter","4","0",0,1,(Dec 02 2013 16:03:11)
"215","A9QYAH5BONH1W","Dec 02 2013","16:03:11",15,5,"Same",0,"Novel14",3,"Novel14",3,2933,"eyescenter","4","0",0,1,(Dec 02 2013 16:03:11)
"217","A9QYAH5BONH1W","Dec 02 2013","16:03:11",17,6,"Switch",1,"Novel117",1,"Novel119",2,1887,"eyescenter","4","0",0,1,(Dec 02 2013 16:03:11)
"219","A9QYAH5BONH1W","Dec 02 2013","16:03:11",19,7,"Same",1,"Novel140",2,"Novel140",2,858,"eyescenter","4","0",0,1,(Dec 02 2013 16:03:11)
"365","ABM77ZQWCHPNX","Dec 02 2013","16:09:13",5,0,"Same",1,"Novel38",3,"Novel38",3,6603,"eyescenter","4","0",0,1,(Dec 02 2013 16:09:13)
"367","ABM77ZQWCHPNX","Dec 02 2013","16:09:13",7,1,"Switch",0,"Novel86",1,"Novel48",3,3401,"eyescenter","4","0",0,1,(Dec 02 2013 16:09:13)
"369","ABM77ZQWCHPNX","Dec 02 2013","16:09:13",9,2,"Same",0,"Novel112",2,"Novel112",2,4711,"eyescenter","4","0",0,1,(Dec 02 2013 16:09:13)
"371","ABM77ZQWCHPNX","Dec 02 2013","16:09:13",11,3,"Switch",0,"Novel6",1,"Novel18",2,3869,"eyescenter","4","0",0,1,(Dec 02 2013 16:09:13)
"373","ABM77ZQWCHPNX","Dec 02 2013","16:09:13",13,4,"Same",1,"Novel136",1,"Novel136",1,2699,"eyescenter","4","0",0,1,(Dec 02 2013 16:09:13)
"375","ABM77ZQWCHPNX","Dec 02 2013","16:09:13",15,5,"Switch",1,"Novel66",3,"Novel54",0,2449,"eyescenter","4","0",0,1,(Dec 02 2013 16:09:13)
"377","ABM77ZQWCHPNX","Dec 02 2013","16:09:13",17,6,"Same",0,"Novel70",3,"Novel70",3,4362,"eyescenter","4","0",0,1,(Dec 02 2013 16:09:13)
"379","ABM77ZQWCHPNX","Dec 02 2013","16:09:13",19,7,"Switch",1,"Novel29",1,"Novel91",0,3447,"eyescenter","4","0",0,1,(Dec 02 2013 16:09:13)
"45","ACLR7H75VUEN9","Dec 02 2013","15:59:45",5,0,"Switch",0,"Novel50",3,"Novel112",0,5226,"eyescenter","4","0",0,1,(Dec 02 2013 15:59:45)
"47","ACLR7H75VUEN9","Dec 02 2013","15:59:45",7,1,"Same",1,"Novel99",3,"Novel99",3,2856,"eyescenter","4","0",0,1,(Dec 02 2013 15:59:45)
"49","ACLR7H75VUEN9","Dec 02 2013","15:59:45",9,2,"Switch",1,"Novel125",2,"Novel129",0,2619,"eyescenter","4","0",0,1,(Dec 02 2013 15:59:45)
"51","ACLR7H75VUEN9","Dec 02 2013","15:59:45",11,3,"Same",0,"Novel119",3,"Novel119",3,2737,"eyescenter","4","0",0,1,(Dec 02 2013 15:59:45)
"53","ACLR7H75VUEN9","Dec 02 2013","15:59:45",13,4,"Switch",0,"Novel39",1,"Novel132",2,3130,"eyescenter","4","0",0,1,(Dec 02 2013 15:59:45)
"55","ACLR7H75VUEN9","Dec 02 2013","15:59:45",15,5,"Same",0,"Novel82",2,"Novel82",2,1511,"eyescenter","4","0",0,1,(Dec 02 2013 15:59:45)
"57","ACLR7H75VUEN9","Dec 02 2013","15:59:45",17,6,"Switch",1,"Novel110",2,"Novel115",3,2600,"eyescenter","4","0",0,1,(Dec 02 2013 15:59:45)
"59","ACLR7H75VUEN9","Dec 02 2013","15:59:45",19,7,"Same",1,"Novel65",3,"Novel65",3,5994,"eyescenter","4","0",0,1,(Dec 02 2013 15:59:45)
"345","AI885RNRGVIFM","Dec 02 2013","16:05:47",5,0,"Switch",0,"Novel77",0,"Novel83",2,4934,"eyescenter","4","0",0,1,(Dec 02 2013 16:05:47)
"347","AI885RNRGVIFM","Dec 02 2013","16:05:47",7,1,"Same",0,"Novel64",2,"Novel64",2,3834,"eyescenter","4","0",0,1,(Dec 02 2013 16:05:47)
"349","AI885RNRGVIFM","Dec 02 2013","16:05:47",9,2,"Switch",1,"Novel29",1,"Novel19",0,7765,"eyescenter","4","0",0,1,(Dec 02 2013 16:05:47)
"351","AI885RNRGVIFM","Dec 02 2013","16:05:47",11,3,"Same",0,"Novel91",2,"Novel91",2,3245,"eyescenter","4","0",0,1,(Dec 02 2013 16:05:47)
"353","AI885RNRGVIFM","Dec 02 2013","16:05:47",13,4,"Switch",0,"Novel36",0,"Novel140",2,4137,"eyescenter","4","0",0,1,(Dec 02 2013 16:05:47)
"355","AI885RNRGVIFM","Dec 02 2013","16:05:47",15,5,"Same",1,"Novel119",2,"Novel119",2,2932,"eyescenter","4","0",0,1,(Dec 02 2013 16:05:47)
"357","AI885RNRGVIFM","Dec 02 2013","16:05:47",17,6,"Switch",1,"Novel25",2,"Novel41",3,3017,"eyescenter","4","0",0,1,(Dec 02 2013 16:05:47)
"359","AI885RNRGVIFM","Dec 02 2013","16:05:47",19,7,"Same",1,"Novel44",3,"Novel44",3,1948,"eyescenter","4","0",0,1,(Dec 02 2013 16:05:47)
"65","AKO4O0L9613K5","Dec 02 2013","16:00:03",5,0,"Switch",1,"Novel121",0,"Novel109",1,4836,"eyescenter","4","0",0,1,(Dec 02 2013 16:00:03)
"67","AKO4O0L9613K5","Dec 02 2013","16:00:03",7,1,"Same",1,"Novel85",2,"Novel85",2,3713,"eyescenter","4","0",0,1,(Dec 02 2013 16:00:03)
"69","AKO4O0L9613K5","Dec 02 2013","16:00:03",9,2,"Switch",0,"Novel30",1,"Novel118",0,3073,"eyescenter","4","0",0,1,(Dec 02 2013 16:00:03)
"71","AKO4O0L9613K5","Dec 02 2013","16:00:03",11,3,"Same",0,"Novel122",2,"Novel122",2,1497,"eyescenter","4","0",0,1,(Dec 02 2013 16:00:03)
"73","AKO4O0L9613K5","Dec 02 2013","16:00:03",13,4,"Switch",0,"Novel93",2,"Novel114",0,3183,"eyescenter","4","0",0,1,(Dec 02 2013 16:00:03)
"75","AKO4O0L9613K5","Dec 02 2013","16:00:03",15,5,"Same",1,"Novel116",0,"Novel116",0,3120,"eyescenter","4","0",0,1,(Dec 02 2013 16:00:03)
"77","AKO4O0L9613K5","Dec 02 2013","16:00:03",17,6,"Switch",1,"Novel75",3,"Novel102",1,6256,"eyescenter","4","0",0,1,(Dec 02 2013 16:00:03)
"79","AKO4O0L9613K5","Dec 02 2013","16:00:03",19,7,"Same",0,"Novel40",3,"Novel40",3,1950,"eyescenter","4","0",0,1,(Dec 02 2013 16:00:03)
