"","subid","include","submit.time","trial.num","condition","interval","numPic","itemNum","trialType","samePos","chosen","chosenIdx","kept","keptIdx","rt","face","faceIdx","exposureTrial","testTrial","exampleTrial","intervalNum","first.trial","numPicN","correct"
"1","A0607295133OZ2DIJW5P8",TRUE,"02:37:40",1,"Social","Seven",4,0,"Same",0,"squirrel",0,"",0,2327,"eyescenter",-1,0,0,1,7,FALSE,4,FALSE
"2","A0607295133OZ2DIJW5P8",TRUE,"02:37:40",2,"Social","Seven",4,0,"Same",0,"squirrel",0,"",0,2320,"eyescenter",-1,0,0,1,7,FALSE,4,FALSE
"3","A0607295133OZ2DIJW5P8",TRUE,"02:37:40",3,"Social","Seven",4,0,"Same",0,"tomato",1,"",0,3361,"eyescenter",-1,0,0,1,7,FALSE,4,FALSE
"4","A0607295133OZ2DIJW5P8",TRUE,"02:37:40",4,"Social","Seven",4,0,"Same",0,"tomato",2,"",0,1254,"eyescenter",-1,0,0,1,7,FALSE,4,FALSE
"5","A0607295133OZ2DIJW5P8",TRUE,"02:37:40",5,"Social","Seven",4,0,"Same",0,"Novel5",2,"Novel5",2,6364,"eyes_down_right",2,1,0,0,7,FALSE,4,TRUE
"6","A0607295133OZ2DIJW5P8",TRUE,"02:37:40",6,"Social","Seven",4,1,"Switch",0,"Novel7",1,"Novel70",2,2782,"eyes_down_left",1,1,0,0,7,FALSE,4,FALSE
"7","A0607295133OZ2DIJW5P8",TRUE,"02:37:40",7,"Social","Seven",4,2,"Same",1,"Novel51",2,"Novel51",2,2000,"eyes_down_right",2,1,0,0,7,FALSE,4,TRUE
"8","A0607295133OZ2DIJW5P8",TRUE,"02:37:40",8,"Social","Seven",4,3,"Switch",1,"Novel3",2,"Novel133",1,1166,"eyes_down_right",2,1,0,0,7,FALSE,4,FALSE
"9","A0607295133OZ2DIJW5P8",TRUE,"02:37:40",9,"Social","Seven",4,4,"Same",1,"Novel49",2,"Novel49",2,1051,"eyes_down_right",2,1,0,0,7,FALSE,4,TRUE
"10","A0607295133OZ2DIJW5P8",TRUE,"02:37:40",10,"Social","Seven",4,5,"Switch",0,"Novel9",3,"Novel52",1,1672,"eyes_right",3,1,0,0,7,FALSE,4,FALSE
"11","A0607295133OZ2DIJW5P8",TRUE,"02:37:40",11,"Social","Seven",4,6,"Same",0,"Novel62",3,"Novel62",3,973,"eyes_right",3,1,0,0,7,FALSE,4,TRUE
"12","A0607295133OZ2DIJW5P8",TRUE,"02:37:40",12,"Social","Seven",4,7,"Switch",1,"Novel34",0,"Novel88",2,1107,"eyes_left",0,1,0,0,7,FALSE,4,FALSE
"13","A0607295133OZ2DIJW5P8",TRUE,"02:37:40",13,"Social","Seven",4,0,"Same",0,"Novel5",3,"Novel5",2,5021,"eyescenter",-1,0,1,0,7,TRUE,4,TRUE
"14","A0607295133OZ2DIJW5P8",TRUE,"02:37:40",14,"Social","Seven",4,1,"Switch",0,"Novel130",2,"Novel70",2,3456,"eyescenter",-1,0,1,0,7,FALSE,4,FALSE
"15","A0607295133OZ2DIJW5P8",TRUE,"02:37:40",15,"Social","Seven",4,2,"Same",1,"Novel101",1,"Novel51",2,2721,"eyescenter",-1,0,1,0,7,FALSE,4,FALSE
"16","A0607295133OZ2DIJW5P8",TRUE,"02:37:40",16,"Social","Seven",4,3,"Switch",1,"Novel122",2,"Novel133",1,2339,"eyescenter",-1,0,1,0,7,FALSE,4,FALSE
"17","A0607295133OZ2DIJW5P8",TRUE,"02:37:40",17,"Social","Seven",4,4,"Same",1,"Novel16",1,"Novel49",2,2697,"eyescenter",-1,0,1,0,7,FALSE,4,FALSE
"18","A0607295133OZ2DIJW5P8",TRUE,"02:37:40",18,"Social","Seven",4,5,"Switch",0,"Novel54",3,"Novel52",1,2409,"eyescenter",-1,0,1,0,7,FALSE,4,FALSE
"19","A0607295133OZ2DIJW5P8",TRUE,"02:37:40",19,"Social","Seven",4,6,"Same",0,"Novel50",2,"Novel62",3,1387,"eyescenter",-1,0,1,0,7,FALSE,4,FALSE
"20","A0607295133OZ2DIJW5P8",TRUE,"02:37:40",20,"Social","Seven",4,7,"Switch",1,"Novel119",3,"Novel88",2,1441,"eyescenter",-1,0,1,0,7,FALSE,4,FALSE
"21","A10I0NM5NV1DBU",TRUE,"03:54:53",1,"Social","One",4,0,"Switch",0,"squirrel",0,"",0,10236,"eyescenter",-1,0,0,1,1,FALSE,4,FALSE
"22","A10I0NM5NV1DBU",TRUE,"03:54:53",2,"Social","One",4,0,"Switch",0,"squirrel",0,"",0,5474,"eyescenter",-1,0,0,1,1,FALSE,4,FALSE
"23","A10I0NM5NV1DBU",TRUE,"03:54:53",3,"Social","One",4,0,"Switch",0,"tomato",1,"",0,2919,"eyescenter",-1,0,0,1,1,FALSE,4,FALSE
"24","A10I0NM5NV1DBU",TRUE,"03:54:53",4,"Social","One",4,0,"Switch",0,"tomato",2,"",0,1604,"eyescenter",-1,0,0,1,1,FALSE,4,FALSE
"25","A10I0NM5NV1DBU",TRUE,"03:54:53",5,"Social","One",4,0,"Switch",0,"Novel62",3,"Novel34",2,2420,"eyes_right",3,1,0,0,1,FALSE,4,FALSE
"26","A10I0NM5NV1DBU",TRUE,"03:54:53",6,"Social","One",4,1,"Same",1,"Novel56",2,"Novel56",2,1812,"eyes_down_right",2,1,0,0,1,FALSE,4,TRUE
"27","A10I0NM5NV1DBU",TRUE,"03:54:53",7,"Social","One",4,0,"Switch",0,"Novel34",3,"Novel34",2,16539,"eyescenter",-1,0,1,0,1,TRUE,4,TRUE
"28","A10I0NM5NV1DBU",TRUE,"03:54:53",8,"Social","One",4,1,"Same",1,"Novel56",2,"Novel56",2,1640,"eyescenter",-1,0,1,0,1,FALSE,4,TRUE
"29","A10I0NM5NV1DBU",TRUE,"03:54:53",9,"Social","One",4,2,"Switch",1,"Novel122",3,"Novel11",1,2710,"eyes_right",3,1,0,0,1,FALSE,4,FALSE
"30","A10I0NM5NV1DBU",TRUE,"03:54:53",10,"Social","One",4,3,"Same",0,"Novel136",1,"Novel136",1,1896,"eyes_down_left",1,1,0,0,1,FALSE,4,TRUE
"31","A10I0NM5NV1DBU",TRUE,"03:54:53",11,"Social","One",4,2,"Switch",1,"Novel9",2,"Novel11",1,7369,"eyescenter",-1,0,1,0,1,FALSE,4,FALSE
"32","A10I0NM5NV1DBU",TRUE,"03:54:53",12,"Social","One",4,3,"Same",0,"Novel136",2,"Novel136",1,1845,"eyescenter",-1,0,1,0,1,FALSE,4,TRUE
"33","A10I0NM5NV1DBU",TRUE,"03:54:53",13,"Social","One",4,4,"Switch",1,"Novel107",3,"Novel61",0,2144,"eyes_right",3,1,0,0,1,FALSE,4,FALSE
"34","A10I0NM5NV1DBU",TRUE,"03:54:53",14,"Social","One",4,5,"Same",1,"Novel68",2,"Novel68",2,1474,"eyes_down_right",2,1,0,0,1,FALSE,4,TRUE
"35","A10I0NM5NV1DBU",TRUE,"03:54:53",15,"Social","One",4,4,"Switch",1,"Novel44",3,"Novel61",0,7272,"eyescenter",-1,0,1,0,1,FALSE,4,FALSE
"36","A10I0NM5NV1DBU",TRUE,"03:54:53",16,"Social","One",4,5,"Same",1,"Novel68",2,"Novel68",2,1449,"eyescenter",-1,0,1,0,1,FALSE,4,TRUE
"37","A10I0NM5NV1DBU",TRUE,"03:54:53",17,"Social","One",4,6,"Switch",0,"Novel1",3,"Novel131",1,2707,"eyes_right",3,1,0,0,1,FALSE,4,FALSE
"38","A10I0NM5NV1DBU",TRUE,"03:54:53",18,"Social","One",4,7,"Same",0,"Novel29",3,"Novel29",3,1327,"eyes_right",3,1,0,0,1,FALSE,4,TRUE
"39","A10I0NM5NV1DBU",TRUE,"03:54:53",19,"Social","One",4,6,"Switch",0,"Novel121",2,"Novel131",1,7876,"eyescenter",-1,0,1,0,1,FALSE,4,FALSE
"40","A10I0NM5NV1DBU",TRUE,"03:54:53",20,"Social","One",4,7,"Same",0,"Novel29",1,"Novel29",3,4859,"eyescenter",-1,0,1,0,1,FALSE,4,TRUE
"41","A10LLZZHZVGWRW",TRUE,"13:27:37",1,"No-Social","Three",4,0,"Same",0,"squirrel",0,"",0,1316,"eyescenter",-1,0,0,1,3,FALSE,4,FALSE
"42","A10LLZZHZVGWRW",TRUE,"13:27:37",2,"No-Social","Three",4,0,"Same",0,"squirrel",0,"",0,1151,"eyescenter",-1,0,0,1,3,FALSE,4,FALSE
"43","A10LLZZHZVGWRW",TRUE,"13:27:37",3,"No-Social","Three",4,0,"Same",0,"tomato",1,"",0,1271,"eyescenter",-1,0,0,1,3,FALSE,4,FALSE
"44","A10LLZZHZVGWRW",TRUE,"13:27:37",4,"No-Social","Three",4,0,"Same",0,"tomato",2,"",0,1279,"eyescenter",-1,0,0,1,3,FALSE,4,FALSE
"45","A10LLZZHZVGWRW",TRUE,"13:27:37",5,"No-Social","Three",4,0,"Same",0,"Novel51",0,"Novel51",0,3382,"eyescenter",-1,1,0,0,3,FALSE,4,TRUE
"46","A10LLZZHZVGWRW",TRUE,"13:27:37",6,"No-Social","Three",4,1,"Switch",0,"Novel78",2,"Novel24",0,1769,"eyescenter",-1,1,0,0,3,FALSE,4,FALSE
"47","A10LLZZHZVGWRW",TRUE,"13:27:37",7,"No-Social","Three",4,2,"Same",1,"Novel122",1,"Novel122",1,2326,"eyescenter",-1,1,0,0,3,FALSE,4,TRUE
"48","A10LLZZHZVGWRW",TRUE,"13:27:37",8,"No-Social","Three",4,3,"Switch",1,"Novel5",2,"Novel40",0,2339,"eyescenter",-1,1,0,0,3,FALSE,4,FALSE
"49","A10LLZZHZVGWRW",TRUE,"13:27:37",9,"No-Social","Three",4,0,"Same",0,"Novel51",2,"Novel51",0,1754,"eyescenter",-1,0,1,0,3,TRUE,4,TRUE
"50","A10LLZZHZVGWRW",TRUE,"13:27:37",10,"No-Social","Three",4,1,"Switch",0,"Novel135",2,"Novel24",0,1961,"eyescenter",-1,0,1,0,3,FALSE,4,FALSE
"51","A10LLZZHZVGWRW",TRUE,"13:27:37",11,"No-Social","Three",4,2,"Same",1,"Novel122",1,"Novel122",1,896,"eyescenter",-1,0,1,0,3,FALSE,4,TRUE
"52","A10LLZZHZVGWRW",TRUE,"13:27:37",12,"No-Social","Three",4,3,"Switch",1,"Novel40",0,"Novel40",0,1913,"eyescenter",-1,0,1,0,3,FALSE,4,TRUE
"53","A10LLZZHZVGWRW",TRUE,"13:27:37",13,"No-Social","Three",4,4,"Same",0,"Novel25",2,"Novel25",2,1720,"eyescenter",-1,1,0,0,3,FALSE,4,TRUE
"54","A10LLZZHZVGWRW",TRUE,"13:27:37",14,"No-Social","Three",4,5,"Switch",1,"Novel136",3,"Novel106",1,2799,"eyescenter",-1,1,0,0,3,FALSE,4,FALSE
"55","A10LLZZHZVGWRW",TRUE,"13:27:37",15,"No-Social","Three",4,6,"Same",1,"Novel127",3,"Novel127",3,2703,"eyescenter",-1,1,0,0,3,FALSE,4,TRUE
"56","A10LLZZHZVGWRW",TRUE,"13:27:37",16,"No-Social","Three",4,7,"Switch",0,"Novel37",2,"Novel100",1,1689,"eyescenter",-1,1,0,0,3,FALSE,4,FALSE
"57","A10LLZZHZVGWRW",TRUE,"13:27:37",17,"No-Social","Three",4,4,"Same",0,"Novel25",1,"Novel25",2,1046,"eyescenter",-1,0,1,0,3,FALSE,4,TRUE
"58","A10LLZZHZVGWRW",TRUE,"13:27:37",18,"No-Social","Three",4,5,"Switch",1,"Novel79",2,"Novel106",1,2874,"eyescenter",-1,0,1,0,3,FALSE,4,FALSE
"59","A10LLZZHZVGWRW",TRUE,"13:27:37",19,"No-Social","Three",4,6,"Same",1,"Novel127",3,"Novel127",3,1156,"eyescenter",-1,0,1,0,3,FALSE,4,TRUE
"60","A10LLZZHZVGWRW",TRUE,"13:27:37",20,"No-Social","Three",4,7,"Switch",0,"Novel100",0,"Novel100",1,4893,"eyescenter",-1,0,1,0,3,FALSE,4,TRUE
"61","A10VJC5VW0IBYK",TRUE,"18:33:45",1,"No-Social","Seven",4,0,"Switch",1,"squirrel",0,"",0,4228,"eyescenter",-1,0,0,1,7,FALSE,4,FALSE
"62","A10VJC5VW0IBYK",TRUE,"18:33:45",2,"No-Social","Seven",4,0,"Switch",1,"squirrel",0,"",0,1929,"eyescenter",-1,0,0,1,7,FALSE,4,FALSE
"63","A10VJC5VW0IBYK",TRUE,"18:33:45",3,"No-Social","Seven",4,0,"Switch",1,"tomato",1,"",0,1497,"eyescenter",-1,0,0,1,7,FALSE,4,FALSE
"64","A10VJC5VW0IBYK",TRUE,"18:33:45",4,"No-Social","Seven",4,0,"Switch",1,"tomato",2,"",0,1591,"eyescenter",-1,0,0,1,7,FALSE,4,FALSE
"65","A10VJC5VW0IBYK",TRUE,"18:33:45",5,"No-Social","Seven",4,0,"Switch",1,"Novel44",0,"Novel67",2,7365,"eyescenter",-1,1,0,0,7,FALSE,4,FALSE
"66","A10VJC5VW0IBYK",TRUE,"18:33:45",6,"No-Social","Seven",4,1,"Same",0,"Novel47",0,"Novel47",0,5146,"eyescenter",-1,1,0,0,7,FALSE,4,TRUE
"67","A10VJC5VW0IBYK",TRUE,"18:33:45",7,"No-Social","Seven",4,2,"Switch",0,"Novel90",2,"Novel95",1,6017,"eyescenter",-1,1,0,0,7,FALSE,4,FALSE
"68","A10VJC5VW0IBYK",TRUE,"18:33:45",8,"No-Social","Seven",4,3,"Same",1,"Novel60",0,"Novel60",0,10058,"eyescenter",-1,1,0,0,7,FALSE,4,TRUE
"69","A10VJC5VW0IBYK",TRUE,"18:33:45",9,"No-Social","Seven",4,4,"Switch",0,"Novel70",1,"Novel105",0,2802,"eyescenter",-1,1,0,0,7,FALSE,4,FALSE
"70","A10VJC5VW0IBYK",TRUE,"18:33:45",10,"No-Social","Seven",4,5,"Same",1,"Novel17",3,"Novel17",3,4922,"eyescenter",-1,1,0,0,7,FALSE,4,TRUE
"71","A10VJC5VW0IBYK",TRUE,"18:33:45",11,"No-Social","Seven",4,6,"Switch",1,"Novel45",2,"Novel68",0,3274,"eyescenter",-1,1,0,0,7,FALSE,4,FALSE
"72","A10VJC5VW0IBYK",TRUE,"18:33:45",12,"No-Social","Seven",4,7,"Same",0,"Novel27",0,"Novel27",0,5218,"eyescenter",-1,1,0,0,7,FALSE,4,TRUE
"73","A10VJC5VW0IBYK",TRUE,"18:33:45",13,"No-Social","Seven",4,0,"Switch",1,"Novel67",2,"Novel67",2,5329,"eyescenter",-1,0,1,0,7,TRUE,4,TRUE
"74","A10VJC5VW0IBYK",TRUE,"18:33:45",14,"No-Social","Seven",4,1,"Same",0,"Novel47",2,"Novel47",0,5477,"eyescenter",-1,0,1,0,7,FALSE,4,TRUE
"75","A10VJC5VW0IBYK",TRUE,"18:33:45",15,"No-Social","Seven",4,2,"Switch",0,"Novel95",0,"Novel95",1,3387,"eyescenter",-1,0,1,0,7,FALSE,4,TRUE
"76","A10VJC5VW0IBYK",TRUE,"18:33:45",16,"No-Social","Seven",4,3,"Same",1,"Novel60",0,"Novel60",0,3857,"eyescenter",-1,0,1,0,7,FALSE,4,TRUE
"77","A10VJC5VW0IBYK",TRUE,"18:33:45",17,"No-Social","Seven",4,4,"Switch",0,"Novel33",2,"Novel105",0,5339,"eyescenter",-1,0,1,0,7,FALSE,4,FALSE
"78","A10VJC5VW0IBYK",TRUE,"18:33:45",18,"No-Social","Seven",4,5,"Same",1,"Novel17",3,"Novel17",3,2765,"eyescenter",-1,0,1,0,7,FALSE,4,TRUE
"79","A10VJC5VW0IBYK",TRUE,"18:33:45",19,"No-Social","Seven",4,6,"Switch",1,"Novel68",0,"Novel68",0,5526,"eyescenter",-1,0,1,0,7,FALSE,4,TRUE
"80","A10VJC5VW0IBYK",TRUE,"18:33:45",20,"No-Social","Seven",4,7,"Same",0,"Novel27",2,"Novel27",0,3605,"eyescenter",-1,0,1,0,7,FALSE,4,TRUE
"81","A10XYFXQYJKBXF",TRUE,"03:15:14",1,"Social","Three",4,0,"Switch",0,"squirrel",0,"",0,7281,"eyescenter",-1,0,0,1,3,FALSE,4,FALSE
"82","A10XYFXQYJKBXF",TRUE,"03:15:14",2,"Social","Three",4,0,"Switch",0,"squirrel",0,"",0,2061,"eyescenter",-1,0,0,1,3,FALSE,4,FALSE
"83","A10XYFXQYJKBXF",TRUE,"03:15:14",3,"Social","Three",4,0,"Switch",0,"tomato",1,"",0,1999,"eyescenter",-1,0,0,1,3,FALSE,4,FALSE
"84","A10XYFXQYJKBXF",TRUE,"03:15:14",4,"Social","Three",4,0,"Switch",0,"tomato",2,"",0,1735,"eyescenter",-1,0,0,1,3,FALSE,4,FALSE
"85","A10XYFXQYJKBXF",TRUE,"03:15:14",5,"Social","Three",4,0,"Switch",0,"Novel92",3,"Novel135",2,5813,"eyes_down_right",2,1,0,0,3,FALSE,4,FALSE
"86","A10XYFXQYJKBXF",TRUE,"03:15:14",6,"Social","Three",4,1,"Same",1,"Novel124",1,"Novel124",1,4130,"eyes_right",3,1,0,0,3,FALSE,4,TRUE
"87","A10XYFXQYJKBXF",TRUE,"03:15:14",7,"Social","Three",4,2,"Switch",1,"Novel35",3,"Novel4",0,3172,"eyes_right",3,1,0,0,3,FALSE,4,FALSE
"88","A10XYFXQYJKBXF",TRUE,"03:15:14",8,"Social","Three",4,3,"Same",1,"Novel105",2,"Novel105",2,4626,"eyes_down_right",2,1,0,0,3,FALSE,4,TRUE
"89","A10XYFXQYJKBXF",TRUE,"03:15:14",9,"Social","Three",4,0,"Switch",0,"Novel126",2,"Novel135",2,4690,"eyescenter",-1,0,1,0,3,TRUE,4,FALSE
"90","A10XYFXQYJKBXF",TRUE,"03:15:14",10,"Social","Three",4,1,"Same",1,"Novel124",1,"Novel124",1,1688,"eyescenter",-1,0,1,0,3,FALSE,4,TRUE
"91","A10XYFXQYJKBXF",TRUE,"03:15:14",11,"Social","Three",4,2,"Switch",1,"Novel60",3,"Novel4",0,4658,"eyescenter",-1,0,1,0,3,FALSE,4,FALSE
"92","A10XYFXQYJKBXF",TRUE,"03:15:14",12,"Social","Three",4,3,"Same",1,"Novel105",2,"Novel105",2,1791,"eyescenter",-1,0,1,0,3,FALSE,4,TRUE
"93","A10XYFXQYJKBXF",TRUE,"03:15:14",13,"Social","Three",4,4,"Switch",1,"Novel115",3,"Novel58",0,2686,"eyes_right",3,1,0,0,3,FALSE,4,FALSE
"94","A10XYFXQYJKBXF",TRUE,"03:15:14",14,"Social","Three",4,5,"Same",0,"Novel32",0,"Novel32",0,3449,"eyes_left",0,1,0,0,3,FALSE,4,TRUE
"95","A10XYFXQYJKBXF",TRUE,"03:15:14",15,"Social","Three",4,6,"Switch",0,"Novel55",2,"Novel42",0,995,"eyes_down_right",2,1,0,0,3,FALSE,4,FALSE
"96","A10XYFXQYJKBXF",TRUE,"03:15:14",16,"Social","Three",4,7,"Same",0,"Novel9",2,"Novel9",2,2445,"eyes_down_right",2,1,0,0,3,FALSE,4,TRUE
"97","A10XYFXQYJKBXF",TRUE,"03:15:14",17,"Social","Three",4,4,"Switch",1,"Novel102",1,"Novel58",0,3018,"eyescenter",-1,0,1,0,3,FALSE,4,FALSE
"98","A10XYFXQYJKBXF",TRUE,"03:15:14",18,"Social","Three",4,5,"Same",0,"Novel32",2,"Novel32",0,1818,"eyescenter",-1,0,1,0,3,FALSE,4,TRUE
"99","A10XYFXQYJKBXF",TRUE,"03:15:14",19,"Social","Three",4,6,"Switch",0,"Novel17",3,"Novel42",0,3200,"eyescenter",-1,0,1,0,3,FALSE,4,FALSE
"100","A10XYFXQYJKBXF",TRUE,"03:15:14",20,"Social","Three",4,7,"Same",0,"Novel9",3,"Novel9",2,6051,"eyescenter",-1,0,1,0,3,FALSE,4,TRUE
"101","A11WZN316TJ69L",TRUE,"17:22:27",1,"Social","Zero",4,0,"Same",1,"squirrel",0,"",0,4300,"eyescenter",-1,0,0,1,0,FALSE,4,FALSE
"102","A11WZN316TJ69L",TRUE,"17:22:27",2,"Social","Zero",4,0,"Same",1,"squirrel",0,"",0,647,"eyescenter",-1,0,0,1,0,FALSE,4,FALSE
"103","A11WZN316TJ69L",TRUE,"17:22:27",3,"Social","Zero",4,0,"Same",1,"tomato",1,"",0,1363,"eyescenter",-1,0,0,1,0,FALSE,4,FALSE
"104","A11WZN316TJ69L",TRUE,"17:22:27",4,"Social","Zero",4,0,"Same",1,"tomato",2,"",0,1102,"eyescenter",-1,0,0,1,0,FALSE,4,FALSE
"105","A11WZN316TJ69L",TRUE,"17:22:27",5,"Social","Zero",4,0,"Same",1,"Novel22",1,"Novel22",1,1531,"eyes_down_left",1,1,0,0,0,FALSE,4,TRUE
"106","A11WZN316TJ69L",TRUE,"17:22:27",6,"Social","Zero",4,0,"Same",1,"Novel22",1,"Novel22",1,1168,"eyescenter",-1,0,1,0,0,TRUE,4,TRUE
"107","A11WZN316TJ69L",TRUE,"17:22:27",7,"Social","Zero",4,1,"Switch",0,"Novel79",3,"Novel24",0,1781,"eyes_right",3,1,0,0,0,FALSE,4,FALSE
"108","A11WZN316TJ69L",TRUE,"17:22:27",8,"Social","Zero",4,1,"Switch",0,"Novel72",3,"Novel24",0,936,"eyescenter",-1,0,1,0,0,FALSE,4,FALSE
"109","A11WZN316TJ69L",TRUE,"17:22:27",9,"Social","Zero",4,2,"Same",0,"Novel28",3,"Novel28",3,1783,"eyes_right",3,1,0,0,0,FALSE,4,TRUE
"110","A11WZN316TJ69L",TRUE,"17:22:27",10,"Social","Zero",4,2,"Same",0,"Novel71",3,"Novel28",3,1016,"eyescenter",-1,0,1,0,0,FALSE,4,FALSE
"111","A11WZN316TJ69L",TRUE,"17:22:27",11,"Social","Zero",4,3,"Switch",0,"Novel35",2,"Novel33",3,463,"eyes_down_right",2,1,0,0,0,FALSE,4,FALSE
"112","A11WZN316TJ69L",TRUE,"17:22:27",12,"Social","Zero",4,3,"Switch",0,"Novel33",2,"Novel33",3,2577,"eyescenter",-1,0,1,0,0,FALSE,4,TRUE
"113","A11WZN316TJ69L",TRUE,"17:22:27",13,"Social","Zero",4,4,"Same",0,"Novel86",1,"Novel86",1,1416,"eyes_down_left",1,1,0,0,0,FALSE,4,TRUE
"114","A11WZN316TJ69L",TRUE,"17:22:27",14,"Social","Zero",4,4,"Same",0,"Novel86",3,"Novel86",1,879,"eyescenter",-1,0,1,0,0,FALSE,4,TRUE
"115","A11WZN316TJ69L",TRUE,"17:22:27",15,"Social","Zero",4,5,"Switch",1,"Novel118",3,"Novel3",0,1471,"eyes_right",3,1,0,0,0,FALSE,4,FALSE
"116","A11WZN316TJ69L",TRUE,"17:22:27",16,"Social","Zero",4,5,"Switch",1,"Novel89",3,"Novel3",0,4454,"eyescenter",-1,0,1,0,0,FALSE,4,FALSE
"117","A11WZN316TJ69L",TRUE,"17:22:27",17,"Social","Zero",4,6,"Same",1,"Novel23",3,"Novel23",3,1477,"eyes_right",3,1,0,0,0,FALSE,4,TRUE
"118","A11WZN316TJ69L",TRUE,"17:22:27",18,"Social","Zero",4,6,"Same",1,"Novel23",3,"Novel23",3,897,"eyescenter",-1,0,1,0,0,FALSE,4,TRUE
"119","A11WZN316TJ69L",TRUE,"17:22:27",19,"Social","Zero",4,7,"Switch",1,"Novel101",0,"Novel107",3,459,"eyes_left",0,1,0,0,0,FALSE,4,FALSE
"120","A11WZN316TJ69L",TRUE,"17:22:27",20,"Social","Zero",4,7,"Switch",1,"Novel2",1,"Novel107",3,7534,"eyescenter",-1,0,1,0,0,FALSE,4,FALSE
"121","A12J4IRF5Z06BT",TRUE,"02:36:31",1,"Social","One",4,0,"Switch",0,"squirrel",0,"",0,2377,"eyescenter",-1,0,0,1,1,FALSE,4,FALSE
"122","A12J4IRF5Z06BT",TRUE,"02:36:31",2,"Social","One",4,0,"Switch",0,"squirrel",0,"",0,1575,"eyescenter",-1,0,0,1,1,FALSE,4,FALSE
"123","A12J4IRF5Z06BT",TRUE,"02:36:31",3,"Social","One",4,0,"Switch",0,"tomato",1,"",0,1610,"eyescenter",-1,0,0,1,1,FALSE,4,FALSE
"124","A12J4IRF5Z06BT",TRUE,"02:36:31",4,"Social","One",4,0,"Switch",0,"tomato",2,"",0,1458,"eyescenter",-1,0,0,1,1,FALSE,4,FALSE
"125","A12J4IRF5Z06BT",TRUE,"02:36:31",5,"Social","One",4,0,"Switch",0,"Novel41",1,"Novel30",2,6008,"eyes_down_left",1,1,0,0,1,FALSE,4,FALSE
"126","A12J4IRF5Z06BT",TRUE,"02:36:31",6,"Social","One",4,1,"Same",1,"Novel132",1,"Novel132",1,3901,"eyes_down_right",2,1,0,0,1,FALSE,4,TRUE
"127","A12J4IRF5Z06BT",TRUE,"02:36:31",7,"Social","One",4,0,"Switch",0,"Novel30",0,"Novel30",2,4922,"eyescenter",-1,0,1,0,1,TRUE,4,TRUE
"128","A12J4IRF5Z06BT",TRUE,"02:36:31",8,"Social","One",4,1,"Same",1,"Novel132",1,"Novel132",1,2380,"eyescenter",-1,0,1,0,1,FALSE,4,TRUE
"129","A12J4IRF5Z06BT",TRUE,"02:36:31",9,"Social","One",4,2,"Switch",1,"Novel124",3,"Novel47",1,2542,"eyes_right",3,1,0,0,1,FALSE,4,FALSE
"130","A12J4IRF5Z06BT",TRUE,"02:36:31",10,"Social","One",4,3,"Same",0,"Novel65",1,"Novel65",1,3330,"eyes_down_left",1,1,0,0,1,FALSE,4,TRUE
"131","A12J4IRF5Z06BT",TRUE,"02:36:31",11,"Social","One",4,2,"Switch",1,"Novel66",3,"Novel47",1,4465,"eyescenter",-1,0,1,0,1,FALSE,4,FALSE
"132","A12J4IRF5Z06BT",TRUE,"02:36:31",12,"Social","One",4,3,"Same",0,"Novel65",2,"Novel65",1,1707,"eyescenter",-1,0,1,0,1,FALSE,4,TRUE
"133","A12J4IRF5Z06BT",TRUE,"02:36:31",13,"Social","One",4,4,"Switch",1,"Novel86",2,"Novel7",3,3483,"eyes_left",0,1,0,0,1,FALSE,4,FALSE
"134","A12J4IRF5Z06BT",TRUE,"02:36:31",14,"Social","One",4,5,"Same",1,"Novel11",2,"Novel11",2,2840,"eyes_down_left",1,1,0,0,1,FALSE,4,TRUE
"135","A12J4IRF5Z06BT",TRUE,"02:36:31",15,"Social","One",4,4,"Switch",1,"Novel137",0,"Novel7",3,3598,"eyescenter",-1,0,1,0,1,FALSE,4,FALSE
"136","A12J4IRF5Z06BT",TRUE,"02:36:31",16,"Social","One",4,5,"Same",1,"Novel11",2,"Novel11",2,2075,"eyescenter",-1,0,1,0,1,FALSE,4,TRUE
"137","A12J4IRF5Z06BT",TRUE,"02:36:31",17,"Social","One",4,6,"Switch",0,"Novel5",3,"Novel85",2,7163,"eyes_down_right",2,1,0,0,1,FALSE,4,FALSE
"138","A12J4IRF5Z06BT",TRUE,"02:36:31",18,"Social","One",4,7,"Same",0,"Novel129",0,"Novel129",0,3423,"eyes_down_left",1,1,0,0,1,FALSE,4,TRUE
"139","A12J4IRF5Z06BT",TRUE,"02:36:31",19,"Social","One",4,6,"Switch",0,"Novel27",1,"Novel85",2,3866,"eyescenter",-1,0,1,0,1,FALSE,4,FALSE
"140","A12J4IRF5Z06BT",TRUE,"02:36:31",20,"Social","One",4,7,"Same",0,"Novel129",2,"Novel129",0,2161,"eyescenter",-1,0,1,0,1,FALSE,4,TRUE
"141","A12JOUOLFBPCXW",TRUE,"02:57:37",1,"No-Social","Seven",4,0,"Same",0,"squirrel",0,"",0,1504,"eyescenter",-1,0,0,1,7,FALSE,4,FALSE
"142","A12JOUOLFBPCXW",TRUE,"02:57:37",2,"No-Social","Seven",4,0,"Same",0,"squirrel",0,"",0,1517,"eyescenter",-1,0,0,1,7,FALSE,4,FALSE
"143","A12JOUOLFBPCXW",TRUE,"02:57:37",3,"No-Social","Seven",4,0,"Same",0,"tomato",1,"",0,1737,"eyescenter",-1,0,0,1,7,FALSE,4,FALSE
"144","A12JOUOLFBPCXW",TRUE,"02:57:37",4,"No-Social","Seven",4,0,"Same",0,"tomato",2,"",0,1500,"eyescenter",-1,0,0,1,7,FALSE,4,FALSE
"145","A12JOUOLFBPCXW",TRUE,"02:57:37",5,"No-Social","Seven",4,0,"Same",0,"Novel112",0,"Novel112",0,13290,"eyescenter",-1,1,0,0,7,FALSE,4,TRUE
"146","A12JOUOLFBPCXW",TRUE,"02:57:37",6,"No-Social","Seven",4,1,"Switch",1,"Novel64",2,"Novel130",3,7167,"eyescenter",-1,1,0,0,7,FALSE,4,FALSE
"147","A12JOUOLFBPCXW",TRUE,"02:57:37",7,"No-Social","Seven",4,2,"Same",0,"Novel52",0,"Novel52",0,4871,"eyescenter",-1,1,0,0,7,FALSE,4,TRUE
"148","A12JOUOLFBPCXW",TRUE,"02:57:37",8,"No-Social","Seven",4,3,"Switch",0,"Novel129",3,"Novel140",1,2650,"eyescenter",-1,1,0,0,7,FALSE,4,FALSE
"149","A12JOUOLFBPCXW",TRUE,"02:57:37",9,"No-Social","Seven",4,4,"Same",1,"Novel36",0,"Novel36",0,3763,"eyescenter",-1,1,0,0,7,FALSE,4,TRUE
"150","A12JOUOLFBPCXW",TRUE,"02:57:37",10,"No-Social","Seven",4,5,"Switch",0,"Novel72",3,"Novel139",1,4677,"eyescenter",-1,1,0,0,7,FALSE,4,FALSE
"151","A12JOUOLFBPCXW",TRUE,"02:57:37",11,"No-Social","Seven",4,6,"Same",1,"Novel68",3,"Novel68",3,2991,"eyescenter",-1,1,0,0,7,FALSE,4,TRUE
"152","A12JOUOLFBPCXW",TRUE,"02:57:37",12,"No-Social","Seven",4,7,"Switch",1,"Novel83",1,"Novel133",3,5861,"eyescenter",-1,1,0,0,7,FALSE,4,FALSE
"153","A12JOUOLFBPCXW",TRUE,"02:57:37",13,"No-Social","Seven",4,0,"Same",0,"Novel28",3,"Novel112",0,2353,"eyescenter",-1,0,1,0,7,TRUE,4,FALSE
"154","A12JOUOLFBPCXW",TRUE,"02:57:37",14,"No-Social","Seven",4,1,"Switch",1,"Novel85",0,"Novel130",3,2397,"eyescenter",-1,0,1,0,7,FALSE,4,FALSE
"155","A12JOUOLFBPCXW",TRUE,"02:57:37",15,"No-Social","Seven",4,2,"Same",0,"Novel124",2,"Novel52",0,3263,"eyescenter",-1,0,1,0,7,FALSE,4,FALSE
"156","A12JOUOLFBPCXW",TRUE,"02:57:37",16,"No-Social","Seven",4,3,"Switch",0,"Novel118",1,"Novel140",1,2821,"eyescenter",-1,0,1,0,7,FALSE,4,FALSE
"157","A12JOUOLFBPCXW",TRUE,"02:57:37",17,"No-Social","Seven",4,4,"Same",1,"Novel36",0,"Novel36",0,3143,"eyescenter",-1,0,1,0,7,FALSE,4,TRUE
"158","A12JOUOLFBPCXW",TRUE,"02:57:37",18,"No-Social","Seven",4,5,"Switch",0,"Novel19",2,"Novel139",1,4728,"eyescenter",-1,0,1,0,7,FALSE,4,FALSE
"159","A12JOUOLFBPCXW",TRUE,"02:57:37",19,"No-Social","Seven",4,6,"Same",1,"Novel68",3,"Novel68",3,2174,"eyescenter",-1,0,1,0,7,FALSE,4,TRUE
"160","A12JOUOLFBPCXW",TRUE,"02:57:37",20,"No-Social","Seven",4,7,"Switch",1,"Novel133",3,"Novel133",3,3552,"eyescenter",-1,0,1,0,7,FALSE,4,TRUE
"161","A130X6CF795CQ5",TRUE,"13:46:54",1,"No-Social","Seven",4,0,"Switch",0,"squirrel",0,"",0,2245,"eyescenter",-1,0,0,1,7,FALSE,4,FALSE
"162","A130X6CF795CQ5",TRUE,"13:46:54",2,"No-Social","Seven",4,0,"Switch",0,"squirrel",0,"",0,994,"eyescenter",-1,0,0,1,7,FALSE,4,FALSE
"163","A130X6CF795CQ5",TRUE,"13:46:54",3,"No-Social","Seven",4,0,"Switch",0,"tomato",1,"",0,1412,"eyescenter",-1,0,0,1,7,FALSE,4,FALSE
"164","A130X6CF795CQ5",TRUE,"13:46:54",4,"No-Social","Seven",4,0,"Switch",0,"tomato",2,"",0,1276,"eyescenter",-1,0,0,1,7,FALSE,4,FALSE
"165","A130X6CF795CQ5",TRUE,"13:46:54",5,"No-Social","Seven",4,0,"Switch",0,"Novel15",3,"Novel37",1,4094,"eyescenter",-1,1,0,0,7,FALSE,4,FALSE
"166","A130X6CF795CQ5",TRUE,"13:46:54",6,"No-Social","Seven",4,1,"Same",1,"Novel128",2,"Novel128",2,6694,"eyescenter",-1,1,0,0,7,FALSE,4,TRUE
"167","A130X6CF795CQ5",TRUE,"13:46:54",7,"No-Social","Seven",4,2,"Switch",0,"Novel12",0,"Novel86",2,4100,"eyescenter",-1,1,0,0,7,FALSE,4,FALSE
"168","A130X6CF795CQ5",TRUE,"13:46:54",8,"No-Social","Seven",4,3,"Same",0,"Novel44",3,"Novel44",3,1693,"eyescenter",-1,1,0,0,7,FALSE,4,TRUE
"169","A130X6CF795CQ5",TRUE,"13:46:54",9,"No-Social","Seven",4,4,"Switch",1,"Novel78",3,"Novel127",2,1653,"eyescenter",-1,1,0,0,7,FALSE,4,FALSE
"170","A130X6CF795CQ5",TRUE,"13:46:54",10,"No-Social","Seven",4,5,"Same",0,"Novel81",3,"Novel81",3,1677,"eyescenter",-1,1,0,0,7,FALSE,4,TRUE
"171","A130X6CF795CQ5",TRUE,"13:46:54",11,"No-Social","Seven",4,6,"Switch",1,"Novel131",1,"Novel80",2,1466,"eyescenter",-1,1,0,0,7,FALSE,4,FALSE
"172","A130X6CF795CQ5",TRUE,"13:46:54",12,"No-Social","Seven",4,7,"Same",1,"Novel60",2,"Novel60",2,1972,"eyescenter",-1,1,0,0,7,FALSE,4,TRUE
"173","A130X6CF795CQ5",TRUE,"13:46:54",13,"No-Social","Seven",4,0,"Switch",0,"Novel37",0,"Novel37",1,1797,"eyescenter",-1,0,1,0,7,TRUE,4,TRUE
"174","A130X6CF795CQ5",TRUE,"13:46:54",14,"No-Social","Seven",4,1,"Same",1,"Novel79",1,"Novel128",2,2883,"eyescenter",-1,0,1,0,7,FALSE,4,FALSE
"175","A130X6CF795CQ5",TRUE,"13:46:54",15,"No-Social","Seven",4,2,"Switch",0,"Novel23",2,"Novel86",2,2724,"eyescenter",-1,0,1,0,7,FALSE,4,FALSE
"176","A130X6CF795CQ5",TRUE,"13:46:54",16,"No-Social","Seven",4,3,"Same",0,"Novel44",2,"Novel44",3,2157,"eyescenter",-1,0,1,0,7,FALSE,4,TRUE
"177","A130X6CF795CQ5",TRUE,"13:46:54",17,"No-Social","Seven",4,4,"Switch",1,"Novel127",2,"Novel127",2,1652,"eyescenter",-1,0,1,0,7,FALSE,4,TRUE
"178","A130X6CF795CQ5",TRUE,"13:46:54",18,"No-Social","Seven",4,5,"Same",0,"Novel81",2,"Novel81",3,1507,"eyescenter",-1,0,1,0,7,FALSE,4,TRUE
"179","A130X6CF795CQ5",TRUE,"13:46:54",19,"No-Social","Seven",4,6,"Switch",1,"Novel27",1,"Novel80",2,2796,"eyescenter",-1,0,1,0,7,FALSE,4,FALSE
"180","A130X6CF795CQ5",TRUE,"13:46:54",20,"No-Social","Seven",4,7,"Same",1,"Novel60",2,"Novel60",2,941,"eyescenter",-1,0,1,0,7,FALSE,4,TRUE
"181","A13O9WCAZNIFYN",TRUE,"03:16:42",1,"Social","Seven",4,0,"Same",0,"squirrel",0,"",0,2397,"eyescenter",-1,0,0,1,7,FALSE,4,FALSE
"182","A13O9WCAZNIFYN",TRUE,"03:16:42",2,"Social","Seven",4,0,"Same",0,"squirrel",0,"",0,1810,"eyescenter",-1,0,0,1,7,FALSE,4,FALSE
"183","A13O9WCAZNIFYN",TRUE,"03:16:42",3,"Social","Seven",4,0,"Same",0,"tomato",1,"",0,2104,"eyescenter",-1,0,0,1,7,FALSE,4,FALSE
"184","A13O9WCAZNIFYN",TRUE,"03:16:42",4,"Social","Seven",4,0,"Same",0,"tomato",2,"",0,1102,"eyescenter",-1,0,0,1,7,FALSE,4,FALSE
"185","A13O9WCAZNIFYN",TRUE,"03:16:42",5,"Social","Seven",4,0,"Same",0,"Novel121",0,"Novel121",0,4822,"eyes_down_right",2,1,0,0,7,FALSE,4,TRUE
"186","A13O9WCAZNIFYN",TRUE,"03:16:42",6,"Social","Seven",4,1,"Switch",1,"Novel15",0,"Novel68",3,3342,"eyes_down_left",1,1,0,0,7,FALSE,4,FALSE
"187","A13O9WCAZNIFYN",TRUE,"03:16:42",7,"Social","Seven",4,2,"Same",1,"Novel70",0,"Novel70",0,1881,"eyes_left",0,1,0,0,7,FALSE,4,TRUE
"188","A13O9WCAZNIFYN",TRUE,"03:16:42",8,"Social","Seven",4,3,"Switch",1,"Novel3",2,"Novel27",1,1917,"eyes_right",3,1,0,0,7,FALSE,4,FALSE
"189","A13O9WCAZNIFYN",TRUE,"03:16:42",9,"Social","Seven",4,4,"Same",1,"Novel60",2,"Novel60",2,1417,"eyes_right",3,1,0,0,7,FALSE,4,TRUE
"190","A13O9WCAZNIFYN",TRUE,"03:16:42",10,"Social","Seven",4,5,"Switch",0,"Novel33",0,"Novel19",2,1226,"eyes_left",0,1,0,0,7,FALSE,4,FALSE
"191","A13O9WCAZNIFYN",TRUE,"03:16:42",11,"Social","Seven",4,6,"Same",0,"Novel127",0,"Novel127",0,1475,"eyes_down_left",1,1,0,0,7,FALSE,4,TRUE
"192","A13O9WCAZNIFYN",TRUE,"03:16:42",12,"Social","Seven",4,7,"Switch",0,"Novel119",2,"Novel62",3,933,"eyes_down_right",2,1,0,0,7,FALSE,4,FALSE
"193","A13O9WCAZNIFYN",TRUE,"03:16:42",13,"Social","Seven",4,0,"Same",0,"Novel51",0,"Novel121",0,6370,"eyescenter",-1,0,1,0,7,TRUE,4,FALSE
"194","A13O9WCAZNIFYN",TRUE,"03:16:42",14,"Social","Seven",4,1,"Switch",1,"Novel138",1,"Novel68",3,3775,"eyescenter",-1,0,1,0,7,FALSE,4,FALSE
"195","A13O9WCAZNIFYN",TRUE,"03:16:42",15,"Social","Seven",4,2,"Same",1,"Novel70",0,"Novel70",0,1373,"eyescenter",-1,0,1,0,7,FALSE,4,TRUE
"196","A13O9WCAZNIFYN",TRUE,"03:16:42",16,"Social","Seven",4,3,"Switch",1,"Novel27",1,"Novel27",1,2863,"eyescenter",-1,0,1,0,7,FALSE,4,TRUE
"197","A13O9WCAZNIFYN",TRUE,"03:16:42",17,"Social","Seven",4,4,"Same",1,"Novel60",2,"Novel60",2,1084,"eyescenter",-1,0,1,0,7,FALSE,4,TRUE
"198","A13O9WCAZNIFYN",TRUE,"03:16:42",18,"Social","Seven",4,5,"Switch",0,"Novel112",1,"Novel19",2,1840,"eyescenter",-1,0,1,0,7,FALSE,4,FALSE
"199","A13O9WCAZNIFYN",TRUE,"03:16:42",19,"Social","Seven",4,6,"Same",0,"Novel127",2,"Novel127",0,4106,"eyescenter",-1,0,1,0,7,FALSE,4,TRUE
"200","A13O9WCAZNIFYN",TRUE,"03:16:42",20,"Social","Seven",4,7,"Switch",0,"Novel62",1,"Novel62",3,2416,"eyescenter",-1,0,1,0,7,FALSE,4,TRUE
"201","A14BVED75ZFI4O",TRUE,"03:10:34",1,"No-Social","Three",4,0,"Switch",1,"squirrel",0,"",0,1638,"eyescenter",-1,0,0,1,3,FALSE,4,FALSE
"202","A14BVED75ZFI4O",TRUE,"03:10:34",2,"No-Social","Three",4,0,"Switch",1,"squirrel",0,"",0,1278,"eyescenter",-1,0,0,1,3,FALSE,4,FALSE
"203","A14BVED75ZFI4O",TRUE,"03:10:34",3,"No-Social","Three",4,0,"Switch",1,"tomato",1,"",0,1260,"eyescenter",-1,0,0,1,3,FALSE,4,FALSE
"204","A14BVED75ZFI4O",TRUE,"03:10:34",4,"No-Social","Three",4,0,"Switch",1,"tomato",2,"",0,1126,"eyescenter",-1,0,0,1,3,FALSE,4,FALSE
"205","A14BVED75ZFI4O",TRUE,"03:10:34",5,"No-Social","Three",4,0,"Switch",1,"Novel105",0,"Novel107",3,9017,"eyescenter",-1,1,0,0,3,FALSE,4,FALSE
"206","A14BVED75ZFI4O",TRUE,"03:10:34",6,"No-Social","Three",4,1,"Same",1,"Novel57",1,"Novel57",1,3759,"eyescenter",-1,1,0,0,3,FALSE,4,TRUE
"207","A14BVED75ZFI4O",TRUE,"03:10:34",7,"No-Social","Three",4,2,"Switch",1,"Novel73",0,"Novel25",1,3966,"eyescenter",-1,1,0,0,3,FALSE,4,FALSE
"208","A14BVED75ZFI4O",TRUE,"03:10:34",8,"No-Social","Three",4,3,"Same",0,"Novel3",1,"Novel3",1,3407,"eyescenter",-1,1,0,0,3,FALSE,4,TRUE
"209","A14BVED75ZFI4O",TRUE,"03:10:34",9,"No-Social","Three",4,0,"Switch",1,"Novel20",0,"Novel107",3,5051,"eyescenter",-1,0,1,0,3,TRUE,4,FALSE
"210","A14BVED75ZFI4O",TRUE,"03:10:34",10,"No-Social","Three",4,1,"Same",1,"Novel88",2,"Novel57",1,1990,"eyescenter",-1,0,1,0,3,FALSE,4,FALSE
"211","A14BVED75ZFI4O",TRUE,"03:10:34",11,"No-Social","Three",4,2,"Switch",1,"Novel25",1,"Novel25",1,1381,"eyescenter",-1,0,1,0,3,FALSE,4,TRUE
"212","A14BVED75ZFI4O",TRUE,"03:10:34",12,"No-Social","Three",4,3,"Same",0,"Novel116",2,"Novel3",1,1762,"eyescenter",-1,0,1,0,3,FALSE,4,FALSE
"213","A14BVED75ZFI4O",TRUE,"03:10:34",13,"No-Social","Three",4,4,"Switch",0,"Novel52",1,"Novel42",2,3469,"eyescenter",-1,1,0,0,3,FALSE,4,FALSE
"214","A14BVED75ZFI4O",TRUE,"03:10:34",14,"No-Social","Three",4,5,"Same",0,"Novel108",1,"Novel108",1,3511,"eyescenter",-1,1,0,0,3,FALSE,4,TRUE
"215","A14BVED75ZFI4O",TRUE,"03:10:34",15,"No-Social","Three",4,6,"Switch",0,"Novel102",3,"Novel66",1,3056,"eyescenter",-1,1,0,0,3,FALSE,4,FALSE
"216","A14BVED75ZFI4O",TRUE,"03:10:34",16,"No-Social","Three",4,7,"Same",1,"Novel14",0,"Novel14",0,2949,"eyescenter",-1,1,0,0,3,FALSE,4,TRUE
"217","A14BVED75ZFI4O",TRUE,"03:10:34",17,"No-Social","Three",4,4,"Switch",0,"Novel33",3,"Novel42",2,2670,"eyescenter",-1,0,1,0,3,FALSE,4,FALSE
"218","A14BVED75ZFI4O",TRUE,"03:10:34",18,"No-Social","Three",4,5,"Same",0,"Novel108",0,"Novel108",1,2063,"eyescenter",-1,0,1,0,3,FALSE,4,TRUE
"219","A14BVED75ZFI4O",TRUE,"03:10:34",19,"No-Social","Three",4,6,"Switch",0,"Novel48",2,"Novel66",1,1941,"eyescenter",-1,0,1,0,3,FALSE,4,FALSE
"220","A14BVED75ZFI4O",TRUE,"03:10:34",20,"No-Social","Three",4,7,"Same",1,"Novel82",3,"Novel14",0,3169,"eyescenter",-1,0,1,0,3,FALSE,4,FALSE
"221","A16S0KKQ2MIZHT",TRUE,"02:54:18",1,"Social","Three",4,0,"Switch",1,"squirrel",0,"",0,4829,"eyescenter",-1,0,0,1,3,FALSE,4,FALSE
"222","A16S0KKQ2MIZHT",TRUE,"02:54:18",2,"Social","Three",4,0,"Switch",1,"squirrel",0,"",0,655,"eyescenter",-1,0,0,1,3,FALSE,4,FALSE
"223","A16S0KKQ2MIZHT",TRUE,"02:54:18",3,"Social","Three",4,0,"Switch",1,"tomato",1,"",0,940,"eyescenter",-1,0,0,1,3,FALSE,4,FALSE
"224","A16S0KKQ2MIZHT",TRUE,"02:54:18",4,"Social","Three",4,0,"Switch",1,"tomato",2,"",0,878,"eyescenter",-1,0,0,1,3,FALSE,4,FALSE
"225","A16S0KKQ2MIZHT",TRUE,"02:54:18",5,"Social","Three",4,0,"Switch",1,"Novel133",1,"Novel78",2,3066,"eyes_down_left",1,1,0,0,3,FALSE,4,FALSE
"226","A16S0KKQ2MIZHT",TRUE,"02:54:18",6,"Social","Three",4,1,"Same",0,"Novel115",3,"Novel115",3,1783,"eyes_right",3,1,0,0,3,FALSE,4,TRUE
"227","A16S0KKQ2MIZHT",TRUE,"02:54:18",7,"Social","Three",4,2,"Switch",0,"Novel73",0,"Novel122",1,835,"eyes_left",0,1,0,0,3,FALSE,4,FALSE
"228","A16S0KKQ2MIZHT",TRUE,"02:54:18",8,"Social","Three",4,3,"Same",0,"Novel29",3,"Novel29",3,1406,"eyes_right",3,1,0,0,3,FALSE,4,TRUE
"229","A16S0KKQ2MIZHT",TRUE,"02:54:18",9,"Social","Three",4,0,"Switch",1,"Novel84",1,"Novel78",2,5917,"eyescenter",-1,0,1,0,3,TRUE,4,FALSE
"230","A16S0KKQ2MIZHT",TRUE,"02:54:18",10,"Social","Three",4,1,"Same",0,"Novel115",2,"Novel115",3,3263,"eyescenter",-1,0,1,0,3,FALSE,4,TRUE
"231","A16S0KKQ2MIZHT",TRUE,"02:54:18",11,"Social","Three",4,2,"Switch",0,"Novel122",3,"Novel122",1,1892,"eyescenter",-1,0,1,0,3,FALSE,4,TRUE
"232","A16S0KKQ2MIZHT",TRUE,"02:54:18",12,"Social","Three",4,3,"Same",0,"Novel29",2,"Novel29",3,1025,"eyescenter",-1,0,1,0,3,FALSE,4,TRUE
"233","A16S0KKQ2MIZHT",TRUE,"02:54:18",13,"Social","Three",4,4,"Switch",0,"Novel56",1,"Novel20",3,608,"eyes_down_left",1,1,0,0,3,FALSE,4,FALSE
"234","A16S0KKQ2MIZHT",TRUE,"02:54:18",14,"Social","Three",4,5,"Same",1,"Novel25",2,"Novel25",2,570,"eyes_down_right",2,1,0,0,3,FALSE,4,TRUE
"235","A16S0KKQ2MIZHT",TRUE,"02:54:18",15,"Social","Three",4,6,"Switch",1,"Novel77",0,"Novel87",3,927,"eyes_left",0,1,0,0,3,FALSE,4,FALSE
"236","A16S0KKQ2MIZHT",TRUE,"02:54:18",16,"Social","Three",4,7,"Same",1,"Novel89",1,"Novel89",1,167,"eyes_down_left",1,1,0,0,3,FALSE,4,TRUE
"237","A16S0KKQ2MIZHT",TRUE,"02:54:18",17,"Social","Three",4,4,"Switch",0,"Novel103",1,"Novel20",3,1617,"eyescenter",-1,0,1,0,3,FALSE,4,FALSE
"238","A16S0KKQ2MIZHT",TRUE,"02:54:18",18,"Social","Three",4,5,"Same",1,"Novel61",3,"Novel25",2,728,"eyescenter",-1,0,1,0,3,FALSE,4,FALSE
"239","A16S0KKQ2MIZHT",TRUE,"02:54:18",19,"Social","Three",4,6,"Switch",1,"Novel71",2,"Novel87",3,672,"eyescenter",-1,0,1,0,3,FALSE,4,FALSE
"240","A16S0KKQ2MIZHT",TRUE,"02:54:18",20,"Social","Three",4,7,"Same",1,"Novel89",1,"Novel89",1,447,"eyescenter",-1,0,1,0,3,FALSE,4,TRUE
"241","A16SR2HQIWRFD6",TRUE,"20:46:13",1,"Social","Three",4,0,"Same",0,"squirrel",0,"",0,1400,"eyescenter",-1,0,0,1,3,FALSE,4,FALSE
"242","A16SR2HQIWRFD6",TRUE,"20:46:13",2,"Social","Three",4,0,"Same",0,"squirrel",0,"",0,1456,"eyescenter",-1,0,0,1,3,FALSE,4,FALSE
"243","A16SR2HQIWRFD6",TRUE,"20:46:13",3,"Social","Three",4,0,"Same",0,"tomato",1,"",0,1347,"eyescenter",-1,0,0,1,3,FALSE,4,FALSE
"244","A16SR2HQIWRFD6",TRUE,"20:46:13",4,"Social","Three",4,0,"Same",0,"tomato",2,"",0,1122,"eyescenter",-1,0,0,1,3,FALSE,4,FALSE
"245","A16SR2HQIWRFD6",TRUE,"20:46:13",5,"Social","Three",4,0,"Same",0,"Novel135",1,"Novel135",1,6649,"eyes_down_left",1,1,0,0,3,FALSE,4,TRUE
"246","A16SR2HQIWRFD6",TRUE,"20:46:13",6,"Social","Three",4,1,"Switch",0,"Novel73",1,"Novel2",2,2764,"eyes_down_left",1,1,0,0,3,FALSE,4,FALSE
"247","A16SR2HQIWRFD6",TRUE,"20:46:13",7,"Social","Three",4,2,"Same",0,"Novel107",1,"Novel107",1,3085,"eyes_down_left",1,1,0,0,3,FALSE,4,TRUE
"248","A16SR2HQIWRFD6",TRUE,"20:46:13",8,"Social","Three",4,3,"Switch",1,"Novel50",0,"Novel89",1,1161,"eyes_left",0,1,0,0,3,FALSE,4,FALSE
"249","A16SR2HQIWRFD6",TRUE,"20:46:13",9,"Social","Three",4,0,"Same",0,"Novel135",3,"Novel135",1,4396,"eyescenter",-1,0,1,0,3,TRUE,4,TRUE
"250","A16SR2HQIWRFD6",TRUE,"20:46:13",10,"Social","Three",4,1,"Switch",0,"Novel44",3,"Novel2",2,5789,"eyescenter",-1,0,1,0,3,FALSE,4,FALSE
"251","A16SR2HQIWRFD6",TRUE,"20:46:13",11,"Social","Three",4,2,"Same",0,"Novel107",0,"Novel107",1,3009,"eyescenter",-1,0,1,0,3,FALSE,4,TRUE
"252","A16SR2HQIWRFD6",TRUE,"20:46:13",12,"Social","Three",4,3,"Switch",1,"Novel89",1,"Novel89",1,4887,"eyescenter",-1,0,1,0,3,FALSE,4,TRUE
"253","A16SR2HQIWRFD6",TRUE,"20:46:13",13,"Social","Three",4,4,"Same",1,"Novel53",0,"Novel53",0,2915,"eyes_left",0,1,0,0,3,FALSE,4,TRUE
"254","A16SR2HQIWRFD6",TRUE,"20:46:13",14,"Social","Three",4,5,"Switch",1,"Novel113",0,"Novel127",2,2072,"eyes_left",0,1,0,0,3,FALSE,4,FALSE
"255","A16SR2HQIWRFD6",TRUE,"20:46:13",15,"Social","Three",4,6,"Same",1,"Novel96",0,"Novel96",0,1164,"eyes_left",0,1,0,0,3,FALSE,4,TRUE
"256","A16SR2HQIWRFD6",TRUE,"20:46:13",16,"Social","Three",4,7,"Switch",0,"Novel76",1,"Novel97",0,907,"eyes_down_left",1,1,0,0,3,FALSE,4,FALSE
"257","A16SR2HQIWRFD6",TRUE,"20:46:13",17,"Social","Three",4,4,"Same",1,"Novel32",3,"Novel53",0,2490,"eyescenter",-1,0,1,0,3,FALSE,4,FALSE
"258","A16SR2HQIWRFD6",TRUE,"20:46:13",18,"Social","Three",4,5,"Switch",1,"Novel110",3,"Novel127",2,2966,"eyescenter",-1,0,1,0,3,FALSE,4,FALSE
"259","A16SR2HQIWRFD6",TRUE,"20:46:13",19,"Social","Three",4,6,"Same",1,"Novel96",0,"Novel96",0,1267,"eyescenter",-1,0,1,0,3,FALSE,4,TRUE
"260","A16SR2HQIWRFD6",TRUE,"20:46:13",20,"Social","Three",4,7,"Switch",0,"Novel67",3,"Novel97",0,2031,"eyescenter",-1,0,1,0,3,FALSE,4,FALSE
"261","A17BQ2QRW1V9AO",TRUE,"04:44:15",1,"No-Social","Zero",4,0,"Switch",1,"squirrel",0,"",0,3316,"eyescenter",-1,0,0,1,0,FALSE,4,FALSE
"262","A17BQ2QRW1V9AO",TRUE,"04:44:15",2,"No-Social","Zero",4,0,"Switch",1,"squirrel",0,"",0,989,"eyescenter",-1,0,0,1,0,FALSE,4,FALSE
"263","A17BQ2QRW1V9AO",TRUE,"04:44:15",3,"No-Social","Zero",4,0,"Switch",1,"tomato",1,"",0,1119,"eyescenter",-1,0,0,1,0,FALSE,4,FALSE
"264","A17BQ2QRW1V9AO",TRUE,"04:44:15",4,"No-Social","Zero",4,0,"Switch",1,"tomato",2,"",0,853,"eyescenter",-1,0,0,1,0,FALSE,4,FALSE
"265","A17BQ2QRW1V9AO",TRUE,"04:44:15",5,"No-Social","Zero",4,0,"Switch",1,"Novel98",0,"Novel87",2,5746,"eyescenter",-1,1,0,0,0,FALSE,4,FALSE
"266","A17BQ2QRW1V9AO",TRUE,"04:44:15",6,"No-Social","Zero",4,0,"Switch",1,"Novel87",2,"Novel87",2,3092,"eyescenter",-1,0,1,0,0,TRUE,4,TRUE
"267","A17BQ2QRW1V9AO",TRUE,"04:44:15",7,"No-Social","Zero",4,1,"Same",1,"Novel37",1,"Novel37",1,4446,"eyescenter",-1,1,0,0,0,FALSE,4,TRUE
"268","A17BQ2QRW1V9AO",TRUE,"04:44:15",8,"No-Social","Zero",4,1,"Same",1,"Novel37",1,"Novel37",1,1956,"eyescenter",-1,0,1,0,0,FALSE,4,TRUE
"269","A17BQ2QRW1V9AO",TRUE,"04:44:15",9,"No-Social","Zero",4,2,"Switch",0,"Novel101",2,"Novel27",1,2942,"eyescenter",-1,1,0,0,0,FALSE,4,FALSE
"270","A17BQ2QRW1V9AO",TRUE,"04:44:15",10,"No-Social","Zero",4,2,"Switch",0,"Novel27",2,"Novel27",1,2095,"eyescenter",-1,0,1,0,0,FALSE,4,TRUE
"271","A17BQ2QRW1V9AO",TRUE,"04:44:15",11,"No-Social","Zero",4,3,"Same",0,"Novel62",2,"Novel62",2,3505,"eyescenter",-1,1,0,0,0,FALSE,4,TRUE
"272","A17BQ2QRW1V9AO",TRUE,"04:44:15",12,"No-Social","Zero",4,3,"Same",0,"Novel62",1,"Novel62",2,949,"eyescenter",-1,0,1,0,0,FALSE,4,TRUE
"273","A17BQ2QRW1V9AO",TRUE,"04:44:15",13,"No-Social","Zero",4,4,"Switch",0,"Novel88",1,"Novel122",2,2139,"eyescenter",-1,1,0,0,0,FALSE,4,FALSE
"274","A17BQ2QRW1V9AO",TRUE,"04:44:15",14,"No-Social","Zero",4,4,"Switch",0,"Novel122",3,"Novel122",2,1961,"eyescenter",-1,0,1,0,0,FALSE,4,TRUE
"275","A17BQ2QRW1V9AO",TRUE,"04:44:15",15,"No-Social","Zero",4,5,"Same",1,"Novel82",3,"Novel82",3,2765,"eyescenter",-1,1,0,0,0,FALSE,4,TRUE
"276","A17BQ2QRW1V9AO",TRUE,"04:44:15",16,"No-Social","Zero",4,5,"Same",1,"Novel82",3,"Novel82",3,1069,"eyescenter",-1,0,1,0,0,FALSE,4,TRUE
"277","A17BQ2QRW1V9AO",TRUE,"04:44:15",17,"No-Social","Zero",4,6,"Switch",1,"Novel111",1,"Novel15",0,2394,"eyescenter",-1,1,0,0,0,FALSE,4,FALSE
"278","A17BQ2QRW1V9AO",TRUE,"04:44:15",18,"No-Social","Zero",4,6,"Switch",1,"Novel15",0,"Novel15",0,1204,"eyescenter",-1,0,1,0,0,FALSE,4,TRUE
"279","A17BQ2QRW1V9AO",TRUE,"04:44:15",19,"No-Social","Zero",4,7,"Same",0,"Novel13",1,"Novel13",1,1717,"eyescenter",-1,1,0,0,0,FALSE,4,TRUE
"280","A17BQ2QRW1V9AO",TRUE,"04:44:15",20,"No-Social","Zero",4,7,"Same",0,"Novel13",2,"Novel13",1,476,"eyescenter",-1,0,1,0,0,FALSE,4,TRUE
"281","A1AX506NAWLFHX",TRUE,"14:27:20",1,"Social","Seven",4,0,"Switch",1,"squirrel",0,"",0,2787,"eyescenter",-1,0,0,1,7,FALSE,4,FALSE
"282","A1AX506NAWLFHX",TRUE,"14:27:20",2,"Social","Seven",4,0,"Switch",1,"squirrel",0,"",0,2063,"eyescenter",-1,0,0,1,7,FALSE,4,FALSE
"283","A1AX506NAWLFHX",TRUE,"14:27:20",3,"Social","Seven",4,0,"Switch",1,"tomato",1,"",0,1323,"eyescenter",-1,0,0,1,7,FALSE,4,FALSE
"284","A1AX506NAWLFHX",TRUE,"14:27:20",4,"Social","Seven",4,0,"Switch",1,"tomato",2,"",0,1019,"eyescenter",-1,0,0,1,7,FALSE,4,FALSE
"285","A1AX506NAWLFHX",TRUE,"14:27:20",5,"Social","Seven",4,0,"Switch",1,"Novel13",2,"Novel66",3,7162,"eyes_down_right",2,1,0,0,7,FALSE,4,FALSE
"286","A1AX506NAWLFHX",TRUE,"14:27:20",6,"Social","Seven",4,1,"Same",1,"Novel12",0,"Novel12",0,1123,"eyes_left",0,1,0,0,7,FALSE,4,TRUE
"287","A1AX506NAWLFHX",TRUE,"14:27:20",7,"Social","Seven",4,2,"Switch",1,"Novel129",2,"Novel122",1,1370,"eyes_down_right",2,1,0,0,7,FALSE,4,FALSE
"288","A1AX506NAWLFHX",TRUE,"14:27:20",8,"Social","Seven",4,3,"Same",0,"Novel17",2,"Novel17",2,1283,"eyes_down_right",2,1,0,0,7,FALSE,4,TRUE
"289","A1AX506NAWLFHX",TRUE,"14:27:20",9,"Social","Seven",4,4,"Switch",0,"Novel128",1,"Novel40",2,1694,"eyes_down_left",1,1,0,0,7,FALSE,4,FALSE
"290","A1AX506NAWLFHX",TRUE,"14:27:20",10,"Social","Seven",4,5,"Same",1,"Novel35",2,"Novel35",2,1110,"eyes_down_right",2,1,0,0,7,FALSE,4,TRUE
"291","A1AX506NAWLFHX",TRUE,"14:27:20",11,"Social","Seven",4,6,"Switch",0,"Novel11",2,"Novel126",3,946,"eyes_down_right",2,1,0,0,7,FALSE,4,FALSE
"292","A1AX506NAWLFHX",TRUE,"14:27:20",12,"Social","Seven",4,7,"Same",0,"Novel97",2,"Novel97",2,948,"eyes_down_right",2,1,0,0,7,FALSE,4,TRUE
"293","A1AX506NAWLFHX",TRUE,"14:27:20",13,"Social","Seven",4,0,"Switch",1,"Novel66",3,"Novel66",3,7266,"eyescenter",-1,0,1,0,7,TRUE,4,TRUE
"294","A1AX506NAWLFHX",TRUE,"14:27:20",14,"Social","Seven",4,1,"Same",1,"Novel12",0,"Novel12",0,3370,"eyescenter",-1,0,1,0,7,FALSE,4,TRUE
"295","A1AX506NAWLFHX",TRUE,"14:27:20",15,"Social","Seven",4,2,"Switch",1,"Novel102",3,"Novel122",1,3091,"eyescenter",-1,0,1,0,7,FALSE,4,FALSE
"296","A1AX506NAWLFHX",TRUE,"14:27:20",16,"Social","Seven",4,3,"Same",0,"Novel17",1,"Novel17",2,1803,"eyescenter",-1,0,1,0,7,FALSE,4,TRUE
"297","A1AX506NAWLFHX",TRUE,"14:27:20",17,"Social","Seven",4,4,"Switch",0,"Novel10",1,"Novel40",2,1795,"eyescenter",-1,0,1,0,7,FALSE,4,FALSE
"298","A1AX506NAWLFHX",TRUE,"14:27:20",18,"Social","Seven",4,5,"Same",1,"Novel35",2,"Novel35",2,1338,"eyescenter",-1,0,1,0,7,FALSE,4,TRUE
"299","A1AX506NAWLFHX",TRUE,"14:27:20",19,"Social","Seven",4,6,"Switch",0,"Novel43",3,"Novel126",3,3500,"eyescenter",-1,0,1,0,7,FALSE,4,FALSE
"300","A1AX506NAWLFHX",TRUE,"14:27:20",20,"Social","Seven",4,7,"Same",0,"Novel97",0,"Novel97",2,1802,"eyescenter",-1,0,1,0,7,FALSE,4,TRUE
"301","A1CNF7S1U26GKW",TRUE,"03:34:32",1,"No-Social","Three",4,0,"Switch",1,"squirrel",0,"",0,3205,"eyescenter",-1,0,0,1,3,FALSE,4,FALSE
"302","A1CNF7S1U26GKW",TRUE,"03:34:32",2,"No-Social","Three",4,0,"Switch",1,"squirrel",0,"",0,849,"eyescenter",-1,0,0,1,3,FALSE,4,FALSE
"303","A1CNF7S1U26GKW",TRUE,"03:34:32",3,"No-Social","Three",4,0,"Switch",1,"tomato",1,"",0,1184,"eyescenter",-1,0,0,1,3,FALSE,4,FALSE
"304","A1CNF7S1U26GKW",TRUE,"03:34:32",4,"No-Social","Three",4,0,"Switch",1,"tomato",2,"",0,1083,"eyescenter",-1,0,0,1,3,FALSE,4,FALSE
"305","A1CNF7S1U26GKW",TRUE,"03:34:32",5,"No-Social","Three",4,0,"Switch",1,"Novel82",1,"Novel48",3,1438,"eyescenter",-1,1,0,0,3,FALSE,4,FALSE
"306","A1CNF7S1U26GKW",TRUE,"03:34:32",6,"No-Social","Three",4,1,"Same",1,"Novel132",2,"Novel132",2,1555,"eyescenter",-1,1,0,0,3,FALSE,4,TRUE
"307","A1CNF7S1U26GKW",TRUE,"03:34:32",7,"No-Social","Three",4,2,"Switch",0,"Novel19",2,"Novel118",0,1281,"eyescenter",-1,1,0,0,3,FALSE,4,FALSE
"308","A1CNF7S1U26GKW",TRUE,"03:34:32",8,"No-Social","Three",4,3,"Same",1,"Novel53",0,"Novel53",0,705,"eyescenter",-1,1,0,0,3,FALSE,4,TRUE
"309","A1CNF7S1U26GKW",TRUE,"03:34:32",9,"No-Social","Three",4,0,"Switch",1,"Novel5",1,"Novel48",3,840,"eyescenter",-1,0,1,0,3,TRUE,4,FALSE
"310","A1CNF7S1U26GKW",TRUE,"03:34:32",10,"No-Social","Three",4,1,"Same",1,"Novel132",2,"Novel132",2,851,"eyescenter",-1,0,1,0,3,FALSE,4,TRUE
"311","A1CNF7S1U26GKW",TRUE,"03:34:32",11,"No-Social","Three",4,2,"Switch",0,"Novel52",0,"Novel118",0,1682,"eyescenter",-1,0,1,0,3,FALSE,4,FALSE
"312","A1CNF7S1U26GKW",TRUE,"03:34:32",12,"No-Social","Three",4,3,"Same",1,"Novel77",1,"Novel53",0,1263,"eyescenter",-1,0,1,0,3,FALSE,4,FALSE
"313","A1CNF7S1U26GKW",TRUE,"03:34:32",13,"No-Social","Three",4,4,"Switch",1,"Novel36",2,"Novel127",1,1531,"eyescenter",-1,1,0,0,3,FALSE,4,FALSE
"314","A1CNF7S1U26GKW",TRUE,"03:34:32",14,"No-Social","Three",4,5,"Same",0,"Novel10",0,"Novel10",0,1386,"eyescenter",-1,1,0,0,3,FALSE,4,TRUE
"315","A1CNF7S1U26GKW",TRUE,"03:34:32",15,"No-Social","Three",4,6,"Switch",0,"Novel42",1,"Novel134",0,1698,"eyescenter",-1,1,0,0,3,FALSE,4,FALSE
"316","A1CNF7S1U26GKW",TRUE,"03:34:32",16,"No-Social","Three",4,7,"Same",0,"Novel59",3,"Novel59",3,1011,"eyescenter",-1,1,0,0,3,FALSE,4,TRUE
"317","A1CNF7S1U26GKW",TRUE,"03:34:32",17,"No-Social","Three",4,4,"Switch",1,"Novel23",2,"Novel127",1,1340,"eyescenter",-1,0,1,0,3,FALSE,4,FALSE
"318","A1CNF7S1U26GKW",TRUE,"03:34:32",18,"No-Social","Three",4,5,"Same",0,"Novel10",3,"Novel10",0,938,"eyescenter",-1,0,1,0,3,FALSE,4,TRUE
"319","A1CNF7S1U26GKW",TRUE,"03:34:32",19,"No-Social","Three",4,6,"Switch",0,"Novel134",1,"Novel134",0,128,"eyescenter",-1,0,1,0,3,FALSE,4,TRUE
"320","A1CNF7S1U26GKW",TRUE,"03:34:32",20,"No-Social","Three",4,7,"Same",0,"Novel59",1,"Novel59",3,938,"eyescenter",-1,0,1,0,3,FALSE,4,TRUE
"321","A1DC4M9K9HBU8N",TRUE,"16:23:22",1,"Social","Three",4,0,"Same",1,"squirrel",0,"",0,1495,"eyescenter",-1,0,0,1,3,FALSE,4,FALSE
"322","A1DC4M9K9HBU8N",TRUE,"16:23:22",2,"Social","Three",4,0,"Same",1,"squirrel",0,"",0,1008,"eyescenter",-1,0,0,1,3,FALSE,4,FALSE
"323","A1DC4M9K9HBU8N",TRUE,"16:23:22",3,"Social","Three",4,0,"Same",1,"tomato",1,"",0,1171,"eyescenter",-1,0,0,1,3,FALSE,4,FALSE
"324","A1DC4M9K9HBU8N",TRUE,"16:23:22",4,"Social","Three",4,0,"Same",1,"tomato",2,"",0,864,"eyescenter",-1,0,0,1,3,FALSE,4,FALSE
"325","A1DC4M9K9HBU8N",TRUE,"16:23:22",5,"Social","Three",4,0,"Same",1,"Novel23",2,"Novel23",2,1561,"eyes_down_right",2,1,0,0,3,FALSE,4,TRUE
"326","A1DC4M9K9HBU8N",TRUE,"16:23:22",6,"Social","Three",4,1,"Switch",1,"Novel5",2,"Novel128",0,780,"eyes_down_right",2,1,0,0,3,FALSE,4,FALSE
"327","A1DC4M9K9HBU8N",TRUE,"16:23:22",7,"Social","Three",4,2,"Same",1,"Novel61",1,"Novel61",1,996,"eyes_down_left",1,1,0,0,3,FALSE,4,TRUE
"328","A1DC4M9K9HBU8N",TRUE,"16:23:22",8,"Social","Three",4,3,"Switch",0,"Novel112",0,"Novel135",1,1085,"eyes_left",0,1,0,0,3,FALSE,4,FALSE
"329","A1DC4M9K9HBU8N",TRUE,"16:23:22",9,"Social","Three",4,0,"Same",1,"Novel23",2,"Novel23",2,2810,"eyescenter",-1,0,1,0,3,TRUE,4,TRUE
"330","A1DC4M9K9HBU8N",TRUE,"16:23:22",10,"Social","Three",4,1,"Switch",1,"Novel128",0,"Novel128",0,5332,"eyescenter",-1,0,1,0,3,FALSE,4,TRUE
"331","A1DC4M9K9HBU8N",TRUE,"16:23:22",11,"Social","Three",4,2,"Same",1,"Novel61",1,"Novel61",1,1108,"eyescenter",-1,0,1,0,3,FALSE,4,TRUE
"332","A1DC4M9K9HBU8N",TRUE,"16:23:22",12,"Social","Three",4,3,"Switch",0,"Novel78",3,"Novel135",1,1342,"eyescenter",-1,0,1,0,3,FALSE,4,FALSE
"333","A1DC4M9K9HBU8N",TRUE,"16:23:22",13,"Social","Three",4,4,"Same",0,"Novel56",3,"Novel56",3,3509,"eyes_right",3,1,0,0,3,FALSE,4,TRUE
"334","A1DC4M9K9HBU8N",TRUE,"16:23:22",14,"Social","Three",4,5,"Switch",0,"Novel102",1,"Novel131",0,3756,"eyes_down_left",1,1,0,0,3,FALSE,4,FALSE
"335","A1DC4M9K9HBU8N",TRUE,"16:23:22",15,"Social","Three",4,6,"Same",0,"Novel84",2,"Novel84",2,5191,"eyes_down_right",2,1,0,0,3,FALSE,4,TRUE
"336","A1DC4M9K9HBU8N",TRUE,"16:23:22",16,"Social","Three",4,7,"Switch",1,"Novel134",3,"Novel106",1,2078,"eyes_right",3,1,0,0,3,FALSE,4,FALSE
"337","A1DC4M9K9HBU8N",TRUE,"16:23:22",17,"Social","Three",4,4,"Same",0,"Novel56",0,"Novel56",3,1795,"eyescenter",-1,0,1,0,3,FALSE,4,TRUE
"338","A1DC4M9K9HBU8N",TRUE,"16:23:22",18,"Social","Three",4,5,"Switch",0,"Novel21",2,"Novel131",0,2878,"eyescenter",-1,0,1,0,3,FALSE,4,FALSE
"339","A1DC4M9K9HBU8N",TRUE,"16:23:22",19,"Social","Three",4,6,"Same",0,"Novel33",3,"Novel84",2,3212,"eyescenter",-1,0,1,0,3,FALSE,4,FALSE
"340","A1DC4M9K9HBU8N",TRUE,"16:23:22",20,"Social","Three",4,7,"Switch",1,"Novel106",1,"Novel106",1,2077,"eyescenter",-1,0,1,0,3,FALSE,4,TRUE
"341","A1DXP6XRE9YDTA",TRUE,"18:02:04",1,"Social","One",4,0,"Switch",0,"squirrel",0,"",0,2924,"eyescenter",-1,0,0,1,1,FALSE,4,FALSE
"342","A1DXP6XRE9YDTA",TRUE,"18:02:04",2,"Social","One",4,0,"Switch",0,"squirrel",0,"",0,1411,"eyescenter",-1,0,0,1,1,FALSE,4,FALSE
"343","A1DXP6XRE9YDTA",TRUE,"18:02:04",3,"Social","One",4,0,"Switch",0,"tomato",1,"",0,1412,"eyescenter",-1,0,0,1,1,FALSE,4,FALSE
"344","A1DXP6XRE9YDTA",TRUE,"18:02:04",4,"Social","One",4,0,"Switch",0,"tomato",2,"",0,1097,"eyescenter",-1,0,0,1,1,FALSE,4,FALSE
"345","A1DXP6XRE9YDTA",TRUE,"18:02:04",5,"Social","One",4,0,"Switch",0,"Novel51",2,"Novel7",1,2473,"eyes_down_right",2,1,0,0,1,FALSE,4,FALSE
"346","A1DXP6XRE9YDTA",TRUE,"18:02:04",6,"Social","One",4,1,"Same",0,"Novel72",2,"Novel72",2,1115,"eyes_down_right",2,1,0,0,1,FALSE,4,TRUE
"347","A1DXP6XRE9YDTA",TRUE,"18:02:04",7,"Social","One",4,0,"Switch",0,"Novel36",1,"Novel7",1,1927,"eyescenter",-1,0,1,0,1,TRUE,4,FALSE
"348","A1DXP6XRE9YDTA",TRUE,"18:02:04",8,"Social","One",4,1,"Same",0,"Novel72",1,"Novel72",2,985,"eyescenter",-1,0,1,0,1,FALSE,4,TRUE
"349","A1DXP6XRE9YDTA",TRUE,"18:02:04",9,"Social","One",4,2,"Switch",0,"Novel25",1,"Novel127",3,2255,"eyes_down_left",1,1,0,0,1,FALSE,4,FALSE
"350","A1DXP6XRE9YDTA",TRUE,"18:02:04",10,"Social","One",4,3,"Same",1,"Novel4",3,"Novel4",3,1702,"eyes_right",3,1,0,0,1,FALSE,4,TRUE
"351","A1DXP6XRE9YDTA",TRUE,"18:02:04",11,"Social","One",4,2,"Switch",0,"Novel127",0,"Novel127",3,3368,"eyescenter",-1,0,1,0,1,FALSE,4,TRUE
"352","A1DXP6XRE9YDTA",TRUE,"18:02:04",12,"Social","One",4,3,"Same",1,"Novel4",3,"Novel4",3,1428,"eyescenter",-1,0,1,0,1,FALSE,4,TRUE
"353","A1DXP6XRE9YDTA",TRUE,"18:02:04",13,"Social","One",4,4,"Switch",1,"Novel87",2,"Novel61",1,1410,"eyes_down_right",2,1,0,0,1,FALSE,4,FALSE
"354","A1DXP6XRE9YDTA",TRUE,"18:02:04",14,"Social","One",4,5,"Same",1,"Novel91",0,"Novel91",0,1290,"eyes_left",0,1,0,0,1,FALSE,4,TRUE
"355","A1DXP6XRE9YDTA",TRUE,"18:02:04",15,"Social","One",4,4,"Switch",1,"Novel33",0,"Novel61",1,3017,"eyescenter",-1,0,1,0,1,FALSE,4,FALSE
"356","A1DXP6XRE9YDTA",TRUE,"18:02:04",16,"Social","One",4,5,"Same",1,"Novel91",0,"Novel91",0,1364,"eyescenter",-1,0,1,0,1,FALSE,4,TRUE
"357","A1DXP6XRE9YDTA",TRUE,"18:02:04",17,"Social","One",4,6,"Switch",1,"Novel60",0,"Novel56",3,2380,"eyes_left",0,1,0,0,1,FALSE,4,FALSE
"358","A1DXP6XRE9YDTA",TRUE,"18:02:04",18,"Social","One",4,7,"Same",0,"Novel32",1,"Novel32",1,1044,"eyes_down_left",1,1,0,0,1,FALSE,4,TRUE
"359","A1DXP6XRE9YDTA",TRUE,"18:02:04",19,"Social","One",4,6,"Switch",1,"Novel56",3,"Novel56",3,2371,"eyescenter",-1,0,1,0,1,FALSE,4,TRUE
"360","A1DXP6XRE9YDTA",TRUE,"18:02:04",20,"Social","One",4,7,"Same",0,"Novel32",3,"Novel32",1,894,"eyescenter",-1,0,1,0,1,FALSE,4,TRUE
"361","A1ESCPVSM3GQ95",TRUE,"04:58:19",1,"Social","Seven",4,0,"Same",0,"squirrel",0,"",0,4516,"eyescenter",-1,0,0,1,7,FALSE,4,FALSE
"362","A1ESCPVSM3GQ95",TRUE,"04:58:19",2,"Social","Seven",4,0,"Same",0,"squirrel",0,"",0,818,"eyescenter",-1,0,0,1,7,FALSE,4,FALSE
"363","A1ESCPVSM3GQ95",TRUE,"04:58:19",3,"Social","Seven",4,0,"Same",0,"tomato",1,"",0,1067,"eyescenter",-1,0,0,1,7,FALSE,4,FALSE
"364","A1ESCPVSM3GQ95",TRUE,"04:58:19",4,"Social","Seven",4,0,"Same",0,"tomato",2,"",0,1007,"eyescenter",-1,0,0,1,7,FALSE,4,FALSE
"365","A1ESCPVSM3GQ95",TRUE,"04:58:19",5,"Social","Seven",4,0,"Same",0,"Novel60",1,"Novel60",1,1245,"eyes_down_left",1,1,0,0,7,FALSE,4,TRUE
"366","A1ESCPVSM3GQ95",TRUE,"04:58:19",6,"Social","Seven",4,1,"Switch",1,"Novel35",0,"Novel140",3,857,"eyes_left",0,1,0,0,7,FALSE,4,FALSE
"367","A1ESCPVSM3GQ95",TRUE,"04:58:19",7,"Social","Seven",4,2,"Same",0,"Novel30",1,"Novel30",1,1067,"eyes_down_left",1,1,0,0,7,FALSE,4,TRUE
"368","A1ESCPVSM3GQ95",TRUE,"04:58:19",8,"Social","Seven",4,3,"Switch",0,"Novel27",3,"Novel16",2,1157,"eyes_right",3,1,0,0,7,FALSE,4,FALSE
"369","A1ESCPVSM3GQ95",TRUE,"04:58:19",9,"Social","Seven",4,4,"Same",1,"Novel63",3,"Novel63",3,1387,"eyes_right",3,1,0,0,7,FALSE,4,TRUE
"370","A1ESCPVSM3GQ95",TRUE,"04:58:19",10,"Social","Seven",4,5,"Switch",1,"Novel76",3,"Novel85",0,808,"eyes_right",3,1,0,0,7,FALSE,4,FALSE
"371","A1ESCPVSM3GQ95",TRUE,"04:58:19",11,"Social","Seven",4,6,"Same",1,"Novel77",2,"Novel77",2,833,"eyes_down_right",2,1,0,0,7,FALSE,4,TRUE
"372","A1ESCPVSM3GQ95",TRUE,"04:58:19",12,"Social","Seven",4,7,"Switch",0,"Novel49",1,"Novel50",0,947,"eyes_down_left",1,1,0,0,7,FALSE,4,FALSE
"373","A1ESCPVSM3GQ95",TRUE,"04:58:19",13,"Social","Seven",4,0,"Same",0,"Novel60",2,"Novel60",1,1515,"eyescenter",-1,0,1,0,7,TRUE,4,TRUE
"374","A1ESCPVSM3GQ95",TRUE,"04:58:19",14,"Social","Seven",4,1,"Switch",1,"Novel133",0,"Novel140",3,3901,"eyescenter",-1,0,1,0,7,FALSE,4,FALSE
"375","A1ESCPVSM3GQ95",TRUE,"04:58:19",15,"Social","Seven",4,2,"Same",0,"Novel30",3,"Novel30",1,1228,"eyescenter",-1,0,1,0,7,FALSE,4,TRUE
"376","A1ESCPVSM3GQ95",TRUE,"04:58:19",16,"Social","Seven",4,3,"Switch",0,"Novel72",2,"Novel16",2,2370,"eyescenter",-1,0,1,0,7,FALSE,4,FALSE
"377","A1ESCPVSM3GQ95",TRUE,"04:58:19",17,"Social","Seven",4,4,"Same",1,"Novel115",1,"Novel63",3,2539,"eyescenter",-1,0,1,0,7,FALSE,4,FALSE
"378","A1ESCPVSM3GQ95",TRUE,"04:58:19",18,"Social","Seven",4,5,"Switch",1,"Novel101",1,"Novel85",0,3203,"eyescenter",-1,0,1,0,7,FALSE,4,FALSE
"379","A1ESCPVSM3GQ95",TRUE,"04:58:19",19,"Social","Seven",4,6,"Same",1,"Novel9",0,"Novel77",2,2669,"eyescenter",-1,0,1,0,7,FALSE,4,FALSE
"380","A1ESCPVSM3GQ95",TRUE,"04:58:19",20,"Social","Seven",4,7,"Switch",0,"Novel53",2,"Novel50",0,3234,"eyescenter",-1,0,1,0,7,FALSE,4,FALSE
"381","A1ETJBNTO9ZWZ8",TRUE,"13:56:30",1,"Social","Zero",4,0,"Switch",0,"squirrel",0,"",0,2769,"eyescenter",-1,0,0,1,0,FALSE,4,FALSE
"382","A1ETJBNTO9ZWZ8",TRUE,"13:56:30",2,"Social","Zero",4,0,"Switch",0,"squirrel",0,"",0,1300,"eyescenter",-1,0,0,1,0,FALSE,4,FALSE
"383","A1ETJBNTO9ZWZ8",TRUE,"13:56:30",3,"Social","Zero",4,0,"Switch",0,"tomato",1,"",0,1420,"eyescenter",-1,0,0,1,0,FALSE,4,FALSE
"384","A1ETJBNTO9ZWZ8",TRUE,"13:56:30",4,"Social","Zero",4,0,"Switch",0,"tomato",2,"",0,1101,"eyescenter",-1,0,0,1,0,FALSE,4,FALSE
"385","A1ETJBNTO9ZWZ8",TRUE,"13:56:30",5,"Social","Zero",4,0,"Switch",0,"Novel71",1,"Novel31",0,3368,"eyes_left",0,1,0,0,0,FALSE,4,FALSE
"386","A1ETJBNTO9ZWZ8",TRUE,"13:56:30",6,"Social","Zero",4,0,"Switch",0,"Novel31",2,"Novel31",0,1661,"eyescenter",-1,0,1,0,0,TRUE,4,TRUE
"387","A1ETJBNTO9ZWZ8",TRUE,"13:56:30",7,"Social","Zero",4,1,"Same",0,"Novel63",2,"Novel63",2,1713,"eyes_right",3,1,0,0,0,FALSE,4,TRUE
"388","A1ETJBNTO9ZWZ8",TRUE,"13:56:30",8,"Social","Zero",4,1,"Same",0,"Novel63",1,"Novel63",2,1098,"eyescenter",-1,0,1,0,0,FALSE,4,TRUE
"389","A1ETJBNTO9ZWZ8",TRUE,"13:56:30",9,"Social","Zero",4,2,"Switch",1,"Novel84",0,"Novel67",1,2112,"eyes_right",3,1,0,0,0,FALSE,4,FALSE
"390","A1ETJBNTO9ZWZ8",TRUE,"13:56:30",10,"Social","Zero",4,2,"Switch",1,"Novel57",2,"Novel67",1,1134,"eyescenter",-1,0,1,0,0,FALSE,4,FALSE
"391","A1ETJBNTO9ZWZ8",TRUE,"13:56:30",11,"Social","Zero",4,3,"Same",1,"Novel11",1,"Novel11",1,1321,"eyes_down_left",1,1,0,0,0,FALSE,4,TRUE
"392","A1ETJBNTO9ZWZ8",TRUE,"13:56:30",12,"Social","Zero",4,3,"Same",1,"Novel11",1,"Novel11",1,1165,"eyescenter",-1,0,1,0,0,FALSE,4,TRUE
"393","A1ETJBNTO9ZWZ8",TRUE,"13:56:30",13,"Social","Zero",4,4,"Switch",1,"Novel135",2,"Novel26",3,1710,"eyes_down_left",1,1,0,0,0,FALSE,4,FALSE
"394","A1ETJBNTO9ZWZ8",TRUE,"13:56:30",14,"Social","Zero",4,4,"Switch",1,"Novel26",3,"Novel26",3,2001,"eyescenter",-1,0,1,0,0,FALSE,4,TRUE
"395","A1ETJBNTO9ZWZ8",TRUE,"13:56:30",15,"Social","Zero",4,5,"Same",1,"Novel81",2,"Novel81",2,1601,"eyes_down_right",2,1,0,0,0,FALSE,4,TRUE
"396","A1ETJBNTO9ZWZ8",TRUE,"13:56:30",16,"Social","Zero",4,5,"Same",1,"Novel81",2,"Novel81",2,1026,"eyescenter",-1,0,1,0,0,FALSE,4,TRUE
"397","A1ETJBNTO9ZWZ8",TRUE,"13:56:30",17,"Social","Zero",4,6,"Switch",0,"Novel133",1,"Novel52",2,1919,"eyes_down_left",1,1,0,0,0,FALSE,4,FALSE
"398","A1ETJBNTO9ZWZ8",TRUE,"13:56:30",18,"Social","Zero",4,6,"Switch",0,"Novel14",0,"Novel52",2,2319,"eyescenter",-1,0,1,0,0,FALSE,4,FALSE
"399","A1ETJBNTO9ZWZ8",TRUE,"13:56:30",19,"Social","Zero",4,7,"Same",0,"Novel43",3,"Novel43",3,1808,"eyes_down_right",2,1,0,0,0,FALSE,4,TRUE
"400","A1ETJBNTO9ZWZ8",TRUE,"13:56:30",20,"Social","Zero",4,7,"Same",0,"Novel43",2,"Novel43",3,1007,"eyescenter",-1,0,1,0,0,FALSE,4,TRUE
"401","A1FTLQGLIFT5ES",TRUE,"04:07:19",1,"No-Social","Seven",4,0,"Same",0,"squirrel",0,"",0,1787,"eyescenter",-1,0,0,1,7,FALSE,4,FALSE
"402","A1FTLQGLIFT5ES",TRUE,"04:07:19",2,"No-Social","Seven",4,0,"Same",0,"squirrel",0,"",0,1055,"eyescenter",-1,0,0,1,7,FALSE,4,FALSE
"403","A1FTLQGLIFT5ES",TRUE,"04:07:19",3,"No-Social","Seven",4,0,"Same",0,"tomato",1,"",0,1481,"eyescenter",-1,0,0,1,7,FALSE,4,FALSE
"404","A1FTLQGLIFT5ES",TRUE,"04:07:19",4,"No-Social","Seven",4,0,"Same",0,"tomato",2,"",0,2568,"eyescenter",-1,0,0,1,7,FALSE,4,FALSE
"405","A1FTLQGLIFT5ES",TRUE,"04:07:19",5,"No-Social","Seven",4,0,"Same",0,"Novel126",1,"Novel126",1,13692,"eyescenter",-1,1,0,0,7,FALSE,4,TRUE
"406","A1FTLQGLIFT5ES",TRUE,"04:07:19",6,"No-Social","Seven",4,1,"Switch",1,"Novel86",0,"Novel115",2,3303,"eyescenter",-1,1,0,0,7,FALSE,4,FALSE
"407","A1FTLQGLIFT5ES",TRUE,"04:07:19",7,"No-Social","Seven",4,2,"Same",1,"Novel88",3,"Novel88",3,4111,"eyescenter",-1,1,0,0,7,FALSE,4,TRUE
"408","A1FTLQGLIFT5ES",TRUE,"04:07:19",8,"No-Social","Seven",4,3,"Switch",1,"Novel33",2,"Novel130",0,2802,"eyescenter",-1,1,0,0,7,FALSE,4,FALSE
"409","A1FTLQGLIFT5ES",TRUE,"04:07:19",9,"No-Social","Seven",4,4,"Same",1,"Novel124",1,"Novel124",1,1564,"eyescenter",-1,1,0,0,7,FALSE,4,TRUE
"410","A1FTLQGLIFT5ES",TRUE,"04:07:19",10,"No-Social","Seven",4,5,"Switch",0,"Novel27",0,"Novel20",1,2306,"eyescenter",-1,1,0,0,7,FALSE,4,FALSE
"411","A1FTLQGLIFT5ES",TRUE,"04:07:19",11,"No-Social","Seven",4,6,"Same",0,"Novel122",3,"Novel122",3,13262,"eyescenter",-1,1,0,0,7,FALSE,4,TRUE
"412","A1FTLQGLIFT5ES",TRUE,"04:07:19",12,"No-Social","Seven",4,7,"Switch",0,"Novel110",3,"Novel97",1,2917,"eyescenter",-1,1,0,0,7,FALSE,4,FALSE
"413","A1FTLQGLIFT5ES",TRUE,"04:07:19",13,"No-Social","Seven",4,0,"Same",0,"Novel126",0,"Novel126",1,2320,"eyescenter",-1,0,1,0,7,TRUE,4,TRUE
"414","A1FTLQGLIFT5ES",TRUE,"04:07:19",14,"No-Social","Seven",4,1,"Switch",1,"Novel22",0,"Novel115",2,4091,"eyescenter",-1,0,1,0,7,FALSE,4,FALSE
"415","A1FTLQGLIFT5ES",TRUE,"04:07:19",15,"No-Social","Seven",4,2,"Same",1,"Novel88",3,"Novel88",3,1059,"eyescenter",-1,0,1,0,7,FALSE,4,TRUE
"416","A1FTLQGLIFT5ES",TRUE,"04:07:19",16,"No-Social","Seven",4,3,"Switch",1,"Novel77",1,"Novel130",0,4781,"eyescenter",-1,0,1,0,7,FALSE,4,FALSE
"417","A1FTLQGLIFT5ES",TRUE,"04:07:19",17,"No-Social","Seven",4,4,"Same",1,"Novel124",1,"Novel124",1,2227,"eyescenter",-1,0,1,0,7,FALSE,4,TRUE
"418","A1FTLQGLIFT5ES",TRUE,"04:07:19",18,"No-Social","Seven",4,5,"Switch",0,"Novel20",0,"Novel20",1,4648,"eyescenter",-1,0,1,0,7,FALSE,4,TRUE
"419","A1FTLQGLIFT5ES",TRUE,"04:07:19",19,"No-Social","Seven",4,6,"Same",0,"Novel122",1,"Novel122",3,1342,"eyescenter",-1,0,1,0,7,FALSE,4,TRUE
"420","A1FTLQGLIFT5ES",TRUE,"04:07:19",20,"No-Social","Seven",4,7,"Switch",0,"Novel97",3,"Novel97",1,1949,"eyescenter",-1,0,1,0,7,FALSE,4,TRUE
"421","A1H11P4QSM08Y1",TRUE,"03:22:36",1,"No-Social","One",4,0,"Same",0,"squirrel",0,"",0,5078,"eyescenter",-1,0,0,1,1,FALSE,4,FALSE
"422","A1H11P4QSM08Y1",TRUE,"03:22:36",2,"No-Social","One",4,0,"Same",0,"squirrel",0,"",0,1664,"eyescenter",-1,0,0,1,1,FALSE,4,FALSE
"423","A1H11P4QSM08Y1",TRUE,"03:22:36",3,"No-Social","One",4,0,"Same",0,"tomato",1,"",0,1114,"eyescenter",-1,0,0,1,1,FALSE,4,FALSE
"424","A1H11P4QSM08Y1",TRUE,"03:22:36",4,"No-Social","One",4,0,"Same",0,"tomato",2,"",0,2098,"eyescenter",-1,0,0,1,1,FALSE,4,FALSE
"425","A1H11P4QSM08Y1",TRUE,"03:22:36",5,"No-Social","One",4,0,"Same",0,"Novel80",1,"Novel80",1,3011,"eyescenter",-1,1,0,0,1,FALSE,4,TRUE
"426","A1H11P4QSM08Y1",TRUE,"03:22:36",6,"No-Social","One",4,1,"Switch",1,"Novel7",2,"Novel56",0,2437,"eyescenter",-1,1,0,0,1,FALSE,4,FALSE
"427","A1H11P4QSM08Y1",TRUE,"03:22:36",7,"No-Social","One",4,0,"Same",0,"Novel80",0,"Novel80",1,1236,"eyescenter",-1,0,1,0,1,TRUE,4,TRUE
"428","A1H11P4QSM08Y1",TRUE,"03:22:36",8,"No-Social","One",4,1,"Switch",1,"Novel56",0,"Novel56",0,2517,"eyescenter",-1,0,1,0,1,FALSE,4,TRUE
"429","A1H11P4QSM08Y1",TRUE,"03:22:36",9,"No-Social","One",4,2,"Same",1,"Novel73",0,"Novel73",0,1609,"eyescenter",-1,1,0,0,1,FALSE,4,TRUE
"430","A1H11P4QSM08Y1",TRUE,"03:22:36",10,"No-Social","One",4,3,"Switch",1,"Novel50",0,"Novel129",2,2234,"eyescenter",-1,1,0,0,1,FALSE,4,FALSE
"431","A1H11P4QSM08Y1",TRUE,"03:22:36",11,"No-Social","One",4,2,"Same",1,"Novel73",0,"Novel73",0,890,"eyescenter",-1,0,1,0,1,FALSE,4,TRUE
"432","A1H11P4QSM08Y1",TRUE,"03:22:36",12,"No-Social","One",4,3,"Switch",1,"Novel120",1,"Novel129",2,3092,"eyescenter",-1,0,1,0,1,FALSE,4,FALSE
"433","A1H11P4QSM08Y1",TRUE,"03:22:36",13,"No-Social","One",4,4,"Same",1,"Novel124",2,"Novel124",2,1756,"eyescenter",-1,1,0,0,1,FALSE,4,TRUE
"434","A1H11P4QSM08Y1",TRUE,"03:22:36",14,"No-Social","One",4,5,"Switch",0,"Novel41",1,"Novel6",0,1972,"eyescenter",-1,1,0,0,1,FALSE,4,FALSE
"435","A1H11P4QSM08Y1",TRUE,"03:22:36",15,"No-Social","One",4,4,"Same",1,"Novel124",2,"Novel124",2,764,"eyescenter",-1,0,1,0,1,FALSE,4,TRUE
"436","A1H11P4QSM08Y1",TRUE,"03:22:36",16,"No-Social","One",4,5,"Switch",0,"Novel6",2,"Novel6",0,2189,"eyescenter",-1,0,1,0,1,FALSE,4,TRUE
"437","A1H11P4QSM08Y1",TRUE,"03:22:36",17,"No-Social","One",4,6,"Same",0,"Novel102",3,"Novel102",3,1189,"eyescenter",-1,1,0,0,1,FALSE,4,TRUE
"438","A1H11P4QSM08Y1",TRUE,"03:22:36",18,"No-Social","One",4,7,"Switch",0,"Novel20",2,"Novel42",0,1524,"eyescenter",-1,1,0,0,1,FALSE,4,FALSE
"439","A1H11P4QSM08Y1",TRUE,"03:22:36",19,"No-Social","One",4,6,"Same",0,"Novel102",2,"Novel102",3,738,"eyescenter",-1,0,1,0,1,FALSE,4,TRUE
"440","A1H11P4QSM08Y1",TRUE,"03:22:36",20,"No-Social","One",4,7,"Switch",0,"Novel98",3,"Novel42",0,838,"eyescenter",-1,0,1,0,1,FALSE,4,FALSE
"441","A1H162QMRV01SA",TRUE,"03:33:58",1,"No-Social","Zero",4,0,"Same",0,"squirrel",0,"",0,3536,"eyescenter",-1,0,0,1,0,FALSE,4,FALSE
"442","A1H162QMRV01SA",TRUE,"03:33:58",2,"No-Social","Zero",4,0,"Same",0,"squirrel",0,"",0,1582,"eyescenter",-1,0,0,1,0,FALSE,4,FALSE
"443","A1H162QMRV01SA",TRUE,"03:33:58",3,"No-Social","Zero",4,0,"Same",0,"tomato",1,"",0,4236,"eyescenter",-1,0,0,1,0,FALSE,4,FALSE
"444","A1H162QMRV01SA",TRUE,"03:33:58",4,"No-Social","Zero",4,0,"Same",0,"tomato",2,"",0,1038,"eyescenter",-1,0,0,1,0,FALSE,4,FALSE
"445","A1H162QMRV01SA",TRUE,"03:33:58",5,"No-Social","Zero",4,0,"Same",0,"Novel64",3,"Novel64",3,9286,"eyescenter",-1,1,0,0,0,FALSE,4,TRUE
"446","A1H162QMRV01SA",TRUE,"03:33:58",6,"No-Social","Zero",4,0,"Same",0,"Novel111",0,"Novel64",3,4279,"eyescenter",-1,0,1,0,0,TRUE,4,FALSE
"447","A1H162QMRV01SA",TRUE,"03:33:58",7,"No-Social","Zero",4,1,"Switch",1,"Novel108",3,"Novel32",2,3853,"eyescenter",-1,1,0,0,0,FALSE,4,FALSE
"448","A1H162QMRV01SA",TRUE,"03:33:58",8,"No-Social","Zero",4,1,"Switch",1,"Novel32",2,"Novel32",2,2192,"eyescenter",-1,0,1,0,0,FALSE,4,TRUE
"449","A1H162QMRV01SA",TRUE,"03:33:58",9,"No-Social","Zero",4,2,"Same",1,"Novel83",3,"Novel83",3,1598,"eyescenter",-1,1,0,0,0,FALSE,4,TRUE
"450","A1H162QMRV01SA",TRUE,"03:33:58",10,"No-Social","Zero",4,2,"Same",1,"Novel83",3,"Novel83",3,906,"eyescenter",-1,0,1,0,0,FALSE,4,TRUE
"451","A1H162QMRV01SA",TRUE,"03:33:58",11,"No-Social","Zero",4,3,"Switch",0,"Novel118",1,"Novel109",3,1637,"eyescenter",-1,1,0,0,0,FALSE,4,FALSE
"452","A1H162QMRV01SA",TRUE,"03:33:58",12,"No-Social","Zero",4,3,"Switch",0,"Novel109",2,"Novel109",3,2526,"eyescenter",-1,0,1,0,0,FALSE,4,TRUE
"453","A1H162QMRV01SA",TRUE,"03:33:58",13,"No-Social","Zero",4,4,"Same",0,"Novel139",2,"Novel139",2,3151,"eyescenter",-1,1,0,0,0,FALSE,4,TRUE
"454","A1H162QMRV01SA",TRUE,"03:33:58",14,"No-Social","Zero",4,4,"Same",0,"Novel139",1,"Novel139",2,743,"eyescenter",-1,0,1,0,0,FALSE,4,TRUE
"455","A1H162QMRV01SA",TRUE,"03:33:58",15,"No-Social","Zero",4,5,"Switch",0,"Novel91",3,"Novel74",0,2278,"eyescenter",-1,1,0,0,0,FALSE,4,FALSE
"456","A1H162QMRV01SA",TRUE,"03:33:58",16,"No-Social","Zero",4,5,"Switch",0,"Novel74",3,"Novel74",0,1353,"eyescenter",-1,0,1,0,0,FALSE,4,TRUE
"457","A1H162QMRV01SA",TRUE,"03:33:58",17,"No-Social","Zero",4,6,"Same",1,"Novel96",1,"Novel96",1,1694,"eyescenter",-1,1,0,0,0,FALSE,4,TRUE
"458","A1H162QMRV01SA",TRUE,"03:33:58",18,"No-Social","Zero",4,6,"Same",1,"Novel96",1,"Novel96",1,558,"eyescenter",-1,0,1,0,0,FALSE,4,TRUE
"459","A1H162QMRV01SA",TRUE,"03:33:58",19,"No-Social","Zero",4,7,"Switch",1,"Novel55",2,"Novel11",3,2057,"eyescenter",-1,1,0,0,0,FALSE,4,FALSE
"460","A1H162QMRV01SA",TRUE,"03:33:58",20,"No-Social","Zero",4,7,"Switch",1,"Novel21",1,"Novel11",3,2647,"eyescenter",-1,0,1,0,0,FALSE,4,FALSE
"461","A1H3CNFZW62OVL",TRUE,"17:11:05",1,"No-Social","Seven",4,0,"Same",1,"squirrel",0,"",0,3840,"eyescenter",-1,0,0,1,7,FALSE,4,FALSE
"462","A1H3CNFZW62OVL",TRUE,"17:11:05",2,"No-Social","Seven",4,0,"Same",1,"squirrel",0,"",0,1875,"eyescenter",-1,0,0,1,7,FALSE,4,FALSE
"463","A1H3CNFZW62OVL",TRUE,"17:11:05",3,"No-Social","Seven",4,0,"Same",1,"tomato",1,"",0,1229,"eyescenter",-1,0,0,1,7,FALSE,4,FALSE
"464","A1H3CNFZW62OVL",TRUE,"17:11:05",4,"No-Social","Seven",4,0,"Same",1,"tomato",2,"",0,1041,"eyescenter",-1,0,0,1,7,FALSE,4,FALSE
"465","A1H3CNFZW62OVL",TRUE,"17:11:05",5,"No-Social","Seven",4,0,"Same",1,"Novel96",0,"Novel96",0,13544,"eyescenter",-1,1,0,0,7,FALSE,4,TRUE
"466","A1H3CNFZW62OVL",TRUE,"17:11:05",6,"No-Social","Seven",4,1,"Switch",1,"Novel77",3,"Novel25",1,4066,"eyescenter",-1,1,0,0,7,FALSE,4,FALSE
"467","A1H3CNFZW62OVL",TRUE,"17:11:05",7,"No-Social","Seven",4,2,"Same",1,"Novel50",0,"Novel50",0,11924,"eyescenter",-1,1,0,0,7,FALSE,4,TRUE
"468","A1H3CNFZW62OVL",TRUE,"17:11:05",8,"No-Social","Seven",4,3,"Switch",0,"Novel4",3,"Novel26",1,6879,"eyescenter",-1,1,0,0,7,FALSE,4,FALSE
"469","A1H3CNFZW62OVL",TRUE,"17:11:05",9,"No-Social","Seven",4,4,"Same",0,"Novel82",0,"Novel82",0,16742,"eyescenter",-1,1,0,0,7,FALSE,4,TRUE
"470","A1H3CNFZW62OVL",TRUE,"17:11:05",10,"No-Social","Seven",4,5,"Switch",1,"Novel57",3,"Novel86",2,5509,"eyescenter",-1,1,0,0,7,FALSE,4,FALSE
"471","A1H3CNFZW62OVL",TRUE,"17:11:05",11,"No-Social","Seven",4,6,"Same",0,"Novel8",2,"Novel8",2,5008,"eyescenter",-1,1,0,0,7,FALSE,4,TRUE
"472","A1H3CNFZW62OVL",TRUE,"17:11:05",12,"No-Social","Seven",4,7,"Switch",0,"Novel94",3,"Novel22",0,2758,"eyescenter",-1,1,0,0,7,FALSE,4,FALSE
"473","A1H3CNFZW62OVL",TRUE,"17:11:05",13,"No-Social","Seven",4,0,"Same",1,"Novel96",0,"Novel96",0,3748,"eyescenter",-1,0,1,0,7,TRUE,4,TRUE
"474","A1H3CNFZW62OVL",TRUE,"17:11:05",14,"No-Social","Seven",4,1,"Switch",1,"Novel25",1,"Novel25",1,2602,"eyescenter",-1,0,1,0,7,FALSE,4,TRUE
"475","A1H3CNFZW62OVL",TRUE,"17:11:05",15,"No-Social","Seven",4,2,"Same",1,"Novel50",0,"Novel50",0,1762,"eyescenter",-1,0,1,0,7,FALSE,4,TRUE
"476","A1H3CNFZW62OVL",TRUE,"17:11:05",16,"No-Social","Seven",4,3,"Switch",0,"Novel26",0,"Novel26",1,3382,"eyescenter",-1,0,1,0,7,FALSE,4,TRUE
"477","A1H3CNFZW62OVL",TRUE,"17:11:05",17,"No-Social","Seven",4,4,"Same",0,"Novel82",2,"Novel82",0,1943,"eyescenter",-1,0,1,0,7,FALSE,4,TRUE
"478","A1H3CNFZW62OVL",TRUE,"17:11:05",18,"No-Social","Seven",4,5,"Switch",1,"Novel86",2,"Novel86",2,1679,"eyescenter",-1,0,1,0,7,FALSE,4,TRUE
"479","A1H3CNFZW62OVL",TRUE,"17:11:05",19,"No-Social","Seven",4,6,"Same",0,"Novel8",3,"Novel8",2,2180,"eyescenter",-1,0,1,0,7,FALSE,4,TRUE
"480","A1H3CNFZW62OVL",TRUE,"17:11:05",20,"No-Social","Seven",4,7,"Switch",0,"Novel22",1,"Novel22",0,1413,"eyescenter",-1,0,1,0,7,FALSE,4,TRUE
"481","A1HGJ7P0U12ZH8",TRUE,"04:33:15",1,"No-Social","Three",4,0,"Same",0,"squirrel",0,"",0,1900,"eyescenter",-1,0,0,1,3,FALSE,4,FALSE
"482","A1HGJ7P0U12ZH8",TRUE,"04:33:15",2,"No-Social","Three",4,0,"Same",0,"squirrel",0,"",0,1087,"eyescenter",-1,0,0,1,3,FALSE,4,FALSE
"483","A1HGJ7P0U12ZH8",TRUE,"04:33:15",3,"No-Social","Three",4,0,"Same",0,"tomato",1,"",0,901,"eyescenter",-1,0,0,1,3,FALSE,4,FALSE
"484","A1HGJ7P0U12ZH8",TRUE,"04:33:15",4,"No-Social","Three",4,0,"Same",0,"tomato",2,"",0,810,"eyescenter",-1,0,0,1,3,FALSE,4,FALSE
"485","A1HGJ7P0U12ZH8",TRUE,"04:33:15",5,"No-Social","Three",4,0,"Same",0,"Novel117",3,"Novel117",3,3862,"eyescenter",-1,1,0,0,3,FALSE,4,TRUE
"486","A1HGJ7P0U12ZH8",TRUE,"04:33:15",6,"No-Social","Three",4,1,"Switch",0,"Novel26",0,"Novel67",1,2348,"eyescenter",-1,1,0,0,3,FALSE,4,FALSE
"487","A1HGJ7P0U12ZH8",TRUE,"04:33:15",7,"No-Social","Three",4,2,"Same",0,"Novel63",2,"Novel63",2,2561,"eyescenter",-1,1,0,0,3,FALSE,4,TRUE
"488","A1HGJ7P0U12ZH8",TRUE,"04:33:15",8,"No-Social","Three",4,3,"Switch",1,"Novel90",0,"Novel14",2,3667,"eyescenter",-1,1,0,0,3,FALSE,4,FALSE
"489","A1HGJ7P0U12ZH8",TRUE,"04:33:15",9,"No-Social","Three",4,0,"Same",0,"Novel117",2,"Novel117",3,3787,"eyescenter",-1,0,1,0,3,TRUE,4,TRUE
"490","A1HGJ7P0U12ZH8",TRUE,"04:33:15",10,"No-Social","Three",4,1,"Switch",0,"Novel67",2,"Novel67",1,2410,"eyescenter",-1,0,1,0,3,FALSE,4,TRUE
"491","A1HGJ7P0U12ZH8",TRUE,"04:33:15",11,"No-Social","Three",4,2,"Same",0,"Novel63",0,"Novel63",2,2638,"eyescenter",-1,0,1,0,3,FALSE,4,TRUE
"492","A1HGJ7P0U12ZH8",TRUE,"04:33:15",12,"No-Social","Three",4,3,"Switch",1,"Novel11",3,"Novel14",2,3971,"eyescenter",-1,0,1,0,3,FALSE,4,FALSE
"493","A1HGJ7P0U12ZH8",TRUE,"04:33:15",13,"No-Social","Three",4,4,"Same",1,"Novel112",1,"Novel112",1,4046,"eyescenter",-1,1,0,0,3,FALSE,4,TRUE
"494","A1HGJ7P0U12ZH8",TRUE,"04:33:15",14,"No-Social","Three",4,5,"Switch",0,"Novel92",2,"Novel132",1,2178,"eyescenter",-1,1,0,0,3,FALSE,4,FALSE
"495","A1HGJ7P0U12ZH8",TRUE,"04:33:15",15,"No-Social","Three",4,6,"Same",1,"Novel28",0,"Novel28",0,2179,"eyescenter",-1,1,0,0,3,FALSE,4,TRUE
"496","A1HGJ7P0U12ZH8",TRUE,"04:33:15",16,"No-Social","Three",4,7,"Switch",1,"Novel88",3,"Novel57",1,3309,"eyescenter",-1,1,0,0,3,FALSE,4,FALSE
"497","A1HGJ7P0U12ZH8",TRUE,"04:33:15",17,"No-Social","Three",4,4,"Same",1,"Novel48",0,"Novel112",1,2665,"eyescenter",-1,0,1,0,3,FALSE,4,FALSE
"498","A1HGJ7P0U12ZH8",TRUE,"04:33:15",18,"No-Social","Three",4,5,"Switch",0,"Novel91",3,"Novel132",1,2037,"eyescenter",-1,0,1,0,3,FALSE,4,FALSE
"499","A1HGJ7P0U12ZH8",TRUE,"04:33:15",19,"No-Social","Three",4,6,"Same",1,"Novel61",1,"Novel28",0,1948,"eyescenter",-1,0,1,0,3,FALSE,4,FALSE
"500","A1HGJ7P0U12ZH8",TRUE,"04:33:15",20,"No-Social","Three",4,7,"Switch",1,"Novel38",3,"Novel57",1,1513,"eyescenter",-1,0,1,0,3,FALSE,4,FALSE
"501","A1IA4CST74I1Q8",TRUE,"13:45:42",1,"No-Social","Seven",4,0,"Switch",0,"squirrel",0,"",0,3132,"eyescenter",-1,0,0,1,7,FALSE,4,FALSE
"502","A1IA4CST74I1Q8",TRUE,"13:45:42",2,"No-Social","Seven",4,0,"Switch",0,"squirrel",0,"",0,1589,"eyescenter",-1,0,0,1,7,FALSE,4,FALSE
"503","A1IA4CST74I1Q8",TRUE,"13:45:42",3,"No-Social","Seven",4,0,"Switch",0,"tomato",1,"",0,2446,"eyescenter",-1,0,0,1,7,FALSE,4,FALSE
"504","A1IA4CST74I1Q8",TRUE,"13:45:42",4,"No-Social","Seven",4,0,"Switch",0,"tomato",2,"",0,1276,"eyescenter",-1,0,0,1,7,FALSE,4,FALSE
"505","A1IA4CST74I1Q8",TRUE,"13:45:42",5,"No-Social","Seven",4,0,"Switch",0,"Novel103",0,"Novel18",1,6713,"eyescenter",-1,1,0,0,7,FALSE,4,FALSE
"506","A1IA4CST74I1Q8",TRUE,"13:45:42",6,"No-Social","Seven",4,1,"Same",0,"Novel65",2,"Novel65",2,3169,"eyescenter",-1,1,0,0,7,FALSE,4,TRUE
"507","A1IA4CST74I1Q8",TRUE,"13:45:42",7,"No-Social","Seven",4,2,"Switch",0,"Novel68",2,"Novel1",1,2406,"eyescenter",-1,1,0,0,7,FALSE,4,FALSE
"508","A1IA4CST74I1Q8",TRUE,"13:45:42",8,"No-Social","Seven",4,3,"Same",1,"Novel35",3,"Novel35",3,1928,"eyescenter",-1,1,0,0,7,FALSE,4,TRUE
"509","A1IA4CST74I1Q8",TRUE,"13:45:42",9,"No-Social","Seven",4,4,"Switch",1,"Novel82",1,"Novel40",3,2109,"eyescenter",-1,1,0,0,7,FALSE,4,FALSE
"510","A1IA4CST74I1Q8",TRUE,"13:45:42",10,"No-Social","Seven",4,5,"Same",1,"Novel125",3,"Novel125",3,1888,"eyescenter",-1,1,0,0,7,FALSE,4,TRUE
"511","A1IA4CST74I1Q8",TRUE,"13:45:42",11,"No-Social","Seven",4,6,"Switch",1,"Novel11",3,"Novel62",0,2026,"eyescenter",-1,1,0,0,7,FALSE,4,FALSE
"512","A1IA4CST74I1Q8",TRUE,"13:45:42",12,"No-Social","Seven",4,7,"Same",0,"Novel59",0,"Novel59",0,2836,"eyescenter",-1,1,0,0,7,FALSE,4,TRUE
"513","A1IA4CST74I1Q8",TRUE,"13:45:42",13,"No-Social","Seven",4,0,"Switch",0,"Novel92",3,"Novel18",1,1461,"eyescenter",-1,0,1,0,7,TRUE,4,FALSE
"514","A1IA4CST74I1Q8",TRUE,"13:45:42",14,"No-Social","Seven",4,1,"Same",0,"Novel65",0,"Novel65",2,1917,"eyescenter",-1,0,1,0,7,FALSE,4,TRUE
"515","A1IA4CST74I1Q8",TRUE,"13:45:42",15,"No-Social","Seven",4,2,"Switch",0,"Novel1",3,"Novel1",1,6121,"eyescenter",-1,0,1,0,7,FALSE,4,TRUE
"516","A1IA4CST74I1Q8",TRUE,"13:45:42",16,"No-Social","Seven",4,3,"Same",1,"Novel45",1,"Novel35",3,2456,"eyescenter",-1,0,1,0,7,FALSE,4,FALSE
"517","A1IA4CST74I1Q8",TRUE,"13:45:42",17,"No-Social","Seven",4,4,"Switch",1,"Novel37",1,"Novel40",3,2387,"eyescenter",-1,0,1,0,7,FALSE,4,FALSE
"518","A1IA4CST74I1Q8",TRUE,"13:45:42",18,"No-Social","Seven",4,5,"Same",1,"Novel125",3,"Novel125",3,8443,"eyescenter",-1,0,1,0,7,FALSE,4,TRUE
"519","A1IA4CST74I1Q8",TRUE,"13:45:42",19,"No-Social","Seven",4,6,"Switch",1,"Novel62",0,"Novel62",0,2586,"eyescenter",-1,0,1,0,7,FALSE,4,TRUE
"520","A1IA4CST74I1Q8",TRUE,"13:45:42",20,"No-Social","Seven",4,7,"Same",0,"Novel122",0,"Novel59",0,14524,"eyescenter",-1,0,1,0,7,FALSE,4,FALSE
"521","A1K6UJSK5JYHM0",TRUE,"15:59:47",1,"Social","Zero",4,0,"Switch",1,"squirrel",0,"",0,3601,"eyescenter",-1,0,0,1,0,FALSE,4,FALSE
"522","A1K6UJSK5JYHM0",TRUE,"15:59:47",2,"Social","Zero",4,0,"Switch",1,"squirrel",0,"",0,4156,"eyescenter",-1,0,0,1,0,FALSE,4,FALSE
"523","A1K6UJSK5JYHM0",TRUE,"15:59:47",3,"Social","Zero",4,0,"Switch",1,"tomato",1,"",0,4001,"eyescenter",-1,0,0,1,0,FALSE,4,FALSE
"524","A1K6UJSK5JYHM0",TRUE,"15:59:47",4,"Social","Zero",4,0,"Switch",1,"tomato",2,"",0,1937,"eyescenter",-1,0,0,1,0,FALSE,4,FALSE
"525","A1K6UJSK5JYHM0",TRUE,"15:59:47",5,"Social","Zero",4,0,"Switch",1,"Novel109",1,"Novel52",0,5662,"eyes_down_left",1,1,0,0,0,FALSE,4,FALSE
"526","A1K6UJSK5JYHM0",TRUE,"15:59:47",6,"Social","Zero",4,0,"Switch",1,"Novel102",3,"Novel52",0,6440,"eyescenter",-1,0,1,0,0,TRUE,4,FALSE
"527","A1K6UJSK5JYHM0",TRUE,"15:59:47",7,"Social","Zero",4,1,"Same",0,"Novel59",1,"Novel59",1,2833,"eyes_down_left",1,1,0,0,0,FALSE,4,TRUE
"528","A1K6UJSK5JYHM0",TRUE,"15:59:47",8,"Social","Zero",4,1,"Same",0,"Novel59",0,"Novel59",1,1384,"eyescenter",-1,0,1,0,0,FALSE,4,TRUE
"529","A1K6UJSK5JYHM0",TRUE,"15:59:47",9,"Social","Zero",4,2,"Switch",1,"Novel31",2,"Novel32",1,1954,"eyes_down_right",2,1,0,0,0,FALSE,4,FALSE
"530","A1K6UJSK5JYHM0",TRUE,"15:59:47",10,"Social","Zero",4,2,"Switch",1,"Novel74",0,"Novel32",1,7402,"eyescenter",-1,0,1,0,0,FALSE,4,FALSE
"531","A1K6UJSK5JYHM0",TRUE,"15:59:47",11,"Social","Zero",4,3,"Same",1,"Novel51",1,"Novel51",1,3975,"eyes_down_left",1,1,0,0,0,FALSE,4,TRUE
"532","A1K6UJSK5JYHM0",TRUE,"15:59:47",12,"Social","Zero",4,3,"Same",1,"Novel51",1,"Novel51",1,1612,"eyescenter",-1,0,1,0,0,FALSE,4,TRUE
"533","A1K6UJSK5JYHM0",TRUE,"15:59:47",13,"Social","Zero",4,4,"Switch",0,"Novel37",3,"Novel137",2,2091,"eyes_right",3,1,0,0,0,FALSE,4,FALSE
"534","A1K6UJSK5JYHM0",TRUE,"15:59:47",14,"Social","Zero",4,4,"Switch",0,"Novel137",0,"Novel137",2,7606,"eyescenter",-1,0,1,0,0,FALSE,4,TRUE
"535","A1K6UJSK5JYHM0",TRUE,"15:59:47",15,"Social","Zero",4,5,"Same",0,"Novel112",3,"Novel112",3,2711,"eyes_right",3,1,0,0,0,FALSE,4,TRUE
"536","A1K6UJSK5JYHM0",TRUE,"15:59:47",16,"Social","Zero",4,5,"Same",0,"Novel112",2,"Novel112",3,1513,"eyescenter",-1,0,1,0,0,FALSE,4,TRUE
"537","A1K6UJSK5JYHM0",TRUE,"15:59:47",17,"Social","Zero",4,6,"Switch",0,"Novel119",2,"Novel5",1,1997,"eyes_down_right",2,1,0,0,0,FALSE,4,FALSE
"538","A1K6UJSK5JYHM0",TRUE,"15:59:47",18,"Social","Zero",4,6,"Switch",0,"Novel53",3,"Novel5",1,3148,"eyescenter",-1,0,1,0,0,FALSE,4,FALSE
"539","A1K6UJSK5JYHM0",TRUE,"15:59:47",19,"Social","Zero",4,7,"Same",1,"Novel83",3,"Novel83",3,1675,"eyes_right",3,1,0,0,0,FALSE,4,TRUE
"540","A1K6UJSK5JYHM0",TRUE,"15:59:47",20,"Social","Zero",4,7,"Same",1,"Novel83",3,"Novel83",3,1224,"eyescenter",-1,0,1,0,0,FALSE,4,TRUE
"541","A1KF05U5IO9AFG",TRUE,"14:58:23",1,"No-Social","Seven",4,0,"Same",1,"squirrel",0,"",0,1512,"eyescenter",-1,0,0,1,7,FALSE,4,FALSE
"542","A1KF05U5IO9AFG",TRUE,"14:58:23",2,"No-Social","Seven",4,0,"Same",1,"squirrel",0,"",0,1213,"eyescenter",-1,0,0,1,7,FALSE,4,FALSE
"543","A1KF05U5IO9AFG",TRUE,"14:58:23",3,"No-Social","Seven",4,0,"Same",1,"tomato",1,"",0,1386,"eyescenter",-1,0,0,1,7,FALSE,4,FALSE
"544","A1KF05U5IO9AFG",TRUE,"14:58:23",4,"No-Social","Seven",4,0,"Same",1,"tomato",2,"",0,1291,"eyescenter",-1,0,0,1,7,FALSE,4,FALSE
"545","A1KF05U5IO9AFG",TRUE,"14:58:23",5,"No-Social","Seven",4,0,"Same",1,"Novel135",0,"Novel135",0,2332,"eyescenter",-1,1,0,0,7,FALSE,4,TRUE
"546","A1KF05U5IO9AFG",TRUE,"14:58:23",6,"No-Social","Seven",4,1,"Switch",1,"Novel123",3,"Novel134",0,2072,"eyescenter",-1,1,0,0,7,FALSE,4,FALSE
"547","A1KF05U5IO9AFG",TRUE,"14:58:23",7,"No-Social","Seven",4,2,"Same",0,"Novel136",1,"Novel136",1,1665,"eyescenter",-1,1,0,0,7,FALSE,4,TRUE
"548","A1KF05U5IO9AFG",TRUE,"14:58:23",8,"No-Social","Seven",4,3,"Switch",0,"Novel106",0,"Novel90",2,3144,"eyescenter",-1,1,0,0,7,FALSE,4,FALSE
"549","A1KF05U5IO9AFG",TRUE,"14:58:23",9,"No-Social","Seven",4,4,"Same",0,"Novel7",2,"Novel7",2,2037,"eyescenter",-1,1,0,0,7,FALSE,4,TRUE
"550","A1KF05U5IO9AFG",TRUE,"14:58:23",10,"No-Social","Seven",4,5,"Switch",1,"Novel80",1,"Novel77",2,2589,"eyescenter",-1,1,0,0,7,FALSE,4,FALSE
"551","A1KF05U5IO9AFG",TRUE,"14:58:23",11,"No-Social","Seven",4,6,"Same",1,"Novel45",2,"Novel45",2,1801,"eyescenter",-1,1,0,0,7,FALSE,4,TRUE
"552","A1KF05U5IO9AFG",TRUE,"14:58:23",12,"No-Social","Seven",4,7,"Switch",0,"Novel122",0,"Novel23",2,1610,"eyescenter",-1,1,0,0,7,FALSE,4,FALSE
"553","A1KF05U5IO9AFG",TRUE,"14:58:23",13,"No-Social","Seven",4,0,"Same",1,"Novel135",0,"Novel135",0,2442,"eyescenter",-1,0,1,0,7,TRUE,4,TRUE
"554","A1KF05U5IO9AFG",TRUE,"14:58:23",14,"No-Social","Seven",4,1,"Switch",1,"Novel85",2,"Novel134",0,5184,"eyescenter",-1,0,1,0,7,FALSE,4,FALSE
"555","A1KF05U5IO9AFG",TRUE,"14:58:23",15,"No-Social","Seven",4,2,"Same",0,"Novel136",0,"Novel136",1,1057,"eyescenter",-1,0,1,0,7,FALSE,4,TRUE
"556","A1KF05U5IO9AFG",TRUE,"14:58:23",16,"No-Social","Seven",4,3,"Switch",0,"Novel90",0,"Novel90",2,7790,"eyescenter",-1,0,1,0,7,FALSE,4,TRUE
"557","A1KF05U5IO9AFG",TRUE,"14:58:23",17,"No-Social","Seven",4,4,"Same",0,"Novel7",3,"Novel7",2,1927,"eyescenter",-1,0,1,0,7,FALSE,4,TRUE
"558","A1KF05U5IO9AFG",TRUE,"14:58:23",18,"No-Social","Seven",4,5,"Switch",1,"Novel77",2,"Novel77",2,2873,"eyescenter",-1,0,1,0,7,FALSE,4,TRUE
"559","A1KF05U5IO9AFG",TRUE,"14:58:23",19,"No-Social","Seven",4,6,"Same",1,"Novel45",2,"Novel45",2,1613,"eyescenter",-1,0,1,0,7,FALSE,4,TRUE
"560","A1KF05U5IO9AFG",TRUE,"14:58:23",20,"No-Social","Seven",4,7,"Switch",0,"Novel23",3,"Novel23",2,1821,"eyescenter",-1,0,1,0,7,FALSE,4,TRUE
"561","A1N46FNVCMPGXR",TRUE,"20:02:15",1,"No-Social","Zero",4,0,"Switch",1,"squirrel",0,"",0,5383,"eyescenter",-1,0,0,1,0,FALSE,4,FALSE
"562","A1N46FNVCMPGXR",TRUE,"20:02:15",2,"No-Social","Zero",4,0,"Switch",1,"squirrel",0,"",0,3290,"eyescenter",-1,0,0,1,0,FALSE,4,FALSE
"563","A1N46FNVCMPGXR",TRUE,"20:02:15",3,"No-Social","Zero",4,0,"Switch",1,"tomato",1,"",0,1570,"eyescenter",-1,0,0,1,0,FALSE,4,FALSE
"564","A1N46FNVCMPGXR",TRUE,"20:02:15",4,"No-Social","Zero",4,0,"Switch",1,"tomato",2,"",0,1105,"eyescenter",-1,0,0,1,0,FALSE,4,FALSE
"565","A1N46FNVCMPGXR",TRUE,"20:02:15",5,"No-Social","Zero",4,0,"Switch",1,"Novel32",3,"Novel25",2,9414,"eyescenter",-1,1,0,0,0,FALSE,4,FALSE
"566","A1N46FNVCMPGXR",TRUE,"20:02:15",6,"No-Social","Zero",4,0,"Switch",1,"Novel25",2,"Novel25",2,2972,"eyescenter",-1,0,1,0,0,TRUE,4,TRUE
"567","A1N46FNVCMPGXR",TRUE,"20:02:15",7,"No-Social","Zero",4,1,"Same",0,"Novel70",1,"Novel70",1,2893,"eyescenter",-1,1,0,0,0,FALSE,4,TRUE
"568","A1N46FNVCMPGXR",TRUE,"20:02:15",8,"No-Social","Zero",4,1,"Same",0,"Novel70",3,"Novel70",1,1048,"eyescenter",-1,0,1,0,0,FALSE,4,TRUE
"569","A1N46FNVCMPGXR",TRUE,"20:02:15",9,"No-Social","Zero",4,2,"Switch",0,"Novel110",1,"Novel72",2,1999,"eyescenter",-1,1,0,0,0,FALSE,4,FALSE
"570","A1N46FNVCMPGXR",TRUE,"20:02:15",10,"No-Social","Zero",4,2,"Switch",0,"Novel68",2,"Novel72",2,2157,"eyescenter",-1,0,1,0,0,FALSE,4,FALSE
"571","A1N46FNVCMPGXR",TRUE,"20:02:15",11,"No-Social","Zero",4,3,"Same",1,"Novel91",2,"Novel91",2,3251,"eyescenter",-1,1,0,0,0,FALSE,4,TRUE
"572","A1N46FNVCMPGXR",TRUE,"20:02:15",12,"No-Social","Zero",4,3,"Same",1,"Novel91",2,"Novel91",2,1148,"eyescenter",-1,0,1,0,0,FALSE,4,TRUE
"573","A1N46FNVCMPGXR",TRUE,"20:02:15",13,"No-Social","Zero",4,4,"Switch",0,"Novel15",3,"Novel19",1,1335,"eyescenter",-1,1,0,0,0,FALSE,4,FALSE
"574","A1N46FNVCMPGXR",TRUE,"20:02:15",14,"No-Social","Zero",4,4,"Switch",0,"Novel14",0,"Novel19",1,1545,"eyescenter",-1,0,1,0,0,FALSE,4,FALSE
"575","A1N46FNVCMPGXR",TRUE,"20:02:15",15,"No-Social","Zero",4,5,"Same",0,"Novel131",3,"Novel131",3,1818,"eyescenter",-1,1,0,0,0,FALSE,4,TRUE
"576","A1N46FNVCMPGXR",TRUE,"20:02:15",16,"No-Social","Zero",4,5,"Same",0,"Novel131",2,"Novel131",3,1217,"eyescenter",-1,0,1,0,0,FALSE,4,TRUE
"577","A1N46FNVCMPGXR",TRUE,"20:02:15",17,"No-Social","Zero",4,6,"Switch",1,"Novel136",1,"Novel137",2,1673,"eyescenter",-1,1,0,0,0,FALSE,4,FALSE
"578","A1N46FNVCMPGXR",TRUE,"20:02:15",18,"No-Social","Zero",4,6,"Switch",1,"Novel100",1,"Novel137",2,773,"eyescenter",-1,0,1,0,0,FALSE,4,FALSE
"579","A1N46FNVCMPGXR",TRUE,"20:02:15",19,"No-Social","Zero",4,7,"Same",1,"Novel39",0,"Novel39",0,1266,"eyescenter",-1,1,0,0,0,FALSE,4,TRUE
"580","A1N46FNVCMPGXR",TRUE,"20:02:15",20,"No-Social","Zero",4,7,"Same",1,"Novel54",1,"Novel39",0,56,"eyescenter",-1,0,1,0,0,FALSE,4,FALSE
"581","A1NQWTNVPGU1ZV",TRUE,"20:57:22",1,"No-Social","Zero",4,0,"Switch",1,"squirrel",0,"",0,7808,"eyescenter",-1,0,0,1,0,FALSE,4,FALSE
"582","A1NQWTNVPGU1ZV",TRUE,"20:57:22",2,"No-Social","Zero",4,0,"Switch",1,"squirrel",0,"",0,1115,"eyescenter",-1,0,0,1,0,FALSE,4,FALSE
"583","A1NQWTNVPGU1ZV",TRUE,"20:57:22",3,"No-Social","Zero",4,0,"Switch",1,"tomato",1,"",0,1934,"eyescenter",-1,0,0,1,0,FALSE,4,FALSE
"584","A1NQWTNVPGU1ZV",TRUE,"20:57:22",4,"No-Social","Zero",4,0,"Switch",1,"tomato",2,"",0,2733,"eyescenter",-1,0,0,1,0,FALSE,4,FALSE
"585","A1NQWTNVPGU1ZV",TRUE,"20:57:22",5,"No-Social","Zero",4,0,"Switch",1,"Novel43",2,"Novel107",1,6457,"eyescenter",-1,1,0,0,0,FALSE,4,FALSE
"586","A1NQWTNVPGU1ZV",TRUE,"20:57:22",6,"No-Social","Zero",4,0,"Switch",1,"Novel124",0,"Novel107",1,2265,"eyescenter",-1,0,1,0,0,TRUE,4,FALSE
"587","A1NQWTNVPGU1ZV",TRUE,"20:57:22",7,"No-Social","Zero",4,1,"Same",0,"Novel51",3,"Novel51",3,3847,"eyescenter",-1,1,0,0,0,FALSE,4,TRUE
"588","A1NQWTNVPGU1ZV",TRUE,"20:57:22",8,"No-Social","Zero",4,1,"Same",0,"Novel51",2,"Novel51",3,1739,"eyescenter",-1,0,1,0,0,FALSE,4,TRUE
"589","A1NQWTNVPGU1ZV",TRUE,"20:57:22",9,"No-Social","Zero",4,2,"Switch",0,"Novel87",2,"Novel133",0,2932,"eyescenter",-1,1,0,0,0,FALSE,4,FALSE
"590","A1NQWTNVPGU1ZV",TRUE,"20:57:22",10,"No-Social","Zero",4,2,"Switch",0,"Novel83",1,"Novel133",0,2121,"eyescenter",-1,0,1,0,0,FALSE,4,FALSE
"591","A1NQWTNVPGU1ZV",TRUE,"20:57:22",11,"No-Social","Zero",4,3,"Same",1,"Novel104",3,"Novel104",3,4642,"eyescenter",-1,1,0,0,0,FALSE,4,TRUE
"592","A1NQWTNVPGU1ZV",TRUE,"20:57:22",12,"No-Social","Zero",4,3,"Same",1,"Novel104",3,"Novel104",3,1006,"eyescenter",-1,0,1,0,0,FALSE,4,TRUE
"593","A1NQWTNVPGU1ZV",TRUE,"20:57:22",13,"No-Social","Zero",4,4,"Switch",0,"Novel103",3,"Novel139",1,4151,"eyescenter",-1,1,0,0,0,FALSE,4,FALSE
"594","A1NQWTNVPGU1ZV",TRUE,"20:57:22",14,"No-Social","Zero",4,4,"Switch",0,"Novel38",0,"Novel139",1,4606,"eyescenter",-1,0,1,0,0,FALSE,4,FALSE
"595","A1NQWTNVPGU1ZV",TRUE,"20:57:22",15,"No-Social","Zero",4,5,"Same",1,"Novel22",3,"Novel22",3,2812,"eyescenter",-1,1,0,0,0,FALSE,4,TRUE
"596","A1NQWTNVPGU1ZV",TRUE,"20:57:22",16,"No-Social","Zero",4,5,"Same",1,"Novel22",3,"Novel22",3,1088,"eyescenter",-1,0,1,0,0,FALSE,4,TRUE
"597","A1NQWTNVPGU1ZV",TRUE,"20:57:22",17,"No-Social","Zero",4,6,"Switch",1,"Novel122",2,"Novel25",3,4177,"eyescenter",-1,1,0,0,0,FALSE,4,FALSE
"598","A1NQWTNVPGU1ZV",TRUE,"20:57:22",18,"No-Social","Zero",4,6,"Switch",1,"Novel33",2,"Novel25",3,1554,"eyescenter",-1,0,1,0,0,FALSE,4,FALSE
"599","A1NQWTNVPGU1ZV",TRUE,"20:57:22",19,"No-Social","Zero",4,7,"Same",0,"Novel70",1,"Novel70",1,1971,"eyescenter",-1,1,0,0,0,FALSE,4,TRUE
"600","A1NQWTNVPGU1ZV",TRUE,"20:57:22",20,"No-Social","Zero",4,7,"Same",0,"Novel70",0,"Novel70",1,789,"eyescenter",-1,0,1,0,0,FALSE,4,TRUE
"601","A1O67YS3DU0ZHX",TRUE,"01:57:13",1,"No-Social","Seven",4,0,"Same",1,"squirrel",0,"",0,4097,"eyescenter",-1,0,0,1,7,FALSE,4,FALSE
"602","A1O67YS3DU0ZHX",TRUE,"01:57:13",2,"No-Social","Seven",4,0,"Same",1,"squirrel",0,"",0,1730,"eyescenter",-1,0,0,1,7,FALSE,4,FALSE
"603","A1O67YS3DU0ZHX",TRUE,"01:57:13",3,"No-Social","Seven",4,0,"Same",1,"tomato",1,"",0,1014,"eyescenter",-1,0,0,1,7,FALSE,4,FALSE
"604","A1O67YS3DU0ZHX",TRUE,"01:57:13",4,"No-Social","Seven",4,0,"Same",1,"tomato",2,"",0,839,"eyescenter",-1,0,0,1,7,FALSE,4,FALSE
"605","A1O67YS3DU0ZHX",TRUE,"01:57:13",5,"No-Social","Seven",4,0,"Same",1,"Novel110",1,"Novel110",1,6938,"eyescenter",-1,1,0,0,7,FALSE,4,TRUE
"606","A1O67YS3DU0ZHX",TRUE,"01:57:13",6,"No-Social","Seven",4,1,"Switch",1,"Novel134",1,"Novel26",0,2753,"eyescenter",-1,1,0,0,7,FALSE,4,FALSE
"607","A1O67YS3DU0ZHX",TRUE,"01:57:13",7,"No-Social","Seven",4,2,"Same",0,"Novel48",2,"Novel48",2,3070,"eyescenter",-1,1,0,0,7,FALSE,4,TRUE
"608","A1O67YS3DU0ZHX",TRUE,"01:57:13",8,"No-Social","Seven",4,3,"Switch",0,"Novel129",0,"Novel66",3,4881,"eyescenter",-1,1,0,0,7,FALSE,4,FALSE
"609","A1O67YS3DU0ZHX",TRUE,"01:57:13",9,"No-Social","Seven",4,4,"Same",1,"Novel19",2,"Novel19",2,2016,"eyescenter",-1,1,0,0,7,FALSE,4,TRUE
"610","A1O67YS3DU0ZHX",TRUE,"01:57:13",10,"No-Social","Seven",4,5,"Switch",1,"Novel4",3,"Novel111",2,5222,"eyescenter",-1,1,0,0,7,FALSE,4,FALSE
"611","A1O67YS3DU0ZHX",TRUE,"01:57:13",11,"No-Social","Seven",4,6,"Same",0,"Novel114",1,"Novel114",1,3585,"eyescenter",-1,1,0,0,7,FALSE,4,TRUE
"612","A1O67YS3DU0ZHX",TRUE,"01:57:13",12,"No-Social","Seven",4,7,"Switch",0,"Novel30",1,"Novel112",3,2597,"eyescenter",-1,1,0,0,7,FALSE,4,FALSE
"613","A1O67YS3DU0ZHX",TRUE,"01:57:13",13,"No-Social","Seven",4,0,"Same",1,"Novel95",2,"Novel110",1,3324,"eyescenter",-1,0,1,0,7,TRUE,4,FALSE
"614","A1O67YS3DU0ZHX",TRUE,"01:57:13",14,"No-Social","Seven",4,1,"Switch",1,"Novel24",3,"Novel26",0,5134,"eyescenter",-1,0,1,0,7,FALSE,4,FALSE
"615","A1O67YS3DU0ZHX",TRUE,"01:57:13",15,"No-Social","Seven",4,2,"Same",0,"Novel48",1,"Novel48",2,1760,"eyescenter",-1,0,1,0,7,FALSE,4,TRUE
"616","A1O67YS3DU0ZHX",TRUE,"01:57:13",16,"No-Social","Seven",4,3,"Switch",0,"Novel97",3,"Novel66",3,3289,"eyescenter",-1,0,1,0,7,FALSE,4,FALSE
"617","A1O67YS3DU0ZHX",TRUE,"01:57:13",17,"No-Social","Seven",4,4,"Same",1,"Novel39",3,"Novel19",2,2061,"eyescenter",-1,0,1,0,7,FALSE,4,FALSE
"618","A1O67YS3DU0ZHX",TRUE,"01:57:13",18,"No-Social","Seven",4,5,"Switch",1,"Novel111",2,"Novel111",2,4948,"eyescenter",-1,0,1,0,7,FALSE,4,TRUE
"619","A1O67YS3DU0ZHX",TRUE,"01:57:13",19,"No-Social","Seven",4,6,"Same",0,"Novel98",0,"Novel114",1,5816,"eyescenter",-1,0,1,0,7,FALSE,4,FALSE
"620","A1O67YS3DU0ZHX",TRUE,"01:57:13",20,"No-Social","Seven",4,7,"Switch",0,"Novel105",2,"Novel112",3,4787,"eyescenter",-1,0,1,0,7,FALSE,4,FALSE
"621","A1OF4LT1OZYTDN",TRUE,"14:53:10",1,"No-Social","Three",4,0,"Same",1,"squirrel",0,"",0,7003,"eyescenter",-1,0,0,1,3,FALSE,4,FALSE
"622","A1OF4LT1OZYTDN",TRUE,"14:53:10",2,"No-Social","Three",4,0,"Same",1,"squirrel",0,"",0,1544,"eyescenter",-1,0,0,1,3,FALSE,4,FALSE
"623","A1OF4LT1OZYTDN",TRUE,"14:53:10",3,"No-Social","Three",4,0,"Same",1,"tomato",1,"",0,4056,"eyescenter",-1,0,0,1,3,FALSE,4,FALSE
"624","A1OF4LT1OZYTDN",TRUE,"14:53:10",4,"No-Social","Three",4,0,"Same",1,"tomato",2,"",0,1825,"eyescenter",-1,0,0,1,3,FALSE,4,FALSE
"625","A1OF4LT1OZYTDN",TRUE,"14:53:10",5,"No-Social","Three",4,0,"Same",1,"Novel21",1,"Novel21",1,5673,"eyescenter",-1,1,0,0,3,FALSE,4,TRUE
"626","A1OF4LT1OZYTDN",TRUE,"14:53:10",6,"No-Social","Three",4,1,"Switch",0,"Novel80",2,"Novel67",3,6837,"eyescenter",-1,1,0,0,3,FALSE,4,FALSE
"627","A1OF4LT1OZYTDN",TRUE,"14:53:10",7,"No-Social","Three",4,2,"Same",0,"Novel51",1,"Novel51",1,4113,"eyescenter",-1,1,0,0,3,FALSE,4,TRUE
"628","A1OF4LT1OZYTDN",TRUE,"14:53:10",8,"No-Social","Three",4,3,"Switch",1,"Novel33",1,"Novel61",0,4296,"eyescenter",-1,1,0,0,3,FALSE,4,FALSE
"629","A1OF4LT1OZYTDN",TRUE,"14:53:10",9,"No-Social","Three",4,0,"Same",1,"Novel21",1,"Novel21",1,1897,"eyescenter",-1,0,1,0,3,TRUE,4,TRUE
"630","A1OF4LT1OZYTDN",TRUE,"14:53:10",10,"No-Social","Three",4,1,"Switch",0,"Novel67",0,"Novel67",3,4658,"eyescenter",-1,0,1,0,3,FALSE,4,TRUE
"631","A1OF4LT1OZYTDN",TRUE,"14:53:10",11,"No-Social","Three",4,2,"Same",0,"Novel51",0,"Novel51",1,3356,"eyescenter",-1,0,1,0,3,FALSE,4,TRUE
"632","A1OF4LT1OZYTDN",TRUE,"14:53:10",12,"No-Social","Three",4,3,"Switch",1,"Novel74",3,"Novel61",0,6573,"eyescenter",-1,0,1,0,3,FALSE,4,FALSE
"633","A1OF4LT1OZYTDN",TRUE,"14:53:10",13,"No-Social","Three",4,4,"Same",1,"Novel13",1,"Novel13",1,3421,"eyescenter",-1,1,0,0,3,FALSE,4,TRUE
"634","A1OF4LT1OZYTDN",TRUE,"14:53:10",14,"No-Social","Three",4,5,"Switch",1,"Novel58",2,"Novel49",1,4348,"eyescenter",-1,1,0,0,3,FALSE,4,FALSE
"635","A1OF4LT1OZYTDN",TRUE,"14:53:10",15,"No-Social","Three",4,6,"Same",0,"Novel128",0,"Novel128",0,2748,"eyescenter",-1,1,0,0,3,FALSE,4,TRUE
"636","A1OF4LT1OZYTDN",TRUE,"14:53:10",16,"No-Social","Three",4,7,"Switch",0,"Novel92",3,"Novel96",1,2688,"eyescenter",-1,1,0,0,3,FALSE,4,FALSE
"637","A1OF4LT1OZYTDN",TRUE,"14:53:10",17,"No-Social","Three",4,4,"Same",1,"Novel118",2,"Novel13",1,5111,"eyescenter",-1,0,1,0,3,FALSE,4,FALSE
"638","A1OF4LT1OZYTDN",TRUE,"14:53:10",18,"No-Social","Three",4,5,"Switch",1,"Novel81",0,"Novel49",1,4137,"eyescenter",-1,0,1,0,3,FALSE,4,FALSE
"639","A1OF4LT1OZYTDN",TRUE,"14:53:10",19,"No-Social","Three",4,6,"Same",0,"Novel128",3,"Novel128",0,1911,"eyescenter",-1,0,1,0,3,FALSE,4,TRUE
"640","A1OF4LT1OZYTDN",TRUE,"14:53:10",20,"No-Social","Three",4,7,"Switch",0,"Novel127",1,"Novel96",1,3808,"eyescenter",-1,0,1,0,3,FALSE,4,FALSE
"641","A1OJGQ4X9DG38H",TRUE,"22:00:11",1,"Social","Zero",4,0,"Same",0,"squirrel",0,"",0,3274,"eyescenter",-1,0,0,1,0,FALSE,4,FALSE
"642","A1OJGQ4X9DG38H",TRUE,"22:00:11",2,"Social","Zero",4,0,"Same",0,"squirrel",0,"",0,2182,"eyescenter",-1,0,0,1,0,FALSE,4,FALSE
"643","A1OJGQ4X9DG38H",TRUE,"22:00:11",3,"Social","Zero",4,0,"Same",0,"tomato",1,"",0,1293,"eyescenter",-1,0,0,1,0,FALSE,4,FALSE
"644","A1OJGQ4X9DG38H",TRUE,"22:00:11",4,"Social","Zero",4,0,"Same",0,"tomato",2,"",0,859,"eyescenter",-1,0,0,1,0,FALSE,4,FALSE
"645","A1OJGQ4X9DG38H",TRUE,"22:00:11",5,"Social","Zero",4,0,"Same",0,"Novel24",3,"Novel24",3,4929,"eyes_left",0,1,0,0,0,FALSE,4,TRUE
"646","A1OJGQ4X9DG38H",TRUE,"22:00:11",6,"Social","Zero",4,0,"Same",0,"Novel91",2,"Novel24",3,3415,"eyescenter",-1,0,1,0,0,TRUE,4,FALSE
"647","A1OJGQ4X9DG38H",TRUE,"22:00:11",7,"Social","Zero",4,1,"Switch",1,"Novel75",0,"Novel136",1,1696,"eyes_left",0,1,0,0,0,FALSE,4,FALSE
"648","A1OJGQ4X9DG38H",TRUE,"22:00:11",8,"Social","Zero",4,1,"Switch",1,"Novel92",2,"Novel136",1,5581,"eyescenter",-1,0,1,0,0,FALSE,4,FALSE
"649","A1OJGQ4X9DG38H",TRUE,"22:00:11",9,"Social","Zero",4,2,"Same",1,"Novel17",0,"Novel17",0,2942,"eyes_left",0,1,0,0,0,FALSE,4,TRUE
"650","A1OJGQ4X9DG38H",TRUE,"22:00:11",10,"Social","Zero",4,2,"Same",1,"Novel111",3,"Novel17",0,1464,"eyescenter",-1,0,1,0,0,FALSE,4,FALSE
"651","A1OJGQ4X9DG38H",TRUE,"22:00:11",11,"Social","Zero",4,3,"Switch",0,"Novel139",0,"Novel7",3,6045,"eyes_left",0,1,0,0,0,FALSE,4,FALSE
"652","A1OJGQ4X9DG38H",TRUE,"22:00:11",12,"Social","Zero",4,3,"Switch",0,"Novel7",1,"Novel7",3,2669,"eyescenter",-1,0,1,0,0,FALSE,4,TRUE
"653","A1OJGQ4X9DG38H",TRUE,"22:00:11",13,"Social","Zero",4,4,"Same",0,"Novel117",3,"Novel117",3,2940,"eyes_down_left",1,1,0,0,0,FALSE,4,TRUE
"654","A1OJGQ4X9DG38H",TRUE,"22:00:11",14,"Social","Zero",4,4,"Same",0,"Novel117",0,"Novel117",3,1392,"eyescenter",-1,0,1,0,0,FALSE,4,TRUE
"655","A1OJGQ4X9DG38H",TRUE,"22:00:11",15,"Social","Zero",4,5,"Switch",1,"Novel8",3,"Novel20",2,3004,"eyes_down_left",1,1,0,0,0,FALSE,4,FALSE
"656","A1OJGQ4X9DG38H",TRUE,"22:00:11",16,"Social","Zero",4,5,"Switch",1,"Novel29",1,"Novel20",2,3766,"eyescenter",-1,0,1,0,0,FALSE,4,FALSE
"657","A1OJGQ4X9DG38H",TRUE,"22:00:11",17,"Social","Zero",4,6,"Same",1,"Novel9",3,"Novel9",3,3865,"eyes_down_left",1,1,0,0,0,FALSE,4,TRUE
"658","A1OJGQ4X9DG38H",TRUE,"22:00:11",18,"Social","Zero",4,6,"Same",1,"Novel9",3,"Novel9",3,993,"eyescenter",-1,0,1,0,0,FALSE,4,TRUE
"659","A1OJGQ4X9DG38H",TRUE,"22:00:11",19,"Social","Zero",4,7,"Switch",0,"Novel6",1,"Novel69",2,2240,"eyes_down_right",2,1,0,0,0,FALSE,4,FALSE
"660","A1OJGQ4X9DG38H",TRUE,"22:00:11",20,"Social","Zero",4,7,"Switch",0,"Novel69",1,"Novel69",2,1345,"eyescenter",-1,0,1,0,0,FALSE,4,TRUE
"661","A1PY0FLVDLYLYN",TRUE,"03:44:00",1,"Social","Zero",4,0,"Switch",1,"squirrel",0,"",0,2157,"eyescenter",-1,0,0,1,0,FALSE,4,FALSE
"662","A1PY0FLVDLYLYN",TRUE,"03:44:00",2,"Social","Zero",4,0,"Switch",1,"squirrel",0,"",0,1129,"eyescenter",-1,0,0,1,0,FALSE,4,FALSE
"663","A1PY0FLVDLYLYN",TRUE,"03:44:00",3,"Social","Zero",4,0,"Switch",1,"tomato",1,"",0,1589,"eyescenter",-1,0,0,1,0,FALSE,4,FALSE
"664","A1PY0FLVDLYLYN",TRUE,"03:44:00",4,"Social","Zero",4,0,"Switch",1,"tomato",2,"",0,997,"eyescenter",-1,0,0,1,0,FALSE,4,FALSE
"665","A1PY0FLVDLYLYN",TRUE,"03:44:00",5,"Social","Zero",4,0,"Switch",1,"Novel37",1,"Novel40",2,4510,"eyes_right",3,1,0,0,0,FALSE,4,FALSE
"666","A1PY0FLVDLYLYN",TRUE,"03:44:00",6,"Social","Zero",4,0,"Switch",1,"Novel24",0,"Novel40",2,19657,"eyescenter",-1,0,1,0,0,TRUE,4,FALSE
"667","A1PY0FLVDLYLYN",TRUE,"03:44:00",7,"Social","Zero",4,1,"Same",1,"Novel105",1,"Novel105",1,2880,"eyes_down_right",2,1,0,0,0,FALSE,4,TRUE
"668","A1PY0FLVDLYLYN",TRUE,"03:44:00",8,"Social","Zero",4,1,"Same",1,"Novel105",1,"Novel105",1,831,"eyescenter",-1,0,1,0,0,FALSE,4,TRUE
"669","A1PY0FLVDLYLYN",TRUE,"03:44:00",9,"Social","Zero",4,2,"Switch",1,"Novel46",0,"Novel81",2,2401,"eyes_left",0,1,0,0,0,FALSE,4,FALSE
"670","A1PY0FLVDLYLYN",TRUE,"03:44:00",10,"Social","Zero",4,2,"Switch",1,"Novel130",1,"Novel81",2,4143,"eyescenter",-1,0,1,0,0,FALSE,4,FALSE
"671","A1PY0FLVDLYLYN",TRUE,"03:44:00",11,"Social","Zero",4,3,"Same",0,"Novel78",1,"Novel78",1,1152,"eyes_down_left",1,1,0,0,0,FALSE,4,TRUE
"672","A1PY0FLVDLYLYN",TRUE,"03:44:00",12,"Social","Zero",4,3,"Same",0,"Novel78",3,"Novel78",1,742,"eyescenter",-1,0,1,0,0,FALSE,4,TRUE
"673","A1PY0FLVDLYLYN",TRUE,"03:44:00",13,"Social","Zero",4,4,"Switch",0,"Novel122",1,"Novel93",2,705,"eyes_down_left",1,1,0,0,0,FALSE,4,FALSE
"674","A1PY0FLVDLYLYN",TRUE,"03:44:00",14,"Social","Zero",4,4,"Switch",0,"Novel114",2,"Novel93",2,3684,"eyescenter",-1,0,1,0,0,FALSE,4,FALSE
"675","A1PY0FLVDLYLYN",TRUE,"03:44:00",15,"Social","Zero",4,5,"Same",1,"Novel36",0,"Novel36",0,1346,"eyes_left",0,1,0,0,0,FALSE,4,TRUE
"676","A1PY0FLVDLYLYN",TRUE,"03:44:00",16,"Social","Zero",4,5,"Same",1,"Novel36",0,"Novel36",0,595,"eyescenter",-1,0,1,0,0,FALSE,4,TRUE
"677","A1PY0FLVDLYLYN",TRUE,"03:44:00",17,"Social","Zero",4,6,"Switch",0,"Novel72",2,"Novel77",3,743,"eyes_down_right",2,1,0,0,0,FALSE,4,FALSE
"678","A1PY0FLVDLYLYN",TRUE,"03:44:00",18,"Social","Zero",4,6,"Switch",0,"Novel77",1,"Novel77",3,2608,"eyescenter",-1,0,1,0,0,FALSE,4,TRUE
"679","A1PY0FLVDLYLYN",TRUE,"03:44:00",19,"Social","Zero",4,7,"Same",0,"Novel26",1,"Novel26",1,1460,"eyes_down_left",1,1,0,0,0,FALSE,4,TRUE
"680","A1PY0FLVDLYLYN",TRUE,"03:44:00",20,"Social","Zero",4,7,"Same",0,"Novel26",2,"Novel26",1,830,"eyescenter",-1,0,1,0,0,FALSE,4,TRUE
"681","A1QF5C4CPYIF03",TRUE,"14:36:47",1,"Social","Seven",4,0,"Switch",0,"squirrel",0,"",0,6589,"eyescenter",-1,0,0,1,7,FALSE,4,FALSE
"682","A1QF5C4CPYIF03",TRUE,"14:36:47",2,"Social","Seven",4,0,"Switch",0,"squirrel",0,"",0,4255,"eyescenter",-1,0,0,1,7,FALSE,4,FALSE
"683","A1QF5C4CPYIF03",TRUE,"14:36:47",3,"Social","Seven",4,0,"Switch",0,"tomato",1,"",0,1822,"eyescenter",-1,0,0,1,7,FALSE,4,FALSE
"684","A1QF5C4CPYIF03",TRUE,"14:36:47",4,"Social","Seven",4,0,"Switch",0,"tomato",2,"",0,1305,"eyescenter",-1,0,0,1,7,FALSE,4,FALSE
"685","A1QF5C4CPYIF03",TRUE,"14:36:47",5,"Social","Seven",4,0,"Switch",0,"Novel27",0,"Novel87",1,4651,"eyes_left",0,1,0,0,7,FALSE,4,FALSE
"686","A1QF5C4CPYIF03",TRUE,"14:36:47",6,"Social","Seven",4,1,"Same",0,"Novel88",3,"Novel88",3,2493,"eyes_right",3,1,0,0,7,FALSE,4,TRUE
"687","A1QF5C4CPYIF03",TRUE,"14:36:47",7,"Social","Seven",4,2,"Switch",1,"Novel16",0,"Novel22",2,2200,"eyes_left",0,1,0,0,7,FALSE,4,FALSE
"688","A1QF5C4CPYIF03",TRUE,"14:36:47",8,"Social","Seven",4,3,"Same",1,"Novel24",0,"Novel24",0,2905,"eyes_left",0,1,0,0,7,FALSE,4,TRUE
"689","A1QF5C4CPYIF03",TRUE,"14:36:47",9,"Social","Seven",4,4,"Switch",1,"Novel115",0,"Novel28",2,2078,"eyes_left",0,1,0,0,7,FALSE,4,FALSE
"690","A1QF5C4CPYIF03",TRUE,"14:36:47",10,"Social","Seven",4,5,"Same",1,"Novel11",1,"Novel11",1,3440,"eyes_down_left",1,1,0,0,7,FALSE,4,TRUE
"691","A1QF5C4CPYIF03",TRUE,"14:36:47",11,"Social","Seven",4,6,"Switch",0,"Novel34",0,"Novel127",2,2454,"eyes_left",0,1,0,0,7,FALSE,4,FALSE
"692","A1QF5C4CPYIF03",TRUE,"14:36:47",12,"Social","Seven",4,7,"Same",0,"Novel105",3,"Novel105",3,2648,"eyes_right",3,1,0,0,7,FALSE,4,TRUE
"693","A1QF5C4CPYIF03",TRUE,"14:36:47",13,"Social","Seven",4,0,"Switch",0,"Novel87",2,"Novel87",1,4594,"eyescenter",-1,0,1,0,7,TRUE,4,TRUE
"694","A1QF5C4CPYIF03",TRUE,"14:36:47",14,"Social","Seven",4,1,"Same",0,"Novel88",2,"Novel88",3,1743,"eyescenter",-1,0,1,0,7,FALSE,4,TRUE
"695","A1QF5C4CPYIF03",TRUE,"14:36:47",15,"Social","Seven",4,2,"Switch",1,"Novel47",1,"Novel22",2,4133,"eyescenter",-1,0,1,0,7,FALSE,4,FALSE
"696","A1QF5C4CPYIF03",TRUE,"14:36:47",16,"Social","Seven",4,3,"Same",1,"Novel24",0,"Novel24",0,4279,"eyescenter",-1,0,1,0,7,FALSE,4,TRUE
"697","A1QF5C4CPYIF03",TRUE,"14:36:47",17,"Social","Seven",4,4,"Switch",1,"Novel7",1,"Novel28",2,5709,"eyescenter",-1,0,1,0,7,FALSE,4,FALSE
"698","A1QF5C4CPYIF03",TRUE,"14:36:47",18,"Social","Seven",4,5,"Same",1,"Novel11",1,"Novel11",1,1738,"eyescenter",-1,0,1,0,7,FALSE,4,TRUE
"699","A1QF5C4CPYIF03",TRUE,"14:36:47",19,"Social","Seven",4,6,"Switch",0,"Novel127",0,"Novel127",2,6670,"eyescenter",-1,0,1,0,7,FALSE,4,TRUE
"700","A1QF5C4CPYIF03",TRUE,"14:36:47",20,"Social","Seven",4,7,"Same",0,"Novel105",1,"Novel105",3,2488,"eyescenter",-1,0,1,0,7,FALSE,4,TRUE
"701","A1STNLJYKAIRYW",TRUE,"03:00:28",1,"Social","Zero",4,0,"Switch",0,"squirrel",0,"",0,2380,"eyescenter",-1,0,0,1,0,FALSE,4,FALSE
"702","A1STNLJYKAIRYW",TRUE,"03:00:28",2,"Social","Zero",4,0,"Switch",0,"squirrel",0,"",0,3283,"eyescenter",-1,0,0,1,0,FALSE,4,FALSE
"703","A1STNLJYKAIRYW",TRUE,"03:00:28",3,"Social","Zero",4,0,"Switch",0,"tomato",1,"",0,990,"eyescenter",-1,0,0,1,0,FALSE,4,FALSE
"704","A1STNLJYKAIRYW",TRUE,"03:00:28",4,"Social","Zero",4,0,"Switch",0,"tomato",2,"",0,634,"eyescenter",-1,0,0,1,0,FALSE,4,FALSE
"705","A1STNLJYKAIRYW",TRUE,"03:00:28",5,"Social","Zero",4,0,"Switch",0,"Novel133",2,"Novel37",3,11658,"eyes_right",3,1,0,0,0,FALSE,4,FALSE
"706","A1STNLJYKAIRYW",TRUE,"03:00:28",6,"Social","Zero",4,0,"Switch",0,"Novel37",0,"Novel37",3,2176,"eyescenter",-1,0,1,0,0,TRUE,4,TRUE
"707","A1STNLJYKAIRYW",TRUE,"03:00:28",7,"Social","Zero",4,1,"Same",0,"Novel44",0,"Novel44",0,1326,"eyes_left",0,1,0,0,0,FALSE,4,TRUE
"708","A1STNLJYKAIRYW",TRUE,"03:00:28",8,"Social","Zero",4,1,"Same",0,"Novel44",2,"Novel44",0,897,"eyescenter",-1,0,1,0,0,FALSE,4,TRUE
"709","A1STNLJYKAIRYW",TRUE,"03:00:28",9,"Social","Zero",4,2,"Switch",1,"Novel29",0,"Novel58",2,2272,"eyes_left",0,1,0,0,0,FALSE,4,FALSE
"710","A1STNLJYKAIRYW",TRUE,"03:00:28",10,"Social","Zero",4,2,"Switch",1,"Novel58",2,"Novel58",2,3737,"eyescenter",-1,0,1,0,0,FALSE,4,TRUE
"711","A1STNLJYKAIRYW",TRUE,"03:00:28",11,"Social","Zero",4,3,"Same",1,"Novel45",0,"Novel45",0,2360,"eyes_left",0,1,0,0,0,FALSE,4,TRUE
"712","A1STNLJYKAIRYW",TRUE,"03:00:28",12,"Social","Zero",4,3,"Same",1,"Novel45",0,"Novel45",0,891,"eyescenter",-1,0,1,0,0,FALSE,4,TRUE
"713","A1STNLJYKAIRYW",TRUE,"03:00:28",13,"Social","Zero",4,4,"Switch",0,"Novel76",2,"Novel87",1,2038,"eyes_down_right",2,1,0,0,0,FALSE,4,FALSE
"714","A1STNLJYKAIRYW",TRUE,"03:00:28",14,"Social","Zero",4,4,"Switch",0,"Novel84",1,"Novel87",1,1875,"eyescenter",-1,0,1,0,0,FALSE,4,FALSE
"715","A1STNLJYKAIRYW",TRUE,"03:00:28",15,"Social","Zero",4,5,"Same",0,"Novel33",3,"Novel33",3,1830,"eyes_right",3,1,0,0,0,FALSE,4,TRUE
"716","A1STNLJYKAIRYW",TRUE,"03:00:28",16,"Social","Zero",4,5,"Same",0,"Novel33",0,"Novel33",3,623,"eyescenter",-1,0,1,0,0,FALSE,4,TRUE
