"","subid","submit.date","submit.time","trial.num","itemNum","trialType","samePos","chosen","chosenIdx","kept","keptIdx","rt","face","numPic","interval","condition","test","exposure","day.and.time","include","first.trial","numPicN","intervalN","correct"
"1","A0275582F4QX5N8WTT19","Jan 18 2014","15:42:56",16,7,"Switch",1,"Novel134",0,"Novel56",3,1541,"eyesleftarrow","4","3","soc",0,1,(Jan 18 2014 15:42:56),TRUE,FALSE,4,3,FALSE
"2","A0275582F4QX5N8WTT19","Jan 18 2014","15:42:56",13,4,"Same",1,"Novel52",3,"Novel52",3,1512,"eyesrightarrow","4","3","soc",0,1,(Jan 18 2014 15:42:56),TRUE,FALSE,4,3,TRUE
"3","A0275582F4QX5N8WTT19","Jan 18 2014","15:42:56",14,5,"Switch",1,"Novel137",2,"Novel61",0,2323,"eyesdownrightarrow","4","3","soc",0,1,(Jan 18 2014 15:42:56),TRUE,FALSE,4,3,FALSE
"4","A0275582F4QX5N8WTT19","Jan 18 2014","15:42:56",15,6,"Same",0,"Novel45",0,"Novel45",0,1397,"eyesleftarrow","4","3","soc",0,1,(Jan 18 2014 15:42:56),TRUE,FALSE,4,3,TRUE
"9","A0275582F4QX5N8WTT19","Jan 18 2014","15:42:56",5,0,"Same",1,"Novel86",0,"Novel86",0,8644,"eyesleftarrow","4","3","soc",0,1,(Jan 18 2014 15:42:56),TRUE,FALSE,4,3,TRUE
"10","A0275582F4QX5N8WTT19","Jan 18 2014","15:42:56",6,1,"Switch",0,"Novel136",3,"Novel6",2,4423,"eyesrightarrow","4","3","soc",0,1,(Jan 18 2014 15:42:56),TRUE,FALSE,4,3,FALSE
"11","A0275582F4QX5N8WTT19","Jan 18 2014","15:42:56",7,2,"Same",0,"Novel82",2,"Novel82",2,1876,"eyesdownrightarrow","4","3","soc",0,1,(Jan 18 2014 15:42:56),TRUE,FALSE,4,3,TRUE
"12","A0275582F4QX5N8WTT19","Jan 18 2014","15:42:56",8,3,"Switch",0,"Novel73",1,"Novel67",2,2108,"eyesdownleftarrow","4","3","soc",0,1,(Jan 18 2014 15:42:56),TRUE,FALSE,4,3,FALSE
"13","A0275582F4QX5N8WTT19","Jan 18 2014","15:42:56",9,0,"Same",1,"Novel86",0,"Novel86",0,3963,"eyescenter2","4","3","soc",1,0,(Jan 18 2014 15:42:56),TRUE,TRUE,4,3,TRUE
"14","A0275582F4QX5N8WTT19","Jan 18 2014","15:42:56",10,1,"Switch",0,"Novel7",1,"Novel6",2,5031,"eyescenter2","4","3","soc",1,0,(Jan 18 2014 15:42:56),TRUE,FALSE,4,3,FALSE
"15","A0275582F4QX5N8WTT19","Jan 18 2014","15:42:56",11,2,"Same",0,"Novel82",0,"Novel82",2,4010,"eyescenter2","4","3","soc",1,0,(Jan 18 2014 15:42:56),TRUE,FALSE,4,3,TRUE
"16","A0275582F4QX5N8WTT19","Jan 18 2014","15:42:56",12,3,"Switch",0,"Novel60",2,"Novel67",2,4208,"eyescenter2","4","3","soc",1,0,(Jan 18 2014 15:42:56),TRUE,FALSE,4,3,FALSE
"17","A0275582F4QX5N8WTT19","Jan 18 2014","15:42:56",18,5,"Switch",1,"Novel24",3,"Novel61",0,2986,"eyescenter2","4","3","soc",1,0,(Jan 18 2014 15:42:56),TRUE,FALSE,4,3,FALSE
"18","A0275582F4QX5N8WTT19","Jan 18 2014","15:42:56",19,6,"Same",0,"Novel45",3,"Novel45",0,1762,"eyescenter2","4","3","soc",1,0,(Jan 18 2014 15:42:56),TRUE,FALSE,4,3,TRUE
"19","A0275582F4QX5N8WTT19","Jan 18 2014","15:42:56",20,7,"Switch",1,"Novel23",2,"Novel56",3,5589,"eyescenter2","4","3","soc",1,0,(Jan 18 2014 15:42:56),TRUE,FALSE,4,3,FALSE
"20","A0275582F4QX5N8WTT19","Jan 18 2014","15:42:56",17,4,"Same",1,"Novel52",3,"Novel52",3,2074,"eyescenter2","4","3","soc",1,0,(Jan 18 2014 15:42:56),TRUE,FALSE,4,3,TRUE
"21","A12JZ4O65SKDPI","Jan 18 2014","15:14:39",7,2,"Same",0,"Novel117",3,"Novel117",3,1485,"eyesrightarrow","4","3","soc",0,1,(Jan 18 2014 15:14:39),TRUE,FALSE,4,3,TRUE
"22","A12JZ4O65SKDPI","Jan 18 2014","15:14:39",8,3,"Switch",1,"Novel122",2,"Novel132",3,2070,"eyesdownrightarrow","4","3","soc",0,1,(Jan 18 2014 15:14:39),TRUE,FALSE,4,3,FALSE
"23","A12JZ4O65SKDPI","Jan 18 2014","15:14:39",9,0,"Same",1,"Novel25",3,"Novel25",3,2041,"eyescenter2","4","3","soc",1,0,(Jan 18 2014 15:14:39),TRUE,TRUE,4,3,TRUE
"28","A12JZ4O65SKDPI","Jan 18 2014","15:14:39",5,0,"Same",1,"Novel25",3,"Novel25",3,8238,"eyesrightarrow","4","3","soc",0,1,(Jan 18 2014 15:14:39),TRUE,FALSE,4,3,TRUE
"29","A12JZ4O65SKDPI","Jan 18 2014","15:14:39",6,1,"Switch",0,"Novel15",2,"Novel126",3,2156,"eyesdownrightarrow","4","3","soc",0,1,(Jan 18 2014 15:14:39),TRUE,FALSE,4,3,FALSE
"30","A12JZ4O65SKDPI","Jan 18 2014","15:14:39",20,7,"Switch",1,"Novel23",1,"Novel23",1,2666,"eyescenter2","4","3","soc",1,0,(Jan 18 2014 15:14:39),TRUE,FALSE,4,3,TRUE
"31","A12JZ4O65SKDPI","Jan 18 2014","15:14:39",12,3,"Switch",1,"Novel132",3,"Novel132",3,4303,"eyescenter2","4","3","soc",1,0,(Jan 18 2014 15:14:39),TRUE,FALSE,4,3,TRUE
"32","A12JZ4O65SKDPI","Jan 18 2014","15:14:39",13,4,"Same",0,"Novel22",2,"Novel22",2,1525,"eyesdownrightarrow","4","3","soc",0,1,(Jan 18 2014 15:14:39),TRUE,FALSE,4,3,TRUE
"33","A12JZ4O65SKDPI","Jan 18 2014","15:14:39",10,1,"Switch",0,"Novel21",3,"Novel126",3,5379,"eyescenter2","4","3","soc",1,0,(Jan 18 2014 15:14:39),TRUE,FALSE,4,3,FALSE
"34","A12JZ4O65SKDPI","Jan 18 2014","15:14:39",11,2,"Same",0,"Novel117",2,"Novel117",3,2207,"eyescenter2","4","3","soc",1,0,(Jan 18 2014 15:14:39),TRUE,FALSE,4,3,TRUE
"35","A12JZ4O65SKDPI","Jan 18 2014","15:14:39",16,7,"Switch",1,"Novel120",0,"Novel23",1,1555,"eyesleftarrow","4","3","soc",0,1,(Jan 18 2014 15:14:39),TRUE,FALSE,4,3,FALSE
"36","A12JZ4O65SKDPI","Jan 18 2014","15:14:39",17,4,"Same",0,"Novel22",3,"Novel22",2,1687,"eyescenter2","4","3","soc",1,0,(Jan 18 2014 15:14:39),TRUE,FALSE,4,3,TRUE
"37","A12JZ4O65SKDPI","Jan 18 2014","15:14:39",14,5,"Switch",0,"Novel102",3,"Novel136",0,1474,"eyesrightarrow","4","3","soc",0,1,(Jan 18 2014 15:14:39),TRUE,FALSE,4,3,FALSE
"38","A12JZ4O65SKDPI","Jan 18 2014","15:14:39",15,6,"Same",1,"Novel67",2,"Novel67",2,1165,"eyesdownrightarrow","4","3","soc",0,1,(Jan 18 2014 15:14:39),TRUE,FALSE,4,3,TRUE
"39","A12JZ4O65SKDPI","Jan 18 2014","15:14:39",18,5,"Switch",0,"Novel129",2,"Novel136",0,4235,"eyescenter2","4","3","soc",1,0,(Jan 18 2014 15:14:39),TRUE,FALSE,4,3,FALSE
"40","A12JZ4O65SKDPI","Jan 18 2014","15:14:39",19,6,"Same",1,"Novel67",2,"Novel67",2,1087,"eyescenter2","4","3","soc",1,0,(Jan 18 2014 15:14:39),TRUE,FALSE,4,3,TRUE
"41","A14OLGXAFT9LO5","Dec 02 2013","16:05:24",15,5,"Switch",1,"Novel88",1,"Novel28",3,2413,"eyescenter","4","0","nosoc",0,1,(Dec 02 2013 16:05:24),TRUE,FALSE,4,0,FALSE
"42","A14OLGXAFT9LO5","Dec 02 2013","16:05:24",16,5,"Switch",1,"Novel82",1,"Novel28",3,3049,"eyescenter","4","0","nosoc",1,0,(Dec 02 2013 16:05:24),TRUE,FALSE,4,0,FALSE
"43","A14OLGXAFT9LO5","Dec 02 2013","16:05:24",14,4,"Same",0,"Novel115",1,"Novel115",3,1008,"eyescenter","4","0","nosoc",1,0,(Dec 02 2013 16:05:24),TRUE,FALSE,4,0,TRUE
"48","A14OLGXAFT9LO5","Dec 02 2013","16:05:24",5,0,"Same",1,"Novel46",2,"Novel46",2,8452,"eyescenter","4","0","nosoc",0,1,(Dec 02 2013 16:05:24),TRUE,FALSE,4,0,TRUE
"49","A14OLGXAFT9LO5","Dec 02 2013","16:05:24",6,0,"Same",1,"Novel46",2,"Novel46",2,2477,"eyescenter","4","0","nosoc",1,0,(Dec 02 2013 16:05:24),TRUE,TRUE,4,0,TRUE
"50","A14OLGXAFT9LO5","Dec 02 2013","16:05:24",7,1,"Switch",0,"Novel122",1,"Novel96",3,3765,"eyescenter","4","0","nosoc",0,1,(Dec 02 2013 16:05:24),TRUE,FALSE,4,0,FALSE
"51","A14OLGXAFT9LO5","Dec 02 2013","16:05:24",8,1,"Switch",0,"Novel21",0,"Novel96",3,3357,"eyescenter","4","0","nosoc",1,0,(Dec 02 2013 16:05:24),TRUE,FALSE,4,0,FALSE
"52","A14OLGXAFT9LO5","Dec 02 2013","16:05:24",9,2,"Same",1,"Novel76",3,"Novel76",3,3589,"eyescenter","4","0","nosoc",0,1,(Dec 02 2013 16:05:24),TRUE,FALSE,4,0,TRUE
"53","A14OLGXAFT9LO5","Dec 02 2013","16:05:24",10,2,"Same",1,"Novel76",3,"Novel76",3,1565,"eyescenter","4","0","nosoc",1,0,(Dec 02 2013 16:05:24),TRUE,FALSE,4,0,TRUE
"54","A14OLGXAFT9LO5","Dec 02 2013","16:05:24",11,3,"Switch",1,"Novel80",2,"Novel5",3,3563,"eyescenter","4","0","nosoc",0,1,(Dec 02 2013 16:05:24),TRUE,FALSE,4,0,FALSE
"55","A14OLGXAFT9LO5","Dec 02 2013","16:05:24",12,3,"Switch",1,"Novel64",0,"Novel5",3,2260,"eyescenter","4","0","nosoc",1,0,(Dec 02 2013 16:05:24),TRUE,FALSE,4,0,FALSE
"56","A14OLGXAFT9LO5","Dec 02 2013","16:05:24",13,4,"Same",0,"Novel115",3,"Novel115",3,3221,"eyescenter","4","0","nosoc",0,1,(Dec 02 2013 16:05:24),TRUE,FALSE,4,0,TRUE
"57","A14OLGXAFT9LO5","Dec 02 2013","16:05:24",18,6,"Same",0,"Novel62",1,"Novel62",2,1376,"eyescenter","4","0","nosoc",1,0,(Dec 02 2013 16:05:24),TRUE,FALSE,4,0,TRUE
"58","A14OLGXAFT9LO5","Dec 02 2013","16:05:24",19,7,"Switch",0,"Novel112",1,"Novel139",3,2453,"eyescenter","4","0","nosoc",0,1,(Dec 02 2013 16:05:24),TRUE,FALSE,4,0,FALSE
"59","A14OLGXAFT9LO5","Dec 02 2013","16:05:24",20,7,"Switch",0,"Novel139",0,"Novel139",3,1959,"eyescenter","4","0","nosoc",1,0,(Dec 02 2013 16:05:24),TRUE,FALSE,4,0,TRUE
"60","A14OLGXAFT9LO5","Dec 02 2013","16:05:24",17,6,"Same",0,"Novel62",2,"Novel62",2,3176,"eyescenter","4","0","nosoc",0,1,(Dec 02 2013 16:05:24),TRUE,FALSE,4,0,TRUE
"61","A164RBTU9AO3G7","Dec 05 2013","03:19:34",7,1,"Same",1,"Novel76",1,"Novel76",1,2177,"eyesrightarrow","4","0","soc",0,1,(Dec 05 2013 03:19:34),TRUE,FALSE,4,0,TRUE
"62","A164RBTU9AO3G7","Dec 05 2013","03:19:34",8,1,"Same",1,"Novel76",1,"Novel76",1,1377,"eyescenter2","4","0","soc",1,0,(Dec 05 2013 03:19:34),TRUE,FALSE,4,0,TRUE
"63","A164RBTU9AO3G7","Dec 05 2013","03:19:34",9,2,"Switch",1,"Novel46",3,"Novel79",2,2283,"eyesrightarrow","4","0","soc",0,1,(Dec 05 2013 03:19:34),TRUE,FALSE,4,0,FALSE
"68","A164RBTU9AO3G7","Dec 05 2013","03:19:34",5,0,"Switch",0,"Novel32",3,"Novel27",0,3337,"eyesdownrightarrow","4","0","soc",0,1,(Dec 05 2013 03:19:34),TRUE,FALSE,4,0,FALSE
"69","A164RBTU9AO3G7","Dec 05 2013","03:19:34",6,0,"Switch",0,"Novel109",2,"Novel27",0,3764,"eyescenter2","4","0","soc",1,0,(Dec 05 2013 03:19:34),TRUE,TRUE,4,0,FALSE
"70","A164RBTU9AO3G7","Dec 05 2013","03:19:34",20,7,"Same",1,"Novel24",2,"Novel82",3,2684,"eyescenter2","4","0","soc",1,0,(Dec 05 2013 03:19:34),TRUE,FALSE,4,0,FALSE
"71","A164RBTU9AO3G7","Dec 05 2013","03:19:34",12,3,"Same",0,"Novel83",3,"Novel135",1,3422,"eyescenter2","4","0","soc",1,0,(Dec 05 2013 03:19:34),TRUE,FALSE,4,0,FALSE
"72","A164RBTU9AO3G7","Dec 05 2013","03:19:34",13,4,"Switch",1,"Novel58",2,"Novel140",0,1847,"eyesdownrightarrow","4","0","soc",0,1,(Dec 05 2013 03:19:34),TRUE,FALSE,4,0,FALSE
"73","A164RBTU9AO3G7","Dec 05 2013","03:19:34",10,2,"Switch",1,"Novel25",1,"Novel79",2,1808,"eyescenter2","4","0","soc",1,0,(Dec 05 2013 03:19:34),TRUE,FALSE,4,0,FALSE
"74","A164RBTU9AO3G7","Dec 05 2013","03:19:34",11,3,"Same",0,"Novel135",1,"Novel135",1,4101,"eyesdownrightarrow","4","0","soc",0,1,(Dec 05 2013 03:19:34),TRUE,FALSE,4,0,TRUE
"75","A164RBTU9AO3G7","Dec 05 2013","03:19:34",16,5,"Same",0,"Novel6",0,"Novel39",1,2559,"eyescenter2","4","0","soc",1,0,(Dec 05 2013 03:19:34),TRUE,FALSE,4,0,FALSE
"76","A164RBTU9AO3G7","Dec 05 2013","03:19:34",17,6,"Switch",0,"Novel37",2,"Novel81",1,1832,"eyesdownleftarrow","4","0","soc",0,1,(Dec 05 2013 03:19:34),TRUE,FALSE,4,0,FALSE
"77","A164RBTU9AO3G7","Dec 05 2013","03:19:34",14,4,"Switch",1,"Novel1",3,"Novel140",0,1342,"eyescenter2","4","0","soc",1,0,(Dec 05 2013 03:19:34),TRUE,FALSE,4,0,FALSE
"78","A164RBTU9AO3G7","Dec 05 2013","03:19:34",15,5,"Same",0,"Novel39",1,"Novel39",1,3017,"eyesdownleftarrow","4","0","soc",0,1,(Dec 05 2013 03:19:34),TRUE,FALSE,4,0,TRUE
"79","A164RBTU9AO3G7","Dec 05 2013","03:19:34",18,6,"Switch",0,"Novel106",1,"Novel81",1,1892,"eyescenter2","4","0","soc",1,0,(Dec 05 2013 03:19:34),TRUE,FALSE,4,0,FALSE
"80","A164RBTU9AO3G7","Dec 05 2013","03:19:34",19,7,"Same",1,"Novel82",3,"Novel82",3,3000,"eyesleftarrow","4","0","soc",0,1,(Dec 05 2013 03:19:34),TRUE,FALSE,4,0,TRUE
"81","A16QWUZ58QTD5W","Jan 18 2014","15:25:05",15,6,"Same",1,"Novel118",0,"Novel118",0,1044,"eyesleftarrow","4","3","soc",0,1,(Jan 18 2014 15:25:05),TRUE,FALSE,4,3,TRUE
"82","A16QWUZ58QTD5W","Jan 18 2014","15:25:05",16,7,"Switch",0,"Novel112",1,"Novel28",3,990,"eyesdownleftarrow","4","3","soc",0,1,(Jan 18 2014 15:25:05),TRUE,FALSE,4,3,FALSE
"83","A16QWUZ58QTD5W","Jan 18 2014","15:25:05",14,5,"Switch",0,"Novel26",0,"Novel101",3,1119,"eyesleftarrow","4","3","soc",0,1,(Jan 18 2014 15:25:05),TRUE,FALSE,4,3,FALSE
"88","A16QWUZ58QTD5W","Jan 18 2014","15:25:05",5,0,"Same",0,"Novel114",2,"Novel114",2,8178,"eyesrightarrow","4","3","soc",0,1,(Jan 18 2014 15:25:05),TRUE,FALSE,4,3,TRUE
"89","A16QWUZ58QTD5W","Jan 18 2014","15:25:05",6,1,"Switch",1,"Novel54",1,"Novel34",0,5475,"eyesdownrightarrow","4","3","soc",0,1,(Jan 18 2014 15:25:05),TRUE,FALSE,4,3,FALSE
"90","A16QWUZ58QTD5W","Jan 18 2014","15:25:05",7,2,"Same",1,"Novel64",0,"Novel64",0,2779,"eyesleftarrow","4","3","soc",0,1,(Jan 18 2014 15:25:05),TRUE,FALSE,4,3,TRUE
"91","A16QWUZ58QTD5W","Jan 18 2014","15:25:05",8,3,"Switch",1,"Novel61",1,"Novel53",2,2076,"eyesdownleftarrow","4","3","soc",0,1,(Jan 18 2014 15:25:05),TRUE,FALSE,4,3,FALSE
"92","A16QWUZ58QTD5W","Jan 18 2014","15:25:05",9,0,"Same",0,"Novel114",0,"Novel114",2,4858,"eyescenter2","4","3","soc",1,0,(Jan 18 2014 15:25:05),TRUE,TRUE,4,3,TRUE
"93","A16QWUZ58QTD5W","Jan 18 2014","15:25:05",10,1,"Switch",1,"Novel34",0,"Novel34",0,3354,"eyescenter2","4","3","soc",1,0,(Jan 18 2014 15:25:05),TRUE,FALSE,4,3,TRUE
"94","A16QWUZ58QTD5W","Jan 18 2014","15:25:05",11,2,"Same",1,"Novel78",2,"Novel64",0,1680,"eyescenter2","4","3","soc",1,0,(Jan 18 2014 15:25:05),TRUE,FALSE,4,3,FALSE
"95","A16QWUZ58QTD5W","Jan 18 2014","15:25:05",12,3,"Switch",1,"Novel76",1,"Novel53",2,2012,"eyescenter2","4","3","soc",1,0,(Jan 18 2014 15:25:05),TRUE,FALSE,4,3,FALSE
"96","A16QWUZ58QTD5W","Jan 18 2014","15:25:05",13,4,"Same",0,"Novel51",2,"Novel51",2,1199,"eyesdownrightarrow","4","3","soc",0,1,(Jan 18 2014 15:25:05),TRUE,FALSE,4,3,TRUE
"97","A16QWUZ58QTD5W","Jan 18 2014","15:25:05",17,4,"Same",0,"Novel128",2,"Novel51",2,2058,"eyescenter2","4","3","soc",1,0,(Jan 18 2014 15:25:05),TRUE,FALSE,4,3,FALSE
"98","A16QWUZ58QTD5W","Jan 18 2014","15:25:05",18,5,"Switch",0,"Novel101",1,"Novel101",3,2045,"eyescenter2","4","3","soc",1,0,(Jan 18 2014 15:25:05),TRUE,FALSE,4,3,TRUE
"99","A16QWUZ58QTD5W","Jan 18 2014","15:25:05",19,6,"Same",1,"Novel118",0,"Novel118",0,1771,"eyescenter2","4","3","soc",1,0,(Jan 18 2014 15:25:05),TRUE,FALSE,4,3,TRUE
"100","A16QWUZ58QTD5W","Jan 18 2014","15:25:05",20,7,"Switch",0,"Novel29",2,"Novel28",3,1371,"eyescenter2","4","3","soc",1,0,(Jan 18 2014 15:25:05),TRUE,FALSE,4,3,FALSE
"101","A175ZTL2OZO9YU","Dec 02 2013","16:00:56",6,0,"Switch",0,"Novel137",1,"Novel137",3,3859,"eyescenter","4","0","nosoc",1,0,(Dec 02 2013 16:00:56),TRUE,TRUE,4,0,TRUE
"102","A175ZTL2OZO9YU","Dec 02 2013","16:00:56",7,1,"Same",0,"Novel86",1,"Novel86",1,4150,"eyescenter","4","0","nosoc",0,1,(Dec 02 2013 16:00:56),TRUE,FALSE,4,0,TRUE
"103","A175ZTL2OZO9YU","Dec 02 2013","16:00:56",8,1,"Same",0,"Novel86",2,"Novel86",1,2075,"eyescenter","4","0","nosoc",1,0,(Dec 02 2013 16:00:56),TRUE,FALSE,4,0,TRUE
"104","A175ZTL2OZO9YU","Dec 02 2013","16:00:56",9,2,"Switch",1,"Novel74",2,"Novel120",1,1935,"eyescenter","4","0","nosoc",0,1,(Dec 02 2013 16:00:56),TRUE,FALSE,4,0,FALSE
"109","A175ZTL2OZO9YU","Dec 02 2013","16:00:56",5,0,"Switch",0,"Novel55",0,"Novel137",3,7082,"eyescenter","4","0","nosoc",0,1,(Dec 02 2013 16:00:56),TRUE,FALSE,4,0,FALSE
"110","A175ZTL2OZO9YU","Dec 02 2013","16:00:56",19,7,"Same",1,"Novel123",2,"Novel123",2,1014,"eyescenter","4","0","nosoc",0,1,(Dec 02 2013 16:00:56),TRUE,FALSE,4,0,TRUE
"111","A175ZTL2OZO9YU","Dec 02 2013","16:00:56",20,7,"Same",1,"Novel123",2,"Novel123",2,16,"eyescenter","4","0","nosoc",1,0,(Dec 02 2013 16:00:56),TRUE,FALSE,4,0,TRUE
"112","A175ZTL2OZO9YU","Dec 02 2013","16:00:56",12,3,"Same",0,"Novel36",2,"Novel36",3,124,"eyescenter","4","0","nosoc",1,0,(Dec 02 2013 16:00:56),TRUE,FALSE,4,0,TRUE
"113","A175ZTL2OZO9YU","Dec 02 2013","16:00:56",13,4,"Switch",1,"Novel121",0,"Novel85",2,1623,"eyescenter","4","0","nosoc",0,1,(Dec 02 2013 16:00:56),TRUE,FALSE,4,0,FALSE
"114","A175ZTL2OZO9YU","Dec 02 2013","16:00:56",10,2,"Switch",1,"Novel31",0,"Novel120",1,1623,"eyescenter","4","0","nosoc",1,0,(Dec 02 2013 16:00:56),TRUE,FALSE,4,0,FALSE
"115","A175ZTL2OZO9YU","Dec 02 2013","16:00:56",11,3,"Same",0,"Novel36",3,"Novel36",3,2761,"eyescenter","4","0","nosoc",0,1,(Dec 02 2013 16:00:56),TRUE,FALSE,4,0,TRUE
"116","A175ZTL2OZO9YU","Dec 02 2013","16:00:56",16,5,"Same",1,"Novel20",2,"Novel20",2,109,"eyescenter","4","0","nosoc",1,0,(Dec 02 2013 16:00:56),TRUE,FALSE,4,0,TRUE
"117","A175ZTL2OZO9YU","Dec 02 2013","16:00:56",17,6,"Switch",0,"Novel14",1,"Novel17",0,1606,"eyescenter","4","0","nosoc",0,1,(Dec 02 2013 16:00:56),TRUE,FALSE,4,0,FALSE
"118","A175ZTL2OZO9YU","Dec 02 2013","16:00:56",14,4,"Switch",1,"Novel23",0,"Novel85",2,655,"eyescenter","4","0","nosoc",1,0,(Dec 02 2013 16:00:56),TRUE,FALSE,4,0,FALSE
"119","A175ZTL2OZO9YU","Dec 02 2013","16:00:56",15,5,"Same",1,"Novel20",2,"Novel20",2,1342,"eyescenter","4","0","nosoc",0,1,(Dec 02 2013 16:00:56),TRUE,FALSE,4,0,TRUE
"120","A175ZTL2OZO9YU","Dec 02 2013","16:00:56",18,6,"Switch",0,"Novel63",2,"Novel17",0,265,"eyescenter","4","0","nosoc",1,0,(Dec 02 2013 16:00:56),TRUE,FALSE,4,0,FALSE
"121","A18O959BLI9ZMM","Dec 05 2013","04:36:12",17,6,"Same",0,"Novel127",1,"Novel127",1,1513,"eyesdownleftarrow","4","0","soc",0,1,(Dec 05 2013 04:36:12),TRUE,FALSE,4,0,TRUE
"122","A18O959BLI9ZMM","Dec 05 2013","04:36:12",18,6,"Same",0,"Novel127",3,"Novel127",1,1685,"eyescenter2","4","0","soc",1,0,(Dec 05 2013 04:36:12),TRUE,FALSE,4,0,TRUE
"123","A18O959BLI9ZMM","Dec 05 2013","04:36:12",15,5,"Switch",1,"Novel1",0,"Novel59",1,1560,"eyesleftarrow","4","0","soc",0,1,(Dec 05 2013 04:36:12),TRUE,FALSE,4,0,FALSE
"124","A18O959BLI9ZMM","Dec 05 2013","04:36:12",16,5,"Switch",1,"Novel94",2,"Novel59",1,1669,"eyescenter2","4","0","soc",1,0,(Dec 05 2013 04:36:12),TRUE,FALSE,4,0,FALSE
"129","A18O959BLI9ZMM","Dec 05 2013","04:36:12",5,0,"Same",1,"Novel93",1,"Novel93",1,2168,"eyesdownleftarrow","4","0","soc",0,1,(Dec 05 2013 04:36:12),TRUE,FALSE,4,0,TRUE
"130","A18O959BLI9ZMM","Dec 05 2013","04:36:12",6,0,"Same",1,"Novel93",1,"Novel93",1,2216,"eyescenter2","4","0","soc",1,0,(Dec 05 2013 04:36:12),TRUE,TRUE,4,0,TRUE
"131","A18O959BLI9ZMM","Dec 05 2013","04:36:12",7,1,"Switch",0,"Novel80",0,"Novel26",3,812,"eyesleftarrow","4","0","soc",0,1,(Dec 05 2013 04:36:12),TRUE,FALSE,4,0,FALSE
"132","A18O959BLI9ZMM","Dec 05 2013","04:36:12",8,1,"Switch",0,"Novel26",2,"Novel26",3,1996,"eyescenter2","4","0","soc",1,0,(Dec 05 2013 04:36:12),TRUE,FALSE,4,0,TRUE
"133","A18O959BLI9ZMM","Dec 05 2013","04:36:12",9,2,"Same",0,"Novel47",3,"Novel47",3,2412,"eyesrightarrow","4","0","soc",0,1,(Dec 05 2013 04:36:12),TRUE,FALSE,4,0,TRUE
"134","A18O959BLI9ZMM","Dec 05 2013","04:36:12",10,2,"Same",0,"Novel47",2,"Novel47",3,671,"eyescenter2","4","0","soc",1,0,(Dec 05 2013 04:36:12),TRUE,FALSE,4,0,TRUE
"135","A18O959BLI9ZMM","Dec 05 2013","04:36:12",11,3,"Switch",1,"Novel54",1,"Novel46",3,1201,"eyesdownleftarrow","4","0","soc",0,1,(Dec 05 2013 04:36:12),TRUE,FALSE,4,0,FALSE
"136","A18O959BLI9ZMM","Dec 05 2013","04:36:12",12,3,"Switch",1,"Novel56",2,"Novel46",3,1716,"eyescenter2","4","0","soc",1,0,(Dec 05 2013 04:36:12),TRUE,FALSE,4,0,FALSE
"137","A18O959BLI9ZMM","Dec 05 2013","04:36:12",13,4,"Same",1,"Novel75",0,"Novel75",0,952,"eyesleftarrow","4","0","soc",0,1,(Dec 05 2013 04:36:12),TRUE,FALSE,4,0,TRUE
"138","A18O959BLI9ZMM","Dec 05 2013","04:36:12",14,4,"Same",1,"Novel5",1,"Novel75",0,1685,"eyescenter2","4","0","soc",1,0,(Dec 05 2013 04:36:12),TRUE,FALSE,4,0,FALSE
"139","A18O959BLI9ZMM","Dec 05 2013","04:36:12",19,7,"Switch",0,"Novel9",2,"Novel17",0,1825,"eyesdownrightarrow","4","0","soc",0,1,(Dec 05 2013 04:36:12),TRUE,FALSE,4,0,FALSE
"140","A18O959BLI9ZMM","Dec 05 2013","04:36:12",20,7,"Switch",0,"Novel17",1,"Novel17",0,796,"eyescenter2","4","0","soc",1,0,(Dec 05 2013 04:36:12),TRUE,FALSE,4,0,TRUE
"141","A1BM57TUNAQIXM","Dec 05 2013","03:34:48",10,2,"Switch",1,"Novel32",1,"Novel97",2,4024,"eyescenter2","4","0","soc",1,0,(Dec 05 2013 03:34:48),TRUE,FALSE,4,0,FALSE
"142","A1BM57TUNAQIXM","Dec 05 2013","03:34:48",11,3,"Same",0,"Novel110",0,"Novel110",0,1244,"eyesleftarrow","4","0","soc",0,1,(Dec 05 2013 03:34:48),TRUE,FALSE,4,0,TRUE
"147","A1BM57TUNAQIXM","Dec 05 2013","03:34:48",5,0,"Switch",0,"Novel138",3,"Novel2",1,2203,"eyesrightarrow","4","0","soc",0,1,(Dec 05 2013 03:34:48),TRUE,FALSE,4,0,FALSE
"148","A1BM57TUNAQIXM","Dec 05 2013","03:34:48",6,0,"Switch",0,"Novel2",2,"Novel2",1,5218,"eyescenter2","4","0","soc",1,0,(Dec 05 2013 03:34:48),TRUE,TRUE,4,0,TRUE
"149","A1BM57TUNAQIXM","Dec 05 2013","03:34:48",7,1,"Same",0,"Novel56",3,"Novel56",3,2560,"eyesrightarrow","4","0","soc",0,1,(Dec 05 2013 03:34:48),TRUE,FALSE,4,0,TRUE
"150","A1BM57TUNAQIXM","Dec 05 2013","03:34:48",8,1,"Same",0,"Novel56",0,"Novel56",3,1299,"eyescenter2","4","0","soc",1,0,(Dec 05 2013 03:34:48),TRUE,FALSE,4,0,TRUE
"151","A1BM57TUNAQIXM","Dec 05 2013","03:34:48",9,2,"Switch",1,"Novel69",1,"Novel97",2,1953,"eyesdownleftarrow","4","0","soc",0,1,(Dec 05 2013 03:34:48),TRUE,FALSE,4,0,FALSE
"152","A1BM57TUNAQIXM","Dec 05 2013","03:34:48",14,4,"Switch",1,"Novel140",2,"Novel34",1,880,"eyescenter2","4","0","soc",1,0,(Dec 05 2013 03:34:48),TRUE,FALSE,4,0,FALSE
"153","A1BM57TUNAQIXM","Dec 05 2013","03:34:48",15,5,"Same",1,"Novel50",0,"Novel50",0,1400,"eyesleftarrow","4","0","soc",0,1,(Dec 05 2013 03:34:48),TRUE,FALSE,4,0,TRUE
"154","A1BM57TUNAQIXM","Dec 05 2013","03:34:48",12,3,"Same",0,"Novel110",3,"Novel110",0,915,"eyescenter2","4","0","soc",1,0,(Dec 05 2013 03:34:48),TRUE,FALSE,4,0,TRUE
"155","A1BM57TUNAQIXM","Dec 05 2013","03:34:48",13,4,"Switch",1,"Novel114",3,"Novel34",1,1325,"eyesrightarrow","4","0","soc",0,1,(Dec 05 2013 03:34:48),TRUE,FALSE,4,0,FALSE
"156","A1BM57TUNAQIXM","Dec 05 2013","03:34:48",18,6,"Switch",0,"Novel115",2,"Novel55",2,950,"eyescenter2","4","0","soc",1,0,(Dec 05 2013 03:34:48),TRUE,FALSE,4,0,FALSE
"157","A1BM57TUNAQIXM","Dec 05 2013","03:34:48",19,7,"Same",1,"Novel10",3,"Novel10",3,1066,"eyesrightarrow","4","0","soc",0,1,(Dec 05 2013 03:34:48),TRUE,FALSE,4,0,TRUE
"158","A1BM57TUNAQIXM","Dec 05 2013","03:34:48",16,5,"Same",1,"Novel50",0,"Novel50",0,1173,"eyescenter2","4","0","soc",1,0,(Dec 05 2013 03:34:48),TRUE,FALSE,4,0,TRUE
"159","A1BM57TUNAQIXM","Dec 05 2013","03:34:48",17,6,"Switch",0,"Novel44",1,"Novel55",2,1208,"eyesdownleftarrow","4","0","soc",0,1,(Dec 05 2013 03:34:48),TRUE,FALSE,4,0,FALSE
"160","A1BM57TUNAQIXM","Dec 05 2013","03:34:48",20,7,"Same",1,"Novel10",3,"Novel10",3,1059,"eyescenter2","4","0","soc",1,0,(Dec 05 2013 03:34:48),TRUE,FALSE,4,0,TRUE
"161","A1BT5I6JC2U1L4","Jan 19 2014","10:11:34",17,4,"Same",0,"Novel44",0,"Novel44",1,1952,"eyescenter","4","3","nosoc",1,0,(Jan 19 2014 10:11:34),TRUE,FALSE,4,3,TRUE
"162","A1BT5I6JC2U1L4","Jan 19 2014","10:11:34",18,5,"Switch",0,"Novel59",1,"Novel38",3,9764,"eyescenter","4","3","nosoc",1,0,(Jan 19 2014 10:11:34),TRUE,FALSE,4,3,FALSE
"167","A1BT5I6JC2U1L4","Jan 19 2014","10:11:34",5,0,"Same",1,"Novel12",1,"Novel12",1,9499,"eyesdownleft","4","3","nosoc",0,1,(Jan 19 2014 10:11:34),TRUE,FALSE,4,3,TRUE
"168","A1BT5I6JC2U1L4","Jan 19 2014","10:11:34",6,1,"Switch",1,"Novel47",1,"Novel91",2,3789,"eyesleft","4","3","nosoc",0,1,(Jan 19 2014 10:11:34),TRUE,FALSE,4,3,FALSE
"169","A1BT5I6JC2U1L4","Jan 19 2014","10:11:34",7,2,"Same",1,"Novel88",1,"Novel88",1,2674,"eyesleft","4","3","nosoc",0,1,(Jan 19 2014 10:11:34),TRUE,FALSE,4,3,TRUE
"170","A1BT5I6JC2U1L4","Jan 19 2014","10:11:34",8,3,"Switch",0,"Novel56",1,"Novel130",3,2220,"eyesright","4","3","nosoc",0,1,(Jan 19 2014 10:11:34),TRUE,FALSE,4,3,FALSE
"171","A1BT5I6JC2U1L4","Jan 19 2014","10:11:34",9,0,"Same",1,"Novel12",1,"Novel12",1,1347,"eyescenter","4","3","nosoc",1,0,(Jan 19 2014 10:11:34),TRUE,TRUE,4,3,TRUE
"172","A1BT5I6JC2U1L4","Jan 19 2014","10:11:34",10,1,"Switch",1,"Novel27",1,"Novel91",2,5673,"eyescenter","4","3","nosoc",1,0,(Jan 19 2014 10:11:34),TRUE,FALSE,4,3,FALSE
"173","A1BT5I6JC2U1L4","Jan 19 2014","10:11:34",11,2,"Same",1,"Novel88",1,"Novel88",1,1450,"eyescenter","4","3","nosoc",1,0,(Jan 19 2014 10:11:34),TRUE,FALSE,4,3,TRUE
"174","A1BT5I6JC2U1L4","Jan 19 2014","10:11:34",12,3,"Switch",0,"Novel115",1,"Novel130",3,6220,"eyescenter","4","3","nosoc",1,0,(Jan 19 2014 10:11:34),TRUE,FALSE,4,3,FALSE
"175","A1BT5I6JC2U1L4","Jan 19 2014","10:11:34",13,4,"Same",0,"Novel44",1,"Novel44",1,4763,"eyesleft","4","3","nosoc",0,1,(Jan 19 2014 10:11:34),TRUE,FALSE,4,3,TRUE
"176","A1BT5I6JC2U1L4","Jan 19 2014","10:11:34",14,5,"Switch",0,"Novel54",1,"Novel38",3,2343,"eyesleft","4","3","nosoc",0,1,(Jan 19 2014 10:11:34),TRUE,FALSE,4,3,FALSE
"177","A1BT5I6JC2U1L4","Jan 19 2014","10:11:34",15,6,"Same",0,"Novel53",1,"Novel53",1,2348,"eyesright","4","3","nosoc",0,1,(Jan 19 2014 10:11:34),TRUE,FALSE,4,3,TRUE
"178","A1BT5I6JC2U1L4","Jan 19 2014","10:11:34",16,7,"Switch",1,"Novel123",1,"Novel58",2,1804,"eyesdownleft","4","3","nosoc",0,1,(Jan 19 2014 10:11:34),TRUE,FALSE,4,3,FALSE
"179","A1BT5I6JC2U1L4","Jan 19 2014","10:11:34",19,6,"Same",0,"Novel53",3,"Novel53",1,2118,"eyescenter","4","3","nosoc",1,0,(Jan 19 2014 10:11:34),TRUE,FALSE,4,3,TRUE
"180","A1BT5I6JC2U1L4","Jan 19 2014","10:11:34",20,7,"Switch",1,"Novel50",1,"Novel58",2,5001,"eyescenter","4","3","nosoc",1,0,(Jan 19 2014 10:11:34),TRUE,FALSE,4,3,FALSE
"181","A1DBE2OL84TBKB","Jan 18 2014","15:10:46",10,1,"Same",0,"Novel38",3,"Novel38",1,1358,"eyescenter2","4","3","soc",1,0,(Jan 18 2014 15:10:46),TRUE,FALSE,4,3,TRUE
"182","A1DBE2OL84TBKB","Jan 18 2014","15:10:46",11,2,"Switch",1,"Novel78",1,"Novel10",0,3846,"eyescenter2","4","3","soc",1,0,(Jan 18 2014 15:10:46),TRUE,FALSE,4,3,FALSE
"187","A1DBE2OL84TBKB","Jan 18 2014","15:10:46",5,0,"Switch",1,"Novel58",0,"Novel127",3,1888,"eyesleftarrow","4","3","soc",0,1,(Jan 18 2014 15:10:46),TRUE,FALSE,4,3,FALSE
"188","A1DBE2OL84TBKB","Jan 18 2014","15:10:46",6,1,"Same",0,"Novel38",1,"Novel38",1,1984,"eyesdownleftarrow","4","3","soc",0,1,(Jan 18 2014 15:10:46),TRUE,FALSE,4,3,TRUE
"189","A1DBE2OL84TBKB","Jan 18 2014","15:10:46",7,2,"Switch",1,"Novel21",2,"Novel10",0,1734,"eyesdownrightarrow","4","3","soc",0,1,(Jan 18 2014 15:10:46),TRUE,FALSE,4,3,FALSE
"190","A1DBE2OL84TBKB","Jan 18 2014","15:10:46",8,3,"Same",0,"Novel16",3,"Novel16",3,1458,"eyesrightarrow","4","3","soc",0,1,(Jan 18 2014 15:10:46),TRUE,FALSE,4,3,TRUE
"191","A1DBE2OL84TBKB","Jan 18 2014","15:10:46",9,0,"Switch",1,"Novel127",3,"Novel127",3,7742,"eyescenter2","4","3","soc",1,0,(Jan 18 2014 15:10:46),TRUE,TRUE,4,3,TRUE
"192","A1DBE2OL84TBKB","Jan 18 2014","15:10:46",14,5,"Same",1,"Novel88",0,"Novel88",0,1062,"eyesleftarrow","4","3","soc",0,1,(Jan 18 2014 15:10:46),TRUE,FALSE,4,3,TRUE
"193","A1DBE2OL84TBKB","Jan 18 2014","15:10:46",15,6,"Switch",0,"Novel108",0,"Novel119",2,1962,"eyesleftarrow","4","3","soc",0,1,(Jan 18 2014 15:10:46),TRUE,FALSE,4,3,FALSE
"194","A1DBE2OL84TBKB","Jan 18 2014","15:10:46",12,3,"Same",0,"Novel16",0,"Novel16",3,1850,"eyescenter2","4","3","soc",1,0,(Jan 18 2014 15:10:46),TRUE,FALSE,4,3,TRUE
"195","A1DBE2OL84TBKB","Jan 18 2014","15:10:46",13,4,"Switch",0,"Novel86",0,"Novel93",1,3482,"eyesleftarrow","4","3","soc",0,1,(Jan 18 2014 15:10:46),TRUE,FALSE,4,3,FALSE
"196","A1DBE2OL84TBKB","Jan 18 2014","15:10:46",18,5,"Same",1,"Novel88",0,"Novel88",0,1788,"eyescenter2","4","3","soc",1,0,(Jan 18 2014 15:10:46),TRUE,FALSE,4,3,TRUE
"197","A1DBE2OL84TBKB","Jan 18 2014","15:10:46",19,6,"Switch",0,"Novel119",1,"Novel119",2,1328,"eyescenter2","4","3","soc",1,0,(Jan 18 2014 15:10:46),TRUE,FALSE,4,3,TRUE
"198","A1DBE2OL84TBKB","Jan 18 2014","15:10:46",16,7,"Same",1,"Novel84",2,"Novel84",2,886,"eyesdownrightarrow","4","3","soc",0,1,(Jan 18 2014 15:10:46),TRUE,FALSE,4,3,TRUE
"199","A1DBE2OL84TBKB","Jan 18 2014","15:10:46",17,4,"Switch",0,"Novel93",2,"Novel93",1,1422,"eyescenter2","4","3","soc",1,0,(Jan 18 2014 15:10:46),TRUE,FALSE,4,3,TRUE
"200","A1DBE2OL84TBKB","Jan 18 2014","15:10:46",20,7,"Same",1,"Novel84",2,"Novel84",2,1915,"eyescenter2","4","3","soc",1,0,(Jan 18 2014 15:10:46),TRUE,FALSE,4,3,TRUE
"201","A1DVCUCOTAC0JQ","Dec 05 2013","04:28:42",17,6,"Switch",0,"Novel102",3,"Novel100",1,1322,"eyesdownleftarrow","4","0","soc",0,1,(Dec 05 2013 04:28:42),TRUE,FALSE,4,0,FALSE
"202","A1DVCUCOTAC0JQ","Dec 05 2013","04:28:42",18,6,"Switch",0,"Novel115",1,"Novel100",1,2495,"eyescenter2","4","0","soc",1,0,(Dec 05 2013 04:28:42),TRUE,FALSE,4,0,FALSE
"207","A1DVCUCOTAC0JQ","Dec 05 2013","04:28:42",5,0,"Switch",0,"Novel107",1,"Novel111",2,1520,"eyesleftarrow","4","0","soc",0,1,(Dec 05 2013 04:28:42),TRUE,FALSE,4,0,FALSE
"208","A1DVCUCOTAC0JQ","Dec 05 2013","04:28:42",6,0,"Switch",0,"Novel111",1,"Novel111",2,3161,"eyescenter2","4","0","soc",1,0,(Dec 05 2013 04:28:42),TRUE,TRUE,4,0,TRUE
"209","A1DVCUCOTAC0JQ","Dec 05 2013","04:28:42",7,1,"Same",0,"Novel35",3,"Novel35",3,2738,"eyesrightarrow","4","0","soc",0,1,(Dec 05 2013 04:28:42),TRUE,FALSE,4,0,TRUE
"210","A1DVCUCOTAC0JQ","Dec 05 2013","04:28:42",8,1,"Same",0,"Novel96",3,"Novel35",3,3453,"eyescenter2","4","0","soc",1,0,(Dec 05 2013 04:28:42),TRUE,FALSE,4,0,FALSE
"211","A1DVCUCOTAC0JQ","Dec 05 2013","04:28:42",9,2,"Switch",1,"Novel38",3,"Novel16",2,3371,"eyesrightarrow","4","0","soc",0,1,(Dec 05 2013 04:28:42),TRUE,FALSE,4,0,FALSE
"212","A1DVCUCOTAC0JQ","Dec 05 2013","04:28:42",10,2,"Switch",1,"Novel16",2,"Novel16",2,2452,"eyescenter2","4","0","soc",1,0,(Dec 05 2013 04:28:42),TRUE,FALSE,4,0,TRUE
"213","A1DVCUCOTAC0JQ","Dec 05 2013","04:28:42",11,3,"Same",1,"Novel105",3,"Novel105",3,1494,"eyesrightarrow","4","0","soc",0,1,(Dec 05 2013 04:28:42),TRUE,FALSE,4,0,TRUE
"214","A1DVCUCOTAC0JQ","Dec 05 2013","04:28:42",12,3,"Same",1,"Novel83",1,"Novel105",3,1894,"eyescenter2","4","0","soc",1,0,(Dec 05 2013 04:28:42),TRUE,FALSE,4,0,FALSE
"215","A1DVCUCOTAC0JQ","Dec 05 2013","04:28:42",13,4,"Switch",1,"Novel124",1,"Novel6",0,2714,"eyesdownrightarrow","4","0","soc",0,1,(Dec 05 2013 04:28:42),TRUE,FALSE,4,0,FALSE
"216","A1DVCUCOTAC0JQ","Dec 05 2013","04:28:42",14,4,"Switch",1,"Novel6",0,"Novel6",0,3313,"eyescenter2","4","0","soc",1,0,(Dec 05 2013 04:28:42),TRUE,FALSE,4,0,TRUE
"217","A1DVCUCOTAC0JQ","Dec 05 2013","04:28:42",15,5,"Same",1,"Novel43",0,"Novel43",0,1634,"eyesleftarrow","4","0","soc",0,1,(Dec 05 2013 04:28:42),TRUE,FALSE,4,0,TRUE
"218","A1DVCUCOTAC0JQ","Dec 05 2013","04:28:42",16,5,"Same",1,"Novel122",3,"Novel43",0,1522,"eyescenter2","4","0","soc",1,0,(Dec 05 2013 04:28:42),TRUE,FALSE,4,0,FALSE
"219","A1DVCUCOTAC0JQ","Dec 05 2013","04:28:42",20,7,"Same",0,"Novel64",2,"Novel93",2,3351,"eyescenter2","4","0","soc",1,0,(Dec 05 2013 04:28:42),TRUE,FALSE,4,0,FALSE
"220","A1DVCUCOTAC0JQ","Dec 05 2013","04:28:42",19,7,"Same",0,"Novel93",2,"Novel93",2,1916,"eyesrightarrow","4","0","soc",0,1,(Dec 05 2013 04:28:42),TRUE,FALSE,4,0,TRUE
"221","A1E8WU0ER9WT88","Jan 18 2014","15:13:32",10,1,"Same",1,"Novel24",1,"Novel61",3,8014,"eyescenter2","4","3","soc",1,0,(Jan 18 2014 15:13:32),TRUE,FALSE,4,3,FALSE
"222","A1E8WU0ER9WT88","Jan 18 2014","15:13:32",11,2,"Switch",0,"Novel85",2,"Novel30",1,2757,"eyescenter2","4","3","soc",1,0,(Jan 18 2014 15:13:32),TRUE,FALSE,4,3,FALSE
"223","A1E8WU0ER9WT88","Jan 18 2014","15:13:32",9,0,"Switch",0,"Novel44",3,"Novel95",3,7668,"eyescenter2","4","3","soc",1,0,(Jan 18 2014 15:13:32),TRUE,TRUE,4,3,FALSE
"228","A1E8WU0ER9WT88","Jan 18 2014","15:13:32",5,0,"Switch",0,"Novel100",1,"Novel95",3,5052,"eyesdownleftarrow","4","3","soc",0,1,(Jan 18 2014 15:13:32),TRUE,FALSE,4,3,FALSE
"229","A1E8WU0ER9WT88","Jan 18 2014","15:13:32",6,1,"Same",1,"Novel61",3,"Novel61",3,2683,"eyesrightarrow","4","3","soc",0,1,(Jan 18 2014 15:13:32),TRUE,FALSE,4,3,TRUE
"230","A1E8WU0ER9WT88","Jan 18 2014","15:13:32",7,2,"Switch",0,"Novel115",3,"Novel30",1,3636,"eyesrightarrow","4","3","soc",0,1,(Jan 18 2014 15:13:32),TRUE,FALSE,4,3,FALSE
"231","A1E8WU0ER9WT88","Jan 18 2014","15:13:32",8,3,"Same",0,"Novel16",3,"Novel16",3,2827,"eyesrightarrow","4","3","soc",0,1,(Jan 18 2014 15:13:32),TRUE,FALSE,4,3,TRUE
"232","A1E8WU0ER9WT88","Jan 18 2014","15:13:32",13,4,"Switch",1,"Novel20",1,"Novel41",0,1895,"eyesdownleftarrow","4","3","soc",0,1,(Jan 18 2014 15:13:32),TRUE,FALSE,4,3,FALSE
"233","A1E8WU0ER9WT88","Jan 18 2014","15:13:32",14,5,"Same",1,"Novel7",3,"Novel7",3,1855,"eyesrightarrow","4","3","soc",0,1,(Jan 18 2014 15:13:32),TRUE,FALSE,4,3,TRUE
"234","A1E8WU0ER9WT88","Jan 18 2014","15:13:32",15,6,"Switch",1,"Novel36",1,"Novel94",2,1530,"eyesdownleftarrow","4","3","soc",0,1,(Jan 18 2014 15:13:32),TRUE,FALSE,4,3,FALSE
"235","A1E8WU0ER9WT88","Jan 18 2014","15:13:32",12,3,"Same",0,"Novel3",0,"Novel16",3,2797,"eyescenter2","4","3","soc",1,0,(Jan 18 2014 15:13:32),TRUE,FALSE,4,3,FALSE
"236","A1E8WU0ER9WT88","Jan 18 2014","15:13:32",17,4,"Switch",1,"Novel124",3,"Novel41",0,4446,"eyescenter2","4","3","soc",1,0,(Jan 18 2014 15:13:32),TRUE,FALSE,4,3,FALSE
"237","A1E8WU0ER9WT88","Jan 18 2014","15:13:32",18,5,"Same",1,"Novel14",0,"Novel7",3,3738,"eyescenter2","4","3","soc",1,0,(Jan 18 2014 15:13:32),TRUE,FALSE,4,3,FALSE
"238","A1E8WU0ER9WT88","Jan 18 2014","15:13:32",19,6,"Switch",1,"Novel4",1,"Novel94",2,2983,"eyescenter2","4","3","soc",1,0,(Jan 18 2014 15:13:32),TRUE,FALSE,4,3,FALSE
"239","A1E8WU0ER9WT88","Jan 18 2014","15:13:32",16,7,"Same",0,"Novel63",2,"Novel63",2,1258,"eyesdownrightarrow","4","3","soc",0,1,(Jan 18 2014 15:13:32),TRUE,FALSE,4,3,TRUE
"240","A1E8WU0ER9WT88","Jan 18 2014","15:13:32",20,7,"Same",0,"Novel65",2,"Novel63",2,2078,"eyescenter2","4","3","soc",1,0,(Jan 18 2014 15:13:32),TRUE,FALSE,4,3,FALSE
"241","A1FKCYWMD3HCXU","Dec 02 2013","16:09:44",17,6,"Switch",1,"Novel73",1,"Novel123",2,1354,"eyescenter","4","0","nosoc",0,1,(Dec 02 2013 16:09:44),TRUE,FALSE,4,0,FALSE
"242","A1FKCYWMD3HCXU","Dec 02 2013","16:09:44",18,6,"Switch",1,"Novel123",2,"Novel123",2,593,"eyescenter","4","0","nosoc",1,0,(Dec 02 2013 16:09:44),TRUE,FALSE,4,0,TRUE
"243","A1FKCYWMD3HCXU","Dec 02 2013","16:09:44",19,7,"Same",1,"Novel37",0,"Novel37",0,764,"eyescenter","4","0","nosoc",0,1,(Dec 02 2013 16:09:44),TRUE,FALSE,4,0,TRUE
"248","A1FKCYWMD3HCXU","Dec 02 2013","16:09:44",5,0,"Switch",0,"Novel16",1,"Novel9",2,1965,"eyescenter","4","0","nosoc",0,1,(Dec 02 2013 16:09:44),TRUE,FALSE,4,0,FALSE
"249","A1FKCYWMD3HCXU","Dec 02 2013","16:09:44",6,0,"Switch",0,"Novel45",1,"Novel9",2,2371,"eyescenter","4","0","nosoc",1,0,(Dec 02 2013 16:09:44),TRUE,TRUE,4,0,FALSE
"250","A1FKCYWMD3HCXU","Dec 02 2013","16:09:44",7,1,"Same",0,"Novel57",1,"Novel57",1,2090,"eyescenter","4","0","nosoc",0,1,(Dec 02 2013 16:09:44),TRUE,FALSE,4,0,TRUE
"251","A1FKCYWMD3HCXU","Dec 02 2013","16:09:44",8,1,"Same",0,"Novel57",2,"Novel57",1,936,"eyescenter","4","0","nosoc",1,0,(Dec 02 2013 16:09:44),TRUE,FALSE,4,0,TRUE
"252","A1FKCYWMD3HCXU","Dec 02 2013","16:09:44",9,2,"Switch",0,"Novel69",0,"Novel63",1,1311,"eyescenter","4","0","nosoc",0,1,(Dec 02 2013 16:09:44),TRUE,FALSE,4,0,FALSE
"253","A1FKCYWMD3HCXU","Dec 02 2013","16:09:44",10,2,"Switch",0,"Novel113",0,"Novel63",1,1794,"eyescenter","4","0","nosoc",1,0,(Dec 02 2013 16:09:44),TRUE,FALSE,4,0,FALSE
"254","A1FKCYWMD3HCXU","Dec 02 2013","16:09:44",11,3,"Same",0,"Novel13",1,"Novel13",1,1981,"eyescenter","4","0","nosoc",0,1,(Dec 02 2013 16:09:44),TRUE,FALSE,4,0,TRUE
"255","A1FKCYWMD3HCXU","Dec 02 2013","16:09:44",12,3,"Same",0,"Novel13",2,"Novel13",1,468,"eyescenter","4","0","nosoc",1,0,(Dec 02 2013 16:09:44),TRUE,FALSE,4,0,TRUE
"256","A1FKCYWMD3HCXU","Dec 02 2013","16:09:44",13,4,"Switch",1,"Novel120",2,"Novel99",0,1981,"eyescenter","4","0","nosoc",0,1,(Dec 02 2013 16:09:44),TRUE,FALSE,4,0,FALSE
"257","A1FKCYWMD3HCXU","Dec 02 2013","16:09:44",14,4,"Switch",1,"Novel99",0,"Novel99",0,764,"eyescenter","4","0","nosoc",1,0,(Dec 02 2013 16:09:44),TRUE,FALSE,4,0,TRUE
"258","A1FKCYWMD3HCXU","Dec 02 2013","16:09:44",15,5,"Same",1,"Novel82",3,"Novel82",3,1248,"eyescenter","4","0","nosoc",0,1,(Dec 02 2013 16:09:44),TRUE,FALSE,4,0,TRUE
"259","A1FKCYWMD3HCXU","Dec 02 2013","16:09:44",16,5,"Same",1,"Novel82",3,"Novel82",3,562,"eyescenter","4","0","nosoc",1,0,(Dec 02 2013 16:09:44),TRUE,FALSE,4,0,TRUE
"260","A1FKCYWMD3HCXU","Jan 19 2014","10:10:46",11,2,"Switch",0,"Novel137",3,"Novel137",1,1349,"eyescenter","4","3","nosoc",1,0,(Jan 19 2014 10:10:46),TRUE,FALSE,4,3,TRUE
"261","A1FKCYWMD3HCXU","Jan 19 2014","10:10:46",12,3,"Same",0,"Novel22",1,"Novel22",0,979,"eyescenter","4","3","nosoc",1,0,(Jan 19 2014 10:10:46),TRUE,FALSE,4,3,TRUE
"262","A1FKCYWMD3HCXU","Dec 02 2013","16:09:44",20,7,"Same",1,"Novel37",0,"Novel37",0,421,"eyescenter","4","0","nosoc",1,0,(Dec 02 2013 16:09:44),TRUE,FALSE,4,0,TRUE
"267","A1FKCYWMD3HCXU","Jan 19 2014","10:10:46",5,0,"Switch",1,"Novel131",1,"Novel55",0,1921,"eyesright","4","3","nosoc",0,1,(Jan 19 2014 10:10:46),TRUE,FALSE,4,3,FALSE
"268","A1FKCYWMD3HCXU","Jan 19 2014","10:10:46",6,1,"Same",1,"Novel69",2,"Novel69",2,1907,"eyesleft","4","3","nosoc",0,1,(Jan 19 2014 10:10:46),TRUE,FALSE,4,3,TRUE
"269","A1FKCYWMD3HCXU","Jan 19 2014","10:10:46",7,2,"Switch",0,"Novel24",3,"Novel137",1,1843,"eyesleft","4","3","nosoc",0,1,(Jan 19 2014 10:10:46),TRUE,FALSE,4,3,FALSE
"270","A1FKCYWMD3HCXU","Jan 19 2014","10:10:46",8,3,"Same",0,"Novel22",0,"Novel22",0,1140,"eyesright","4","3","nosoc",0,1,(Jan 19 2014 10:10:46),TRUE,FALSE,4,3,TRUE
"271","A1FKCYWMD3HCXU","Jan 19 2014","10:10:46",9,0,"Switch",1,"Novel55",0,"Novel55",0,1345,"eyescenter","4","3","nosoc",1,0,(Jan 19 2014 10:10:46),TRUE,TRUE,4,3,TRUE
"272","A1FKCYWMD3HCXU","Jan 19 2014","10:10:46",10,1,"Same",1,"Novel69",2,"Novel69",2,840,"eyescenter","4","3","nosoc",1,0,(Jan 19 2014 10:10:46),TRUE,FALSE,4,3,TRUE
"273","A1FKCYWMD3HCXU","Jan 19 2014","10:10:46",15,6,"Switch",0,"Novel11",1,"Novel62",2,1162,"eyesdownleft","4","3","nosoc",0,1,(Jan 19 2014 10:10:46),TRUE,FALSE,4,3,FALSE
"274","A1FKCYWMD3HCXU","Jan 19 2014","10:10:46",16,7,"Same",1,"Novel107",0,"Novel107",0,811,"eyesright","4","3","nosoc",0,1,(Jan 19 2014 10:10:46),TRUE,FALSE,4,3,TRUE
"275","A1FKCYWMD3HCXU","Jan 19 2014","10:10:46",13,4,"Switch",1,"Novel123",3,"Novel133",1,2210,"eyesdownright","4","3","nosoc",0,1,(Jan 19 2014 10:10:46),TRUE,FALSE,4,3,FALSE
"276","A1FKCYWMD3HCXU","Jan 19 2014","10:10:46",14,5,"Same",0,"Novel38",0,"Novel38",0,1028,"eyesdownright","4","3","nosoc",0,1,(Jan 19 2014 10:10:46),TRUE,FALSE,4,3,TRUE
"277","A1FKCYWMD3HCXU","Jan 19 2014","10:10:46",19,6,"Switch",0,"Novel56",1,"Novel62",2,1971,"eyescenter","4","3","nosoc",1,0,(Jan 19 2014 10:10:46),TRUE,FALSE,4,3,FALSE
"278","A1FKCYWMD3HCXU","Jan 19 2014","10:10:46",20,7,"Same",1,"Novel107",0,"Novel107",0,771,"eyescenter","4","3","nosoc",1,0,(Jan 19 2014 10:10:46),TRUE,FALSE,4,3,TRUE
"279","A1FKCYWMD3HCXU","Jan 19 2014","10:10:46",17,4,"Switch",1,"Novel103",3,"Novel133",1,2074,"eyescenter","4","3","nosoc",1,0,(Jan 19 2014 10:10:46),TRUE,FALSE,4,3,FALSE
"280","A1FKCYWMD3HCXU","Jan 19 2014","10:10:46",18,5,"Same",0,"Novel45",0,"Novel38",0,1316,"eyescenter","4","3","nosoc",1,0,(Jan 19 2014 10:10:46),TRUE,FALSE,4,3,FALSE
"281","A1HXAMI9F1CUEF","Jan 18 2014","15:13:31",18,5,"Switch",1,"Novel44",1,"Novel45",2,7255,"eyescenter2","4","3","soc",1,0,(Jan 18 2014 15:13:31),TRUE,FALSE,4,3,FALSE
"282","A1HXAMI9F1CUEF","Jan 18 2014","15:13:31",19,6,"Same",1,"Novel8",0,"Novel8",0,1037,"eyescenter2","4","3","soc",1,0,(Jan 18 2014 15:13:31),TRUE,FALSE,4,3,TRUE
"287","A1HXAMI9F1CUEF","Jan 18 2014","15:13:31",5,0,"Same",1,"Novel15",1,"Novel15",1,2946,"eyesdownleftarrow","4","3","soc",0,1,(Jan 18 2014 15:13:31),TRUE,FALSE,4,3,TRUE
"288","A1HXAMI9F1CUEF","Jan 18 2014","15:13:31",6,1,"Switch",0,"Novel18",1,"Novel11",0,1490,"eyesdownleftarrow","4","3","soc",0,1,(Jan 18 2014 15:13:31),TRUE,FALSE,4,3,FALSE
"289","A1HXAMI9F1CUEF","Jan 18 2014","15:13:31",7,2,"Same",0,"Novel19",2,"Novel19",2,1425,"eyesdownrightarrow","4","3","soc",0,1,(Jan 18 2014 15:13:31),TRUE,FALSE,4,3,TRUE
"290","A1HXAMI9F1CUEF","Jan 18 2014","15:13:31",8,3,"Switch",0,"Novel121",3,"Novel50",0,1361,"eyesrightarrow","4","3","soc",0,1,(Jan 18 2014 15:13:31),TRUE,FALSE,4,3,FALSE
"291","A1HXAMI9F1CUEF","Jan 18 2014","15:13:31",9,0,"Same",1,"Novel15",1,"Novel15",1,3153,"eyescenter2","4","3","soc",1,0,(Jan 18 2014 15:13:31),TRUE,TRUE,4,3,TRUE
"292","A1HXAMI9F1CUEF","Jan 18 2014","15:13:31",10,1,"Switch",0,"Novel27",0,"Novel11",0,5031,"eyescenter2","4","3","soc",1,0,(Jan 18 2014 15:13:31),TRUE,FALSE,4,3,FALSE
"293","A1HXAMI9F1CUEF","Jan 18 2014","15:13:31",11,2,"Same",0,"Novel19",0,"Novel19",2,1351,"eyescenter2","4","3","soc",1,0,(Jan 18 2014 15:13:31),TRUE,FALSE,4,3,TRUE
"294","A1HXAMI9F1CUEF","Jan 18 2014","15:13:31",12,3,"Switch",0,"Novel129",3,"Novel50",0,4732,"eyescenter2","4","3","soc",1,0,(Jan 18 2014 15:13:31),TRUE,FALSE,4,3,FALSE
"295","A1HXAMI9F1CUEF","Jan 18 2014","15:13:31",13,4,"Same",0,"Novel28",3,"Novel28",3,1086,"eyesrightarrow","4","3","soc",0,1,(Jan 18 2014 15:13:31),TRUE,FALSE,4,3,TRUE
"296","A1HXAMI9F1CUEF","Jan 18 2014","15:13:31",14,5,"Switch",1,"Novel59",1,"Novel45",2,1166,"eyesdownleftarrow","4","3","soc",0,1,(Jan 18 2014 15:13:31),TRUE,FALSE,4,3,FALSE
"297","A1HXAMI9F1CUEF","Jan 18 2014","15:13:31",15,6,"Same",1,"Novel8",0,"Novel8",0,1611,"eyesleftarrow","4","3","soc",0,1,(Jan 18 2014 15:13:31),TRUE,FALSE,4,3,TRUE
"298","A1HXAMI9F1CUEF","Jan 18 2014","15:13:31",16,7,"Switch",1,"Novel14",1,"Novel91",3,874,"eyesdownleftarrow","4","3","soc",0,1,(Jan 18 2014 15:13:31),TRUE,FALSE,4,3,FALSE
"299","A1HXAMI9F1CUEF","Jan 18 2014","15:13:31",17,4,"Same",0,"Novel28",2,"Novel28",3,2633,"eyescenter2","4","3","soc",1,0,(Jan 18 2014 15:13:31),TRUE,FALSE,4,3,TRUE
"300","A1HXAMI9F1CUEF","Jan 18 2014","15:13:31",20,7,"Switch",1,"Novel21",0,"Novel91",3,1692,"eyescenter2","4","3","soc",1,0,(Jan 18 2014 15:13:31),TRUE,FALSE,4,3,FALSE
"301","A1JT53BJT9J5HU","Dec 02 2013","16:02:13",11,3,"Same",1,"Novel68",0,"Novel68",0,1919,"eyescenter","4","0","nosoc",0,1,(Dec 02 2013 16:02:13),TRUE,FALSE,4,0,TRUE
"302","A1JT53BJT9J5HU","Dec 02 2013","16:02:13",12,3,"Same",1,"Novel68",0,"Novel68",0,1114,"eyescenter","4","0","nosoc",1,0,(Dec 02 2013 16:02:13),TRUE,FALSE,4,0,TRUE
"307","A1JT53BJT9J5HU","Dec 02 2013","16:02:13",5,0,"Switch",0,"Novel73",1,"Novel96",2,2849,"eyescenter","4","0","nosoc",0,1,(Dec 02 2013 16:02:13),TRUE,FALSE,4,0,FALSE
"308","A1JT53BJT9J5HU","Dec 02 2013","16:02:13",6,0,"Switch",0,"Novel96",0,"Novel96",2,4308,"eyescenter","4","0","nosoc",1,0,(Dec 02 2013 16:02:13),TRUE,TRUE,4,0,TRUE
"309","A1JT53BJT9J5HU","Dec 02 2013","16:02:13",7,1,"Same",1,"Novel38",2,"Novel38",2,3564,"eyescenter","4","0","nosoc",0,1,(Dec 02 2013 16:02:13),TRUE,FALSE,4,0,TRUE
"310","A1JT53BJT9J5HU","Dec 02 2013","16:02:13",8,1,"Same",1,"Novel38",2,"Novel38",2,1121,"eyescenter","4","0","nosoc",1,0,(Dec 02 2013 16:02:13),TRUE,FALSE,4,0,TRUE
"311","A1JT53BJT9J5HU","Dec 02 2013","16:02:13",9,2,"Switch",1,"Novel102",1,"Novel103",2,1961,"eyescenter","4","0","nosoc",0,1,(Dec 02 2013 16:02:13),TRUE,FALSE,4,0,FALSE
"312","A1JT53BJT9J5HU","Dec 02 2013","16:02:13",10,2,"Switch",1,"Novel103",2,"Novel103",2,1422,"eyescenter","4","0","nosoc",1,0,(Dec 02 2013 16:02:13),TRUE,FALSE,4,0,TRUE
"313","A1JT53BJT9J5HU","Dec 02 2013","16:02:13",15,5,"Same",0,"Novel42",1,"Novel42",1,1504,"eyescenter","4","0","nosoc",0,1,(Dec 02 2013 16:02:13),TRUE,FALSE,4,0,TRUE
"314","A1JT53BJT9J5HU","Dec 02 2013","16:02:13",16,5,"Same",0,"Novel42",0,"Novel42",1,889,"eyescenter","4","0","nosoc",1,0,(Dec 02 2013 16:02:13),TRUE,FALSE,4,0,TRUE
"315","A1JT53BJT9J5HU","Dec 02 2013","16:02:13",13,4,"Switch",1,"Novel17",1,"Novel107",2,1910,"eyescenter","4","0","nosoc",0,1,(Dec 02 2013 16:02:13),TRUE,FALSE,4,0,FALSE
"316","A1JT53BJT9J5HU","Dec 02 2013","16:02:13",14,4,"Switch",1,"Novel93",0,"Novel107",2,878,"eyescenter","4","0","nosoc",1,0,(Dec 02 2013 16:02:13),TRUE,FALSE,4,0,FALSE
"317","A1JT53BJT9J5HU","Dec 02 2013","16:02:13",19,7,"Same",0,"Novel92",3,"Novel92",3,2038,"eyescenter","4","0","nosoc",0,1,(Dec 02 2013 16:02:13),TRUE,FALSE,4,0,TRUE
"318","A1JT53BJT9J5HU","Dec 02 2013","16:02:13",20,7,"Same",0,"Novel92",2,"Novel92",3,993,"eyescenter","4","0","nosoc",1,0,(Dec 02 2013 16:02:13),TRUE,FALSE,4,0,TRUE
"319","A1JT53BJT9J5HU","Dec 02 2013","16:02:13",17,6,"Switch",0,"Novel65",1,"Novel135",0,1959,"eyescenter","4","0","nosoc",0,1,(Dec 02 2013 16:02:13),TRUE,FALSE,4,0,FALSE
"320","A1JT53BJT9J5HU","Dec 02 2013","16:02:13",18,6,"Switch",0,"Novel101",0,"Novel135",0,822,"eyescenter","4","0","nosoc",1,0,(Dec 02 2013 16:02:13),TRUE,FALSE,4,0,FALSE
"321","A1JUKBY3NQH74W","Jan 18 2014","15:20:51",18,5,"Same",1,"Novel31",2,"Novel31",2,780,"eyescenter2","4","3","soc",1,0,(Jan 18 2014 15:20:51),TRUE,FALSE,4,3,TRUE
"322","A1JUKBY3NQH74W","Jan 18 2014","15:20:51",19,6,"Switch",0,"Novel104",2,"Novel102",2,3074,"eyescenter2","4","3","soc",1,0,(Jan 18 2014 15:20:51),TRUE,FALSE,4,3,FALSE
"327","A1JUKBY3NQH74W","Jan 18 2014","15:20:51",5,0,"Switch",1,"Novel79",3,"Novel10",1,3199,"eyesrightarrow","4","3","soc",0,1,(Jan 18 2014 15:20:51),TRUE,FALSE,4,3,FALSE
"328","A1JUKBY3NQH74W","Jan 18 2014","15:20:51",6,1,"Same",0,"Novel8",1,"Novel8",1,2035,"eyesdownleftarrow","4","3","soc",0,1,(Jan 18 2014 15:20:51),TRUE,FALSE,4,3,TRUE
"329","A1JUKBY3NQH74W","Jan 18 2014","15:20:51",7,2,"Switch",0,"Novel117",2,"Novel100",3,1364,"eyesdownrightarrow","4","3","soc",0,1,(Jan 18 2014 15:20:51),TRUE,FALSE,4,3,FALSE
"330","A1JUKBY3NQH74W","Jan 18 2014","15:20:51",8,3,"Same",1,"Novel36",3,"Novel36",3,897,"eyesrightarrow","4","3","soc",0,1,(Jan 18 2014 15:20:51),TRUE,FALSE,4,3,TRUE
"331","A1JUKBY3NQH74W","Jan 18 2014","15:20:51",9,0,"Switch",1,"Novel10",1,"Novel10",1,2491,"eyescenter2","4","3","soc",1,0,(Jan 18 2014 15:20:51),TRUE,TRUE,4,3,TRUE
"332","A1JUKBY3NQH74W","Jan 18 2014","15:20:51",10,1,"Same",0,"Novel8",0,"Novel8",1,1545,"eyescenter2","4","3","soc",1,0,(Jan 18 2014 15:20:51),TRUE,FALSE,4,3,TRUE
"333","A1JUKBY3NQH74W","Jan 18 2014","15:20:51",11,2,"Switch",0,"Novel100",2,"Novel100",3,2698,"eyescenter2","4","3","soc",1,0,(Jan 18 2014 15:20:51),TRUE,FALSE,4,3,TRUE
"334","A1JUKBY3NQH74W","Jan 18 2014","15:20:51",12,3,"Same",1,"Novel57",2,"Novel36",3,2370,"eyescenter2","4","3","soc",1,0,(Jan 18 2014 15:20:51),TRUE,FALSE,4,3,FALSE
"335","A1JUKBY3NQH74W","Jan 18 2014","15:20:51",13,4,"Switch",1,"Novel92",0,"Novel121",2,782,"eyesleftarrow","4","3","soc",0,1,(Jan 18 2014 15:20:51),TRUE,FALSE,4,3,FALSE
"336","A1JUKBY3NQH74W","Jan 18 2014","15:20:51",14,5,"Same",1,"Novel31",2,"Novel31",2,828,"eyesdownrightarrow","4","3","soc",0,1,(Jan 18 2014 15:20:51),TRUE,FALSE,4,3,TRUE
"337","A1JUKBY3NQH74W","Jan 18 2014","15:20:51",15,6,"Switch",0,"Novel90",3,"Novel102",2,963,"eyesrightarrow","4","3","soc",0,1,(Jan 18 2014 15:20:51),TRUE,FALSE,4,3,FALSE
"338","A1JUKBY3NQH74W","Jan 18 2014","15:20:51",16,7,"Same",0,"Novel5",2,"Novel5",2,958,"eyesdownrightarrow","4","3","soc",0,1,(Jan 18 2014 15:20:51),TRUE,FALSE,4,3,TRUE
"339","A1JUKBY3NQH74W","Jan 18 2014","15:20:51",17,4,"Switch",1,"Novel60",3,"Novel121",2,1805,"eyescenter2","4","3","soc",1,0,(Jan 18 2014 15:20:51),TRUE,FALSE,4,3,FALSE
"340","A1JUKBY3NQH74W","Jan 18 2014","15:20:51",20,7,"Same",0,"Novel5",0,"Novel5",2,2194,"eyescenter2","4","3","soc",1,0,(Jan 18 2014 15:20:51),TRUE,FALSE,4,3,TRUE
"341","A1KMAROXODYNCC","Dec 02 2013","16:04:28",10,2,"Same",0,"Novel132",3,"Novel132",1,618,"eyescenter","4","0","nosoc",1,0,(Dec 02 2013 16:04:28),TRUE,FALSE,4,0,TRUE
"342","A1KMAROXODYNCC","Dec 02 2013","16:04:28",11,3,"Switch",1,"Novel23",3,"Novel131",0,1457,"eyescenter","4","0","nosoc",0,1,(Dec 02 2013 16:04:28),TRUE,FALSE,4,0,FALSE
"343","A1KMAROXODYNCC","Dec 02 2013","16:04:28",12,3,"Switch",1,"Novel131",0,"Novel131",0,1148,"eyescenter","4","0","nosoc",1,0,(Dec 02 2013 16:04:28),TRUE,FALSE,4,0,TRUE
"344","A1KMAROXODYNCC","Dec 02 2013","16:04:28",9,2,"Same",0,"Novel132",1,"Novel132",1,1743,"eyescenter","4","0","nosoc",0,1,(Dec 02 2013 16:04:28),TRUE,FALSE,4,0,TRUE
"349","A1KMAROXODYNCC","Dec 02 2013","16:04:28",5,0,"Same",1,"Novel126",2,"Novel126",2,3342,"eyescenter","4","0","nosoc",0,1,(Dec 02 2013 16:04:28),TRUE,FALSE,4,0,TRUE
"350","A1KMAROXODYNCC","Dec 02 2013","16:04:28",6,0,"Same",1,"Novel126",2,"Novel126",2,898,"eyescenter","4","0","nosoc",1,0,(Dec 02 2013 16:04:28),TRUE,TRUE,4,0,TRUE
"351","A1KMAROXODYNCC","Dec 02 2013","16:04:28",7,1,"Switch",0,"Novel22",1,"Novel39",0,1364,"eyescenter","4","0","nosoc",0,1,(Dec 02 2013 16:04:28),TRUE,FALSE,4,0,FALSE
"352","A1KMAROXODYNCC","Dec 02 2013","16:04:28",8,1,"Switch",0,"Novel125",3,"Novel39",0,1712,"eyescenter","4","0","nosoc",1,0,(Dec 02 2013 16:04:28),TRUE,FALSE,4,0,FALSE
"353","A1KMAROXODYNCC","Dec 02 2013","16:04:28",13,4,"Same",1,"Novel46",2,"Novel46",2,1456,"eyescenter","4","0","nosoc",0,1,(Dec 02 2013 16:04:28),TRUE,FALSE,4,0,TRUE
"354","A1KMAROXODYNCC","Dec 02 2013","16:04:28",14,4,"Same",1,"Novel81",0,"Novel46",2,1861,"eyescenter","4","0","nosoc",1,0,(Dec 02 2013 16:04:28),TRUE,FALSE,4,0,FALSE
"355","A1KMAROXODYNCC","Dec 02 2013","16:04:28",15,5,"Switch",1,"Novel94",1,"Novel63",3,1501,"eyescenter","4","0","nosoc",0,1,(Dec 02 2013 16:04:28),TRUE,FALSE,4,0,FALSE
"356","A1KMAROXODYNCC","Dec 02 2013","16:04:28",16,5,"Switch",1,"Novel43",2,"Novel63",3,827,"eyescenter","4","0","nosoc",1,0,(Dec 02 2013 16:04:28),TRUE,FALSE,4,0,FALSE
"357","A1KMAROXODYNCC","Dec 02 2013","16:04:28",17,6,"Same",0,"Novel83",0,"Novel83",0,1114,"eyescenter","4","0","nosoc",0,1,(Dec 02 2013 16:04:28),TRUE,FALSE,4,0,TRUE
"358","A1KMAROXODYNCC","Dec 02 2013","16:04:28",18,6,"Same",0,"Novel83",2,"Novel83",0,699,"eyescenter","4","0","nosoc",1,0,(Dec 02 2013 16:04:28),TRUE,FALSE,4,0,TRUE
"359","A1KMAROXODYNCC","Dec 02 2013","16:04:28",19,7,"Switch",0,"Novel45",2,"Novel129",3,1064,"eyescenter","4","0","nosoc",0,1,(Dec 02 2013 16:04:28),TRUE,FALSE,4,0,FALSE
"360","A1KMAROXODYNCC","Dec 02 2013","16:04:28",20,7,"Switch",0,"Novel65",3,"Novel129",3,929,"eyescenter","4","0","nosoc",1,0,(Dec 02 2013 16:04:28),TRUE,FALSE,4,0,FALSE
"361","A1LII69V58R8OF","Jan 18 2014","15:22:44",17,4,"Same",1,"Novel116",2,"Novel116",2,3397,"eyescenter2","4","3","soc",1,0,(Jan 18 2014 15:22:44),TRUE,FALSE,4,3,TRUE
"362","A1LII69V58R8OF","Jan 18 2014","15:22:44",18,5,"Switch",1,"Novel7",1,"Novel7",1,2790,"eyescenter2","4","3","soc",1,0,(Jan 18 2014 15:22:44),TRUE,FALSE,4,3,TRUE
"363","A1LII69V58R8OF","Jan 18 2014","15:22:44",19,6,"Same",1,"Novel133",1,"Novel133",1,1063,"eyescenter2","4","3","soc",1,0,(Jan 18 2014 15:22:44),TRUE,FALSE,4,3,TRUE
"364","A1LII69V58R8OF","Jan 18 2014","15:22:44",20,7,"Switch",0,"Novel105",1,"Novel73",1,1486,"eyescenter2","4","3","soc",1,0,(Jan 18 2014 15:22:44),TRUE,FALSE,4,3,FALSE
"369","A1LII69V58R8OF","Jan 18 2014","15:22:44",5,0,"Same",0,"Novel16",1,"Novel16",1,5286,"eyesdownleftarrow","4","3","soc",0,1,(Jan 18 2014 15:22:44),TRUE,FALSE,4,3,TRUE
"370","A1LII69V58R8OF","Jan 18 2014","15:22:44",6,1,"Switch",1,"Novel11",1,"Novel85",3,6946,"eyesdownleftarrow","4","3","soc",0,1,(Jan 18 2014 15:22:44),TRUE,FALSE,4,3,FALSE
"371","A1LII69V58R8OF","Jan 18 2014","15:22:44",7,2,"Same",0,"Novel48",1,"Novel48",1,3398,"eyesdownleftarrow","4","3","soc",0,1,(Jan 18 2014 15:22:44),TRUE,FALSE,4,3,TRUE
"372","A1LII69V58R8OF","Jan 18 2014","15:22:44",8,3,"Switch",0,"Novel94",2,"Novel124",0,1692,"eyesdownrightarrow","4","3","soc",0,1,(Jan 18 2014 15:22:44),TRUE,FALSE,4,3,FALSE
"373","A1LII69V58R8OF","Jan 18 2014","15:22:44",9,0,"Same",0,"Novel16",0,"Novel16",1,3658,"eyescenter2","4","3","soc",1,0,(Jan 18 2014 15:22:44),TRUE,TRUE,4,3,TRUE
"374","A1LII69V58R8OF","Jan 18 2014","15:22:44",10,1,"Switch",1,"Novel85",3,"Novel85",3,6604,"eyescenter2","4","3","soc",1,0,(Jan 18 2014 15:22:44),TRUE,FALSE,4,3,TRUE
"375","A1LII69V58R8OF","Jan 18 2014","15:22:44",11,2,"Same",0,"Novel48",0,"Novel48",1,1367,"eyescenter2","4","3","soc",1,0,(Jan 18 2014 15:22:44),TRUE,FALSE,4,3,TRUE
"376","A1LII69V58R8OF","Jan 18 2014","15:22:44",12,3,"Switch",0,"Novel124",1,"Novel124",0,3927,"eyescenter2","4","3","soc",1,0,(Jan 18 2014 15:22:44),TRUE,FALSE,4,3,TRUE
"377","A1LII69V58R8OF","Jan 18 2014","15:22:44",13,4,"Same",1,"Novel116",2,"Novel116",2,4058,"eyesdownrightarrow","4","3","soc",0,1,(Jan 18 2014 15:22:44),TRUE,FALSE,4,3,TRUE
"378","A1LII69V58R8OF","Jan 18 2014","15:22:44",14,5,"Switch",1,"Novel1",3,"Novel7",1,2289,"eyesrightarrow","4","3","soc",0,1,(Jan 18 2014 15:22:44),TRUE,FALSE,4,3,FALSE
"379","A1LII69V58R8OF","Jan 18 2014","15:22:44",15,6,"Same",1,"Novel133",1,"Novel133",1,1523,"eyesdownleftarrow","4","3","soc",0,1,(Jan 18 2014 15:22:44),TRUE,FALSE,4,3,TRUE
"380","A1LII69V58R8OF","Jan 18 2014","15:22:44",16,7,"Switch",0,"Novel100",3,"Novel73",1,3390,"eyesrightarrow","4","3","soc",0,1,(Jan 18 2014 15:22:44),TRUE,FALSE,4,3,FALSE
"381","A1LJ5F9TIW88ND","Dec 02 2013","16:02:41",11,3,"Switch",1,"Novel130",3,"Novel56",2,1903,"eyescenter","4","0","nosoc",0,1,(Dec 02 2013 16:02:41),TRUE,FALSE,4,0,FALSE
"382","A1LJ5F9TIW88ND","Dec 02 2013","16:02:41",12,3,"Switch",1,"Novel95",3,"Novel56",2,1389,"eyescenter","4","0","nosoc",1,0,(Dec 02 2013 16:02:41),TRUE,FALSE,4,0,FALSE
"383","A1LJ5F9TIW88ND","Dec 02 2013","16:02:41",13,4,"Same",1,"Novel35",3,"Novel35",3,1857,"eyescenter","4","0","nosoc",0,1,(Dec 02 2013 16:02:41),TRUE,FALSE,4,0,TRUE
"388","A1LJ5F9TIW88ND","Dec 02 2013","16:02:41",5,0,"Same",1,"Novel9",1,"Novel9",1,4462,"eyescenter","4","0","nosoc",0,1,(Dec 02 2013 16:02:41),TRUE,FALSE,4,0,TRUE
"389","A1LJ5F9TIW88ND","Dec 02 2013","16:02:41",6,0,"Same",1,"Novel9",1,"Novel9",1,1716,"eyescenter","4","0","nosoc",1,0,(Dec 02 2013 16:02:41),TRUE,TRUE,4,0,TRUE
"390","A1LJ5F9TIW88ND","Dec 02 2013","16:02:41",7,1,"Switch",0,"Novel134",3,"Novel47",1,2231,"eyescenter","4","0","nosoc",0,1,(Dec 02 2013 16:02:41),TRUE,FALSE,4,0,FALSE
"391","A1LJ5F9TIW88ND","Dec 02 2013","16:02:41",8,1,"Switch",0,"Novel47",2,"Novel47",1,2543,"eyescenter","4","0","nosoc",1,0,(Dec 02 2013 16:02:41),TRUE,FALSE,4,0,TRUE
"392","A1LJ5F9TIW88ND","Dec 02 2013","16:02:41",9,2,"Same",0,"Novel72",2,"Novel72",2,1529,"eyescenter","4","0","nosoc",0,1,(Dec 02 2013 16:02:41),TRUE,FALSE,4,0,TRUE
"393","A1LJ5F9TIW88ND","Dec 02 2013","16:02:41",10,2,"Same",0,"Novel72",0,"Novel72",2,1450,"eyescenter","4","0","nosoc",1,0,(Dec 02 2013 16:02:41),TRUE,FALSE,4,0,TRUE
"394","A1LJ5F9TIW88ND","Dec 02 2013","16:02:41",15,5,"Switch",1,"Novel120",2,"Novel88",1,2106,"eyescenter","4","0","nosoc",0,1,(Dec 02 2013 16:02:41),TRUE,FALSE,4,0,FALSE
"395","A1LJ5F9TIW88ND","Dec 02 2013","16:02:41",16,5,"Switch",1,"Novel88",1,"Novel88",1,2153,"eyescenter","4","0","nosoc",1,0,(Dec 02 2013 16:02:41),TRUE,FALSE,4,0,TRUE
"396","A1LJ5F9TIW88ND","Dec 02 2013","16:02:41",17,6,"Same",0,"Novel48",3,"Novel48",3,2137,"eyescenter","4","0","nosoc",0,1,(Dec 02 2013 16:02:41),TRUE,FALSE,4,0,TRUE
"397","A1LJ5F9TIW88ND","Dec 02 2013","16:02:41",14,4,"Same",1,"Novel35",3,"Novel35",3,718,"eyescenter","4","0","nosoc",1,0,(Dec 02 2013 16:02:41),TRUE,FALSE,4,0,TRUE
"398","A1LJ5F9TIW88ND","Dec 02 2013","16:02:41",19,7,"Switch",0,"Novel5",3,"Novel96",1,1045,"eyescenter","4","0","nosoc",0,1,(Dec 02 2013 16:02:41),TRUE,FALSE,4,0,FALSE
"399","A1LJ5F9TIW88ND","Dec 02 2013","16:02:41",20,7,"Switch",0,"Novel102",2,"Novel96",1,1279,"eyescenter","4","0","nosoc",1,0,(Dec 02 2013 16:02:41),TRUE,FALSE,4,0,FALSE
"400","A1LJ5F9TIW88ND","Dec 02 2013","16:02:41",18,6,"Same",0,"Novel48",2,"Novel48",3,780,"eyescenter","4","0","nosoc",1,0,(Dec 02 2013 16:02:41),TRUE,FALSE,4,0,TRUE
"401","A1MVX5US03MRC5","Jan 18 2014","15:33:08",20,7,"Same",0,"Novel138",0,"Novel37",0,1060,"eyescenter2","4","3","soc",1,0,(Jan 18 2014 15:33:08),TRUE,FALSE,4,3,FALSE
"402","A1MVX5US03MRC5","Jan 18 2014","15:33:08",18,5,"Same",1,"Novel61",0,"Novel61",0,1116,"eyescenter2","4","3","soc",1,0,(Jan 18 2014 15:33:08),TRUE,FALSE,4,3,TRUE
"403","A1MVX5US03MRC5","Jan 18 2014","15:33:08",19,6,"Switch",0,"Novel114",2,"Novel11",0,1985,"eyescenter2","4","3","soc",1,0,(Jan 18 2014 15:33:08),TRUE,FALSE,4,3,FALSE
"408","A1MVX5US03MRC5","Jan 18 2014","15:33:08",5,0,"Switch",0,"Novel102",0,"Novel88",2,3269,"eyesleftarrow","4","3","soc",0,1,(Jan 18 2014 15:33:08),TRUE,FALSE,4,3,FALSE
"409","A1MVX5US03MRC5","Jan 18 2014","15:33:08",6,1,"Same",0,"Novel28",2,"Novel28",2,4247,"eyesdownrightarrow","4","3","soc",0,1,(Jan 18 2014 15:33:08),TRUE,FALSE,4,3,TRUE
"410","A1MVX5US03MRC5","Jan 18 2014","15:33:08",7,2,"Switch",1,"Novel118",2,"Novel38",3,2162,"eyesdownrightarrow","4","3","soc",0,1,(Jan 18 2014 15:33:08),TRUE,FALSE,4,3,FALSE
"411","A1MVX5US03MRC5","Jan 18 2014","15:33:08",8,3,"Same",1,"Novel21",1,"Novel21",1,2022,"eyesdownleftarrow","4","3","soc",0,1,(Jan 18 2014 15:33:08),TRUE,FALSE,4,3,TRUE
"412","A1MVX5US03MRC5","Jan 18 2014","15:33:08",9,0,"Switch",0,"Novel81",1,"Novel88",2,5665,"eyescenter2","4","3","soc",1,0,(Jan 18 2014 15:33:08),TRUE,TRUE,4,3,FALSE
"413","A1MVX5US03MRC5","Jan 18 2014","15:33:08",10,1,"Same",0,"Novel28",3,"Novel28",2,5464,"eyescenter2","4","3","soc",1,0,(Jan 18 2014 15:33:08),TRUE,FALSE,4,3,TRUE
"414","A1MVX5US03MRC5","Jan 18 2014","15:33:08",11,2,"Switch",1,"Novel6",1,"Novel38",3,2670,"eyescenter2","4","3","soc",1,0,(Jan 18 2014 15:33:08),TRUE,FALSE,4,3,FALSE
"415","A1MVX5US03MRC5","Jan 18 2014","15:33:08",12,3,"Same",1,"Novel21",1,"Novel21",1,1833,"eyescenter2","4","3","soc",1,0,(Jan 18 2014 15:33:08),TRUE,FALSE,4,3,TRUE
"416","A1MVX5US03MRC5","Jan 18 2014","15:33:08",13,4,"Switch",1,"Novel76",2,"Novel14",3,1002,"eyesdownrightarrow","4","3","soc",0,1,(Jan 18 2014 15:33:08),TRUE,FALSE,4,3,FALSE
"417","A1MVX5US03MRC5","Jan 18 2014","15:33:08",14,5,"Same",1,"Novel61",0,"Novel61",0,1315,"eyesleftarrow","4","3","soc",0,1,(Jan 18 2014 15:33:08),TRUE,FALSE,4,3,TRUE
"418","A1MVX5US03MRC5","Jan 18 2014","15:33:08",15,6,"Switch",0,"Novel90",2,"Novel11",0,697,"eyesdownrightarrow","4","3","soc",0,1,(Jan 18 2014 15:33:08),TRUE,FALSE,4,3,FALSE
"419","A1MVX5US03MRC5","Jan 18 2014","15:33:08",16,7,"Same",0,"Novel37",0,"Novel37",0,495,"eyesleftarrow","4","3","soc",0,1,(Jan 18 2014 15:33:08),TRUE,FALSE,4,3,TRUE
"420","A1MVX5US03MRC5","Jan 18 2014","15:33:08",17,4,"Switch",1,"Novel127",1,"Novel14",3,1940,"eyescenter2","4","3","soc",1,0,(Jan 18 2014 15:33:08),TRUE,FALSE,4,3,FALSE
"421","A1OQIXAU1SEJ4P","Dec 02 2013","16:23:39",11,3,"Switch",0,"Novel117",3,"Novel26",0,4462,"eyescenter","4","0","nosoc",0,1,(Dec 02 2013 16:23:39),TRUE,FALSE,4,0,FALSE
"422","A1OQIXAU1SEJ4P","Dec 02 2013","16:23:39",12,3,"Switch",0,"Novel103",0,"Novel26",0,2699,"eyescenter","4","0","nosoc",1,0,(Dec 02 2013 16:23:39),TRUE,FALSE,4,0,FALSE
"423","A1OQIXAU1SEJ4P","Dec 02 2013","16:23:39",13,4,"Same",0,"Novel94",0,"Novel94",0,3182,"eyescenter","4","0","nosoc",0,1,(Dec 02 2013 16:23:39),TRUE,FALSE,4,0,TRUE
"428","A1OQIXAU1SEJ4P","Dec 02 2013","16:23:39",5,0,"Same",0,"Novel112",3,"Novel112",3,3760,"eyescenter","4","0","nosoc",0,1,(Dec 02 2013 16:23:39),TRUE,FALSE,4,0,TRUE
"429","A1OQIXAU1SEJ4P","Dec 02 2013","16:23:39",6,0,"Same",0,"Novel112",1,"Novel112",3,2636,"eyescenter","4","0","nosoc",1,0,(Dec 02 2013 16:23:39),TRUE,TRUE,4,0,TRUE
"430","A1OQIXAU1SEJ4P","Dec 02 2013","16:23:39",7,1,"Switch",0,"Novel137",3,"Novel56",0,6396,"eyescenter","4","0","nosoc",0,1,(Dec 02 2013 16:23:39),TRUE,FALSE,4,0,FALSE
"431","A1OQIXAU1SEJ4P","Dec 02 2013","16:23:39",8,1,"Switch",0,"Novel92",0,"Novel56",0,3604,"eyescenter","4","0","nosoc",1,0,(Dec 02 2013 16:23:39),TRUE,FALSE,4,0,FALSE
"432","A1OQIXAU1SEJ4P","Dec 02 2013","16:23:39",9,2,"Same",1,"Novel9",2,"Novel9",2,2122,"eyescenter","4","0","nosoc",0,1,(Dec 02 2013 16:23:39),TRUE,FALSE,4,0,TRUE
"433","A1OQIXAU1SEJ4P","Dec 02 2013","16:23:39",10,2,"Same",1,"Novel9",2,"Novel9",2,1321,"eyescenter","4","0","nosoc",1,0,(Dec 02 2013 16:23:39),TRUE,FALSE,4,0,TRUE
"434","A1OQIXAU1SEJ4P","Dec 02 2013","16:23:39",15,5,"Switch",1,"Novel76",0,"Novel55",3,3604,"eyescenter","4","0","nosoc",0,1,(Dec 02 2013 16:23:39),TRUE,FALSE,4,0,FALSE
"435","A1OQIXAU1SEJ4P","Dec 02 2013","16:23:39",16,5,"Switch",1,"Novel55",3,"Novel55",3,1981,"eyescenter","4","0","nosoc",1,0,(Dec 02 2013 16:23:39),TRUE,FALSE,4,0,TRUE
"436","A1OQIXAU1SEJ4P","Dec 02 2013","16:23:39",17,6,"Same",1,"Novel124",3,"Novel124",3,2200,"eyescenter","4","0","nosoc",0,1,(Dec 02 2013 16:23:39),TRUE,FALSE,4,0,TRUE
"437","A1OQIXAU1SEJ4P","Dec 02 2013","16:23:39",14,4,"Same",0,"Novel94",3,"Novel94",0,858,"eyescenter","4","0","nosoc",1,0,(Dec 02 2013 16:23:39),TRUE,FALSE,4,0,TRUE
"438","A1OQIXAU1SEJ4P","Dec 02 2013","16:23:39",19,7,"Switch",1,"Novel97",3,"Novel32",0,2824,"eyescenter","4","0","nosoc",0,1,(Dec 02 2013 16:23:39),TRUE,FALSE,4,0,FALSE
"439","A1OQIXAU1SEJ4P","Dec 02 2013","16:23:39",20,7,"Switch",1,"Novel52",2,"Novel32",0,1982,"eyescenter","4","0","nosoc",1,0,(Dec 02 2013 16:23:39),TRUE,FALSE,4,0,FALSE
"440","A1OQIXAU1SEJ4P","Dec 02 2013","16:23:39",18,6,"Same",1,"Novel124",3,"Novel124",3,858,"eyescenter","4","0","nosoc",1,0,(Dec 02 2013 16:23:39),TRUE,FALSE,4,0,TRUE
"441","A1OV86I0FAFAM1","Jan 19 2014","10:03:40",20,7,"Switch",0,"Novel63",3,"Novel63",1,3794,"eyescenter","4","3","nosoc",1,0,(Jan 19 2014 10:03:40),TRUE,FALSE,4,3,TRUE
"442","A1OV86I0FAFAM1","Jan 19 2014","10:03:40",18,5,"Switch",1,"Novel41",0,"Novel64",1,7358,"eyescenter","4","3","nosoc",1,0,(Jan 19 2014 10:03:40),TRUE,FALSE,4,3,FALSE
"443","A1OV86I0FAFAM1","Jan 19 2014","10:03:40",19,6,"Same",1,"Novel43",3,"Novel43",3,7643,"eyescenter","4","3","nosoc",1,0,(Jan 19 2014 10:03:40),TRUE,FALSE,4,3,TRUE
"448","A1OV86I0FAFAM1","Jan 19 2014","10:03:40",5,0,"Same",0,"Novel116",0,"Novel116",0,6040,"eyesright","4","3","nosoc",0,1,(Jan 19 2014 10:03:40),TRUE,FALSE,4,3,TRUE
"449","A1OV86I0FAFAM1","Jan 19 2014","10:03:40",6,1,"Switch",0,"Novel121",0,"Novel120",2,7569,"eyesdownright","4","3","nosoc",0,1,(Jan 19 2014 10:03:40),TRUE,FALSE,4,3,FALSE
"450","A1OV86I0FAFAM1","Jan 19 2014","10:03:40",7,2,"Same",1,"Novel23",3,"Novel23",3,8480,"eyesdownleft","4","3","nosoc",0,1,(Jan 19 2014 10:03:40),TRUE,FALSE,4,3,TRUE
"451","A1OV86I0FAFAM1","Jan 19 2014","10:03:40",8,3,"Switch",1,"Novel98",1,"Novel77",3,7091,"eyesleft","4","3","nosoc",0,1,(Jan 19 2014 10:03:40),TRUE,FALSE,4,3,FALSE
"452","A1OV86I0FAFAM1","Jan 19 2014","10:03:40",9,0,"Same",0,"Novel116",2,"Novel116",0,6138,"eyescenter","4","3","nosoc",1,0,(Jan 19 2014 10:03:40),TRUE,TRUE,4,3,TRUE
"453","A1OV86I0FAFAM1","Jan 19 2014","10:03:40",10,1,"Switch",0,"Novel120",1,"Novel120",2,9517,"eyescenter","4","3","nosoc",1,0,(Jan 19 2014 10:03:40),TRUE,FALSE,4,3,TRUE
"454","A1OV86I0FAFAM1","Jan 19 2014","10:03:40",11,2,"Same",1,"Novel23",3,"Novel23",3,6199,"eyescenter","4","3","nosoc",1,0,(Jan 19 2014 10:03:40),TRUE,FALSE,4,3,TRUE
"455","A1OV86I0FAFAM1","Jan 19 2014","10:03:40",12,3,"Switch",1,"Novel77",3,"Novel77",3,4289,"eyescenter","4","3","nosoc",1,0,(Jan 19 2014 10:03:40),TRUE,FALSE,4,3,TRUE
"456","A1OV86I0FAFAM1","Jan 19 2014","10:03:40",13,4,"Same",0,"Novel12",1,"Novel12",1,6178,"eyesleft","4","3","nosoc",0,1,(Jan 19 2014 10:03:40),TRUE,FALSE,4,3,TRUE
"457","A1OV86I0FAFAM1","Jan 19 2014","10:03:40",14,5,"Switch",1,"Novel91",0,"Novel64",1,4275,"eyesdownleft","4","3","nosoc",0,1,(Jan 19 2014 10:03:40),TRUE,FALSE,4,3,FALSE
"458","A1OV86I0FAFAM1","Jan 19 2014","10:03:40",15,6,"Same",1,"Novel43",3,"Novel43",3,4900,"eyesdownleft","4","3","nosoc",0,1,(Jan 19 2014 10:03:40),TRUE,FALSE,4,3,TRUE
"459","A1OV86I0FAFAM1","Jan 19 2014","10:03:40",16,7,"Switch",0,"Novel113",0,"Novel63",1,4754,"eyesright","4","3","nosoc",0,1,(Jan 19 2014 10:03:40),TRUE,FALSE,4,3,FALSE
"460","A1OV86I0FAFAM1","Jan 19 2014","10:03:40",17,4,"Same",0,"Novel86",2,"Novel12",1,6677,"eyescenter","4","3","nosoc",1,0,(Jan 19 2014 10:03:40),TRUE,FALSE,4,3,FALSE
"461","A1S32HIBNP3ZK6","Dec 05 2013","03:16:54",10,2,"Same",0,"Novel49",0,"Novel49",2,1083,"eyescenter2","4","0","soc",1,0,(Dec 05 2013 03:16:54),TRUE,FALSE,4,0,TRUE
"462","A1S32HIBNP3ZK6","Dec 05 2013","03:16:54",11,3,"Switch",1,"Novel17",1,"Novel21",3,3260,"eyesdownleftarrow","4","0","soc",0,1,(Dec 05 2013 03:16:54),TRUE,FALSE,4,0,FALSE
"463","A1S32HIBNP3ZK6","Dec 05 2013","03:16:54",12,3,"Switch",1,"Novel27",0,"Novel21",3,2746,"eyescenter2","4","0","soc",1,0,(Dec 05 2013 03:16:54),TRUE,FALSE,4,0,FALSE
"464","A1S32HIBNP3ZK6","Dec 05 2013","03:16:54",13,4,"Same",1,"Novel91",3,"Novel91",3,2590,"eyesrightarrow","4","0","soc",0,1,(Dec 05 2013 03:16:54),TRUE,FALSE,4,0,TRUE
"469","A1S32HIBNP3ZK6","Dec 05 2013","03:16:54",5,0,"Same",0,"Novel129",1,"Novel129",1,20015,"eyesdownleftarrow","4","0","soc",0,1,(Dec 05 2013 03:16:54),TRUE,FALSE,4,0,TRUE
"470","A1S32HIBNP3ZK6","Dec 05 2013","03:16:54",6,0,"Same",0,"Novel129",0,"Novel129",1,19329,"eyescenter2","4","0","soc",1,0,(Dec 05 2013 03:16:54),TRUE,TRUE,4,0,TRUE
"471","A1S32HIBNP3ZK6","Dec 05 2013","03:16:54",7,1,"Switch",0,"Novel84",2,"Novel135",0,7909,"eyesdownrightarrow","4","0","soc",0,1,(Dec 05 2013 03:16:54),TRUE,FALSE,4,0,FALSE
"472","A1S32HIBNP3ZK6","Dec 05 2013","03:16:54",8,1,"Switch",0,"Novel63",3,"Novel135",0,6864,"eyescenter2","4","0","soc",1,0,(Dec 05 2013 03:16:54),TRUE,FALSE,4,0,FALSE
"473","A1S32HIBNP3ZK6","Dec 05 2013","03:16:54",9,2,"Same",0,"Novel49",2,"Novel49",2,3152,"eyesdownrightarrow","4","0","soc",0,1,(Dec 05 2013 03:16:54),TRUE,FALSE,4,0,TRUE
"474","A1S32HIBNP3ZK6","Dec 05 2013","03:16:54",14,4,"Same",1,"Novel91",3,"Novel91",3,936,"eyescenter2","4","0","soc",1,0,(Dec 05 2013 03:16:54),TRUE,FALSE,4,0,TRUE
"475","A1S32HIBNP3ZK6","Dec 05 2013","03:16:54",15,5,"Switch",0,"Novel73",1,"Novel116",2,1560,"eyesdownleftarrow","4","0","soc",0,1,(Dec 05 2013 03:16:54),TRUE,FALSE,4,0,FALSE
"476","A1S32HIBNP3ZK6","Dec 05 2013","03:16:54",16,5,"Switch",0,"Novel103",1,"Novel116",2,3401,"eyescenter2","4","0","soc",1,0,(Dec 05 2013 03:16:54),TRUE,FALSE,4,0,FALSE
"477","A1S32HIBNP3ZK6","Dec 05 2013","03:16:54",17,6,"Same",1,"Novel138",2,"Novel138",2,4087,"eyesdownrightarrow","4","0","soc",0,1,(Dec 05 2013 03:16:54),TRUE,FALSE,4,0,TRUE
"478","A1S32HIBNP3ZK6","Dec 05 2013","03:16:54",18,6,"Same",1,"Novel138",2,"Novel138",2,593,"eyescenter2","4","0","soc",1,0,(Dec 05 2013 03:16:54),TRUE,FALSE,4,0,TRUE
"479","A1S32HIBNP3ZK6","Dec 05 2013","03:16:54",19,7,"Switch",1,"Novel32",2,"Novel114",1,2636,"eyesdownrightarrow","4","0","soc",0,1,(Dec 05 2013 03:16:54),TRUE,FALSE,4,0,FALSE
"480","A1S32HIBNP3ZK6","Dec 05 2013","03:16:54",20,7,"Switch",1,"Novel58",3,"Novel114",1,3167,"eyescenter2","4","0","soc",1,0,(Dec 05 2013 03:16:54),TRUE,FALSE,4,0,FALSE
"481","A1SSBN3C7NEPEO","Dec 05 2013","04:12:56",6,0,"Same",1,"Novel69",1,"Novel69",1,3026,"eyescenter2","4","0","soc",1,0,(Dec 05 2013 04:12:56),TRUE,TRUE,4,0,TRUE
"482","A1SSBN3C7NEPEO","Dec 05 2013","04:12:56",19,7,"Switch",0,"Novel136",1,"Novel123",3,1419,"eyesleftarrow","4","0","soc",0,1,(Dec 05 2013 04:12:56),TRUE,FALSE,4,0,FALSE
"483","A1SSBN3C7NEPEO","Dec 05 2013","04:12:56",20,7,"Switch",0,"Novel123",0,"Novel123",3,1918,"eyescenter2","4","0","soc",1,0,(Dec 05 2013 04:12:56),TRUE,FALSE,4,0,TRUE
"484","A1SSBN3C7NEPEO","Dec 05 2013","04:12:56",5,0,"Same",1,"Novel69",1,"Novel69",1,5070,"eyesleftarrow","4","0","soc",0,1,(Dec 05 2013 04:12:56),TRUE,FALSE,4,0,TRUE
"489","A1SSBN3C7NEPEO","Dec 05 2013","04:12:56",18,6,"Same",0,"Novel138",0,"Novel138",2,796,"eyescenter2","4","0","soc",1,0,(Dec 05 2013 04:12:56),TRUE,FALSE,4,0,TRUE
"490","A1SSBN3C7NEPEO","Dec 05 2013","04:12:56",10,2,"Same",0,"Novel25",3,"Novel25",2,795,"eyescenter2","4","0","soc",1,0,(Dec 05 2013 04:12:56),TRUE,FALSE,4,0,TRUE
"491","A1SSBN3C7NEPEO","Dec 05 2013","04:12:56",7,1,"Switch",1,"Novel59",3,"Novel84",2,1919,"eyesdownrightarrow","4","0","soc",0,1,(Dec 05 2013 04:12:56),TRUE,FALSE,4,0,FALSE
"492","A1SSBN3C7NEPEO","Dec 05 2013","04:12:56",8,1,"Switch",1,"Novel84",2,"Novel84",2,3292,"eyescenter2","4","0","soc",1,0,(Dec 05 2013 04:12:56),TRUE,FALSE,4,0,TRUE
"493","A1SSBN3C7NEPEO","Dec 05 2013","04:12:56",9,2,"Same",0,"Novel25",2,"Novel25",2,1264,"eyesdownrightarrow","4","0","soc",0,1,(Dec 05 2013 04:12:56),TRUE,FALSE,4,0,TRUE
"494","A1SSBN3C7NEPEO","Dec 05 2013","04:12:56",14,4,"Same",1,"Novel68",3,"Novel68",3,515,"eyescenter2","4","0","soc",1,0,(Dec 05 2013 04:12:56),TRUE,FALSE,4,0,TRUE
"495","A1SSBN3C7NEPEO","Dec 05 2013","04:12:56",11,3,"Switch",0,"Novel43",3,"Novel60",2,1466,"eyesrightarrow","4","0","soc",0,1,(Dec 05 2013 04:12:56),TRUE,FALSE,4,0,FALSE
"496","A1SSBN3C7NEPEO","Dec 05 2013","04:12:56",12,3,"Switch",0,"Novel72",3,"Novel60",2,952,"eyescenter2","4","0","soc",1,0,(Dec 05 2013 04:12:56),TRUE,FALSE,4,0,FALSE
"497","A1SSBN3C7NEPEO","Dec 05 2013","04:12:56",13,4,"Same",1,"Novel68",3,"Novel68",3,1607,"eyesrightarrow","4","0","soc",0,1,(Dec 05 2013 04:12:56),TRUE,FALSE,4,0,TRUE
"498","A1SSBN3C7NEPEO","Dec 05 2013","04:12:56",15,5,"Switch",1,"Novel85",2,"Novel23",0,1124,"eyesleftarrow","4","0","soc",0,1,(Dec 05 2013 04:12:56),TRUE,FALSE,4,0,FALSE
"499","A1SSBN3C7NEPEO","Dec 05 2013","04:12:56",16,5,"Switch",1,"Novel23",0,"Novel23",0,2371,"eyescenter2","4","0","soc",1,0,(Dec 05 2013 04:12:56),TRUE,FALSE,4,0,TRUE
"500","A1SSBN3C7NEPEO","Dec 05 2013","04:12:56",17,6,"Same",0,"Novel138",2,"Novel138",2,1670,"eyesrightarrow","4","0","soc",0,1,(Dec 05 2013 04:12:56),TRUE,FALSE,4,0,TRUE
"503","A1USDMJVT10CE4","Dec 05 2013","03:21:14",14,4,"Switch",1,"Novel76",0,"Novel91",2,4945,"eyescenter2","4","0","soc",1,0,(Dec 05 2013 03:21:14),TRUE,FALSE,4,0,FALSE
"504","A1USDMJVT10CE4","Dec 05 2013","03:21:14",15,5,"Same",1,"Novel108",1,"Novel108",1,1310,"eyesdownrightarrow","4","0","soc",0,1,(Dec 05 2013 03:21:14),TRUE,FALSE,4,0,TRUE
"507","A1USDMJVT10CE4","Dec 05 2013","03:21:14",5,0,"Switch",1,"Novel27",3,"Novel112",1,2121,"eyesrightarrow","4","0","soc",0,1,(Dec 05 2013 03:21:14),TRUE,FALSE,4,0,FALSE
"508","A1USDMJVT10CE4","Dec 05 2013","03:21:14",6,0,"Switch",1,"Novel103",0,"Novel112",1,3884,"eyescenter2","4","0","soc",1,0,(Dec 05 2013 03:21:14),TRUE,TRUE,4,0,FALSE
"509","A1USDMJVT10CE4","Dec 05 2013","03:21:14",7,1,"Same",1,"Novel17",2,"Novel17",2,2184,"eyesdownrightarrow","4","0","soc",0,1,(Dec 05 2013 03:21:14),TRUE,FALSE,4,0,TRUE
"510","A1USDMJVT10CE4","Dec 05 2013","03:21:14",8,1,"Same",1,"Novel17",2,"Novel17",2,2371,"eyescenter2","4","0","soc",1,0,(Dec 05 2013 03:21:14),TRUE,FALSE,4,0,TRUE
"511","A1USDMJVT10CE4","Dec 05 2013","03:21:14",9,2,"Switch",0,"Novel15",3,"Novel6",0,1810,"eyesdownrightarrow","4","0","soc",0,1,(Dec 05 2013 03:21:14),TRUE,FALSE,4,0,FALSE
"512","A1USDMJVT10CE4","Dec 05 2013","03:21:14",10,2,"Switch",0,"Novel132",0,"Novel6",0,1778,"eyescenter2","4","0","soc",1,0,(Dec 05 2013 03:21:14),TRUE,FALSE,4,0,FALSE
"513","A1USDMJVT10CE4","Dec 05 2013","03:21:14",11,3,"Same",0,"Novel78",3,"Novel78",3,2886,"eyesrightarrow","4","0","soc",0,1,(Dec 05 2013 03:21:14),TRUE,FALSE,4,0,TRUE
"514","A1USDMJVT10CE4","Dec 05 2013","03:21:14",12,3,"Same",0,"Novel78",0,"Novel78",3,733,"eyescenter2","4","0","soc",1,0,(Dec 05 2013 03:21:14),TRUE,FALSE,4,0,TRUE
"515","A1USDMJVT10CE4","Dec 05 2013","03:21:14",13,4,"Switch",1,"Novel25",1,"Novel91",2,1045,"eyesdownleftarrow","4","0","soc",0,1,(Dec 05 2013 03:21:14),TRUE,FALSE,4,0,FALSE
"516","A1USDMJVT10CE4","Dec 05 2013","03:21:14",18,6,"Switch",0,"Novel39",1,"Novel29",2,1638,"eyescenter2","4","0","soc",1,0,(Dec 05 2013 03:21:14),TRUE,FALSE,4,0,FALSE
"517","A1USDMJVT10CE4","Dec 05 2013","03:21:14",19,7,"Same",0,"Novel66",0,"Novel66",0,4883,"eyesdownleftarrow","4","0","soc",0,1,(Dec 05 2013 03:21:14),TRUE,FALSE,4,0,TRUE
"518","A1USDMJVT10CE4","Dec 05 2013","03:21:14",16,5,"Same",1,"Novel108",1,"Novel108",1,655,"eyescenter2","4","0","soc",1,0,(Dec 05 2013 03:21:14),TRUE,FALSE,4,0,TRUE
"519","A1USDMJVT10CE4","Dec 05 2013","03:21:14",17,6,"Switch",0,"Novel47",3,"Novel29",2,2949,"eyesdownleftarrow","4","0","soc",0,1,(Dec 05 2013 03:21:14),TRUE,FALSE,4,0,FALSE
"520","A1USDMJVT10CE4","Dec 05 2013","03:21:14",20,7,"Same",0,"Novel66",2,"Novel66",0,702,"eyescenter2","4","0","soc",1,0,(Dec 05 2013 03:21:14),TRUE,FALSE,4,0,TRUE
"521","A1W3OTNMCSEJ2D","Jan 19 2014","10:08:14",7,2,"Switch",0,"Novel63",0,"Novel4",2,4881,"eyesdownright","4","3","nosoc",0,1,(Jan 19 2014 10:08:14),TRUE,FALSE,4,3,FALSE
"522","A1W3OTNMCSEJ2D","Jan 19 2014","10:08:14",8,3,"Same",1,"Novel11",1,"Novel11",1,3907,"eyesleft","4","3","nosoc",0,1,(Jan 19 2014 10:08:14),TRUE,FALSE,4,3,TRUE
"527","A1W3OTNMCSEJ2D","Jan 19 2014","10:08:14",5,0,"Switch",1,"Novel132",2,"Novel73",1,14173,"eyesleft","4","3","nosoc",0,1,(Jan 19 2014 10:08:14),TRUE,FALSE,4,3,FALSE
"528","A1W3OTNMCSEJ2D","Jan 19 2014","10:08:14",6,1,"Same",0,"Novel2",0,"Novel2",0,4041,"eyesdownleft","4","3","nosoc",0,1,(Jan 19 2014 10:08:14),TRUE,FALSE,4,3,TRUE
"529","A1W3OTNMCSEJ2D","Jan 19 2014","10:08:14",20,7,"Same",1,"Novel98",2,"Novel98",2,1089,"eyescenter","4","3","nosoc",1,0,(Jan 19 2014 10:08:14),TRUE,FALSE,4,3,TRUE
"530","A1W3OTNMCSEJ2D","Jan 19 2014","10:08:14",12,3,"Same",1,"Novel11",1,"Novel11",1,1878,"eyescenter","4","3","nosoc",1,0,(Jan 19 2014 10:08:14),TRUE,FALSE,4,3,TRUE
"531","A1W3OTNMCSEJ2D","Jan 19 2014","10:08:14",9,0,"Switch",1,"Novel73",1,"Novel73",1,2308,"eyescenter","4","3","nosoc",1,0,(Jan 19 2014 10:08:14),TRUE,TRUE,4,3,TRUE
"532","A1W3OTNMCSEJ2D","Jan 19 2014","10:08:14",10,1,"Same",0,"Novel2",1,"Novel2",0,1331,"eyescenter","4","3","nosoc",1,0,(Jan 19 2014 10:08:14),TRUE,FALSE,4,3,TRUE
"533","A1W3OTNMCSEJ2D","Jan 19 2014","10:08:14",11,2,"Switch",0,"Novel4",3,"Novel4",2,1387,"eyescenter","4","3","nosoc",1,0,(Jan 19 2014 10:08:14),TRUE,FALSE,4,3,TRUE
"534","A1W3OTNMCSEJ2D","Jan 19 2014","10:08:14",16,7,"Same",1,"Novel98",2,"Novel98",2,1812,"eyesdownright","4","3","nosoc",0,1,(Jan 19 2014 10:08:14),TRUE,FALSE,4,3,TRUE
"535","A1W3OTNMCSEJ2D","Jan 19 2014","10:08:14",13,4,"Switch",0,"Novel38",0,"Novel6",3,3283,"eyesright","4","3","nosoc",0,1,(Jan 19 2014 10:08:14),TRUE,FALSE,4,3,FALSE
"536","A1W3OTNMCSEJ2D","Jan 19 2014","10:08:14",14,5,"Same",0,"Novel123",1,"Novel123",1,1267,"eyesleft","4","3","nosoc",0,1,(Jan 19 2014 10:08:14),TRUE,FALSE,4,3,TRUE
"537","A1W3OTNMCSEJ2D","Jan 19 2014","10:08:14",15,6,"Switch",1,"Novel24",1,"Novel52",0,1436,"eyesdownright","4","3","nosoc",0,1,(Jan 19 2014 10:08:14),TRUE,FALSE,4,3,FALSE
"538","A1W3OTNMCSEJ2D","Jan 19 2014","10:08:14",17,4,"Switch",0,"Novel30",2,"Novel6",3,3690,"eyescenter","4","3","nosoc",1,0,(Jan 19 2014 10:08:14),TRUE,FALSE,4,3,FALSE
"539","A1W3OTNMCSEJ2D","Jan 19 2014","10:08:14",18,5,"Same",0,"Novel37",1,"Novel123",1,2218,"eyescenter","4","3","nosoc",1,0,(Jan 19 2014 10:08:14),TRUE,FALSE,4,3,FALSE
"540","A1W3OTNMCSEJ2D","Jan 19 2014","10:08:14",19,6,"Switch",1,"Novel100",3,"Novel52",0,3187,"eyescenter","4","3","nosoc",1,0,(Jan 19 2014 10:08:14),TRUE,FALSE,4,3,FALSE
"543","A1WULB4219PC28","Jan 18 2014","15:27:41",14,5,"Same",1,"Novel118",2,"Novel118",2,3104,"eyesrightarrow","4","3","soc",0,1,(Jan 18 2014 15:27:41),TRUE,FALSE,4,3,TRUE
"544","A1WULB4219PC28","Jan 18 2014","15:27:41",15,6,"Switch",1,"Novel58",3,"Novel102",1,2456,"eyesrightarrow","4","3","soc",0,1,(Jan 18 2014 15:27:41),TRUE,FALSE,4,3,FALSE
"547","A1WULB4219PC28","Jan 18 2014","15:27:41",5,0,"Switch",0,"Novel28",0,"Novel44",1,6185,"eyesrightarrow","4","3","soc",0,1,(Jan 18 2014 15:27:41),TRUE,FALSE,4,3,FALSE
"548","A1WULB4219PC28","Jan 18 2014","15:27:41",6,1,"Same",0,"Novel40",2,"Novel40",2,2654,"eyesdownrightarrow","4","3","soc",0,1,(Jan 18 2014 15:27:41),TRUE,FALSE,4,3,TRUE
"549","A1WULB4219PC28","Jan 18 2014","15:27:41",7,2,"Switch",1,"Novel15",1,"Novel14",2,2358,"eyesleftarrow","4","3","soc",0,1,(Jan 18 2014 15:27:41),TRUE,FALSE,4,3,FALSE
"550","A1WULB4219PC28","Jan 18 2014","15:27:41",8,3,"Same",0,"Novel75",1,"Novel75",1,3733,"eyesleftarrow","4","3","soc",0,1,(Jan 18 2014 15:27:41),TRUE,FALSE,4,3,TRUE
"551","A1WULB4219PC28","Jan 18 2014","15:27:41",9,0,"Switch",0,"Novel44",0,"Novel44",1,3979,"eyescenter2","4","3","soc",1,0,(Jan 18 2014 15:27:41),TRUE,TRUE,4,3,TRUE
"552","A1WULB4219PC28","Jan 18 2014","15:27:41",10,1,"Same",0,"Novel40",0,"Novel40",2,1797,"eyescenter2","4","3","soc",1,0,(Jan 18 2014 15:27:41),TRUE,FALSE,4,3,TRUE
"553","A1WULB4219PC28","Jan 18 2014","15:27:41",11,2,"Switch",1,"Novel14",2,"Novel14",2,2388,"eyescenter2","4","3","soc",1,0,(Jan 18 2014 15:27:41),TRUE,FALSE,4,3,TRUE
"554","A1WULB4219PC28","Jan 18 2014","15:27:41",12,3,"Same",0,"Novel75",3,"Novel75",1,1531,"eyescenter2","4","3","soc",1,0,(Jan 18 2014 15:27:41),TRUE,FALSE,4,3,TRUE
"555","A1WULB4219PC28","Jan 18 2014","15:27:41",13,4,"Switch",0,"Novel52",2,"Novel131",0,2491,"eyesdownrightarrow","4","3","soc",0,1,(Jan 18 2014 15:27:41),TRUE,FALSE,4,3,FALSE
"556","A1WULB4219PC28","Jan 18 2014","15:27:41",18,5,"Same",1,"Novel118",2,"Novel118",2,2913,"eyescenter2","4","3","soc",1,0,(Jan 18 2014 15:27:41),TRUE,FALSE,4,3,TRUE
"557","A1WULB4219PC28","Jan 18 2014","15:27:41",19,6,"Switch",1,"Novel102",1,"Novel102",1,4128,"eyescenter2","4","3","soc",1,0,(Jan 18 2014 15:27:41),TRUE,FALSE,4,3,TRUE
"558","A1WULB4219PC28","Jan 18 2014","15:27:41",16,7,"Same",1,"Novel51",2,"Novel51",2,1693,"eyesdownrightarrow","4","3","soc",0,1,(Jan 18 2014 15:27:41),TRUE,FALSE,4,3,TRUE
"559","A1WULB4219PC28","Jan 18 2014","15:27:41",17,4,"Switch",0,"Novel131",3,"Novel131",0,3819,"eyescenter2","4","3","soc",1,0,(Jan 18 2014 15:27:41),TRUE,FALSE,4,3,TRUE
"560","A1WULB4219PC28","Jan 18 2014","15:27:41",20,7,"Same",1,"Novel51",2,"Novel51",2,2516,"eyescenter2","4","3","soc",1,0,(Jan 18 2014 15:27:41),TRUE,FALSE,4,3,TRUE
"561","A1XS8RTDRQQI1E","Jan 19 2014","10:09:20",7,2,"Switch",1,"Novel13",2,"Novel139",1,8981,"eyesright","4","3","nosoc",0,1,(Jan 19 2014 10:09:20),TRUE,FALSE,4,3,FALSE
"562","A1XS8RTDRQQI1E","Jan 19 2014","10:09:20",8,3,"Same",0,"Novel46",2,"Novel46",2,7754,"eyesdownright","4","3","nosoc",0,1,(Jan 19 2014 10:09:20),TRUE,FALSE,4,3,TRUE
"567","A1XS8RTDRQQI1E","Jan 19 2014","10:09:20",5,0,"Switch",0,"Novel118",3,"Novel16",1,7843,"eyesdownright","4","3","nosoc",0,1,(Jan 19 2014 10:09:20),TRUE,FALSE,4,3,FALSE
"568","A1XS8RTDRQQI1E","Jan 19 2014","10:09:20",6,1,"Same",0,"Novel21",2,"Novel21",2,15349,"eyesleft","4","3","nosoc",0,1,(Jan 19 2014 10:09:20),TRUE,FALSE,4,3,TRUE
"569","A1XS8RTDRQQI1E","Jan 19 2014","10:09:20",20,7,"Same",1,"Novel132",2,"Novel58",1,9141,"eyescenter","4","3","nosoc",1,0,(Jan 19 2014 10:09:20),TRUE,FALSE,4,3,FALSE
"570","A1XS8RTDRQQI1E","Jan 19 2014","10:09:20",12,3,"Same",0,"Novel46",1,"Novel46",2,4022,"eyescenter","4","3","nosoc",1,0,(Jan 19 2014 10:09:20),TRUE,FALSE,4,3,TRUE
"571","A1XS8RTDRQQI1E","Jan 19 2014","10:09:20",9,0,"Switch",0,"Novel16",3,"Novel16",1,7401,"eyescenter","4","3","nosoc",1,0,(Jan 19 2014 10:09:20),TRUE,TRUE,4,3,TRUE
"572","A1XS8RTDRQQI1E","Jan 19 2014","10:09:20",10,1,"Same",0,"Novel21",3,"Novel21",2,3900,"eyescenter","4","3","nosoc",1,0,(Jan 19 2014 10:09:20),TRUE,FALSE,4,3,TRUE
"573","A1XS8RTDRQQI1E","Jan 19 2014","10:09:20",11,2,"Switch",1,"Novel139",1,"Novel139",1,2996,"eyescenter","4","3","nosoc",1,0,(Jan 19 2014 10:09:20),TRUE,FALSE,4,3,TRUE
"574","A1XS8RTDRQQI1E","Jan 19 2014","10:09:20",16,7,"Same",1,"Novel58",1,"Novel58",1,5220,"eyesright","4","3","nosoc",0,1,(Jan 19 2014 10:09:20),TRUE,FALSE,4,3,TRUE
"575","A1XS8RTDRQQI1E","Jan 19 2014","10:09:20",13,4,"Switch",1,"Novel27",2,"Novel57",1,7608,"eyesdownright","4","3","nosoc",0,1,(Jan 19 2014 10:09:20),TRUE,FALSE,4,3,FALSE
"576","A1XS8RTDRQQI1E","Jan 19 2014","10:09:20",14,5,"Same",1,"Novel9",3,"Novel9",3,7263,"eyesdownright","4","3","nosoc",0,1,(Jan 19 2014 10:09:20),TRUE,FALSE,4,3,TRUE
"577","A1XS8RTDRQQI1E","Jan 19 2014","10:09:20",15,6,"Switch",0,"Novel93",2,"Novel28",3,7257,"eyesleft","4","3","nosoc",0,1,(Jan 19 2014 10:09:20),TRUE,FALSE,4,3,FALSE
"578","A1XS8RTDRQQI1E","Jan 19 2014","10:09:20",17,4,"Switch",1,"Novel57",1,"Novel57",1,3755,"eyescenter","4","3","nosoc",1,0,(Jan 19 2014 10:09:20),TRUE,FALSE,4,3,TRUE
"579","A1XS8RTDRQQI1E","Jan 19 2014","10:09:20",18,5,"Same",1,"Novel9",3,"Novel9",3,4934,"eyescenter","4","3","nosoc",1,0,(Jan 19 2014 10:09:20),TRUE,FALSE,4,3,TRUE
"580","A1XS8RTDRQQI1E","Jan 19 2014","10:09:20",19,6,"Switch",0,"Novel65",2,"Novel28",3,3343,"eyescenter","4","3","nosoc",1,0,(Jan 19 2014 10:09:20),TRUE,FALSE,4,3,FALSE
"583","A1Z7QTDFX7ZM2O","Dec 05 2013","04:06:34",13,4,"Switch",0,"Novel71",0,"Novel23",2,1896,"eyesleftarrow","4","0","soc",0,1,(Dec 05 2013 04:06:34),TRUE,FALSE,4,0,FALSE
"584","A1Z7QTDFX7ZM2O","Dec 05 2013","04:06:34",14,4,"Switch",0,"Novel80",2,"Novel23",2,5897,"eyescenter2","4","0","soc",1,0,(Dec 05 2013 04:06:34),TRUE,FALSE,4,0,FALSE
"585","A1Z7QTDFX7ZM2O","Dec 05 2013","04:06:34",15,5,"Same",1,"Novel29",2,"Novel29",2,1556,"eyesdownrightarrow","4","0","soc",0,1,(Dec 05 2013 04:06:34),TRUE,FALSE,4,0,TRUE
"588","A1Z7QTDFX7ZM2O","Dec 05 2013","04:06:34",5,0,"Switch",1,"Novel60",1,"Novel74",0,5315,"eyesdownleftarrow","4","0","soc",0,1,(Dec 05 2013 04:06:34),TRUE,FALSE,4,0,FALSE
"589","A1Z7QTDFX7ZM2O","Dec 05 2013","04:06:34",6,0,"Switch",1,"Novel20",1,"Novel74",0,4680,"eyescenter2","4","0","soc",1,0,(Dec 05 2013 04:06:34),TRUE,TRUE,4,0,FALSE
"590","A1Z7QTDFX7ZM2O","Dec 05 2013","04:06:34",7,1,"Same",0,"Novel66",2,"Novel66",2,2574,"eyesdownrightarrow","4","0","soc",0,1,(Dec 05 2013 04:06:34),TRUE,FALSE,4,0,TRUE
"591","A1Z7QTDFX7ZM2O","Dec 05 2013","04:06:34",8,1,"Same",0,"Novel66",3,"Novel66",2,1021,"eyescenter2","4","0","soc",1,0,(Dec 05 2013 04:06:34),TRUE,FALSE,4,0,TRUE
"592","A1Z7QTDFX7ZM2O","Dec 05 2013","04:06:34",9,2,"Switch",0,"Novel3",3,"Novel61",2,2069,"eyesrightarrow","4","0","soc",0,1,(Dec 05 2013 04:06:34),TRUE,FALSE,4,0,FALSE
"593","A1Z7QTDFX7ZM2O","Dec 05 2013","04:06:34",10,2,"Switch",0,"Novel61",1,"Novel61",2,2846,"eyescenter2","4","0","soc",1,0,(Dec 05 2013 04:06:34),TRUE,FALSE,4,0,TRUE
"594","A1Z7QTDFX7ZM2O","Dec 05 2013","04:06:34",11,3,"Same",0,"Novel135",2,"Novel135",2,1872,"eyesdownrightarrow","4","0","soc",0,1,(Dec 05 2013 04:06:34),TRUE,FALSE,4,0,TRUE
"595","A1Z7QTDFX7ZM2O","Dec 05 2013","04:06:34",12,3,"Same",0,"Novel135",3,"Novel135",2,877,"eyescenter2","4","0","soc",1,0,(Dec 05 2013 04:06:34),TRUE,FALSE,4,0,TRUE
"596","A1Z7QTDFX7ZM2O","Dec 05 2013","04:06:34",17,6,"Switch",1,"Novel21",0,"Novel57",1,1326,"eyesleftarrow","4","0","soc",0,1,(Dec 05 2013 04:06:34),TRUE,FALSE,4,0,FALSE
"597","A1Z7QTDFX7ZM2O","Dec 05 2013","04:06:34",18,6,"Switch",1,"Novel107",3,"Novel57",1,1309,"eyescenter2","4","0","soc",1,0,(Dec 05 2013 04:06:34),TRUE,FALSE,4,0,FALSE
"598","A1Z7QTDFX7ZM2O","Dec 05 2013","04:06:34",19,7,"Same",1,"Novel9",3,"Novel9",3,1776,"eyesrightarrow","4","0","soc",0,1,(Dec 05 2013 04:06:34),TRUE,FALSE,4,0,TRUE
"599","A1Z7QTDFX7ZM2O","Dec 05 2013","04:06:34",16,5,"Same",1,"Novel29",2,"Novel29",2,722,"eyescenter2","4","0","soc",1,0,(Dec 05 2013 04:06:34),TRUE,FALSE,4,0,TRUE
"600","A1Z7QTDFX7ZM2O","Dec 05 2013","04:06:34",20,7,"Same",1,"Novel9",3,"Novel9",3,1174,"eyescenter2","4","0","soc",1,0,(Dec 05 2013 04:06:34),TRUE,FALSE,4,0,TRUE
"601","A1ZRK6K5JUPJAV","Jan 18 2014","15:29:58",20,7,"Switch",1,"Novel118",0,"Novel102",3,4937,"eyescenter2","4","3","soc",1,0,(Jan 18 2014 15:29:58),TRUE,FALSE,4,3,FALSE
"602","A1ZRK6K5JUPJAV","Jan 18 2014","15:29:58",7,2,"Same",1,"Novel20",0,"Novel20",0,2627,"eyesleftarrow","4","3","soc",0,1,(Jan 18 2014 15:29:58),TRUE,FALSE,4,3,TRUE
"603","A1ZRK6K5JUPJAV","Jan 18 2014","15:29:58",8,3,"Switch",0,"Novel119",2,"Novel71",1,2229,"eyesdownrightarrow","4","3","soc",0,1,(Jan 18 2014 15:29:58),TRUE,FALSE,4,3,FALSE
"608","A1ZRK6K5JUPJAV","Jan 18 2014","15:29:58",5,0,"Same",0,"Novel11",1,"Novel11",1,5223,"eyesleftarrow","4","3","soc",0,1,(Jan 18 2014 15:29:58),TRUE,FALSE,4,3,TRUE
"609","A1ZRK6K5JUPJAV","Jan 18 2014","15:29:58",6,1,"Switch",0,"Novel82",3,"Novel80",1,3614,"eyesdownleftarrow","4","3","soc",0,1,(Jan 18 2014 15:29:58),TRUE,FALSE,4,3,FALSE
"610","A1ZRK6K5JUPJAV","Jan 18 2014","15:29:58",11,2,"Same",1,"Novel20",0,"Novel20",0,1487,"eyescenter2","4","3","soc",1,0,(Jan 18 2014 15:29:58),TRUE,FALSE,4,3,TRUE
"611","A1ZRK6K5JUPJAV","Jan 18 2014","15:29:58",12,3,"Switch",0,"Novel64",2,"Novel71",1,3659,"eyescenter2","4","3","soc",1,0,(Jan 18 2014 15:29:58),TRUE,FALSE,4,3,FALSE
"612","A1ZRK6K5JUPJAV","Jan 18 2014","15:29:58",9,0,"Same",0,"Novel99",0,"Novel11",1,3578,"eyescenter2","4","3","soc",1,0,(Jan 18 2014 15:29:58),TRUE,TRUE,4,3,FALSE
"613","A1ZRK6K5JUPJAV","Jan 18 2014","15:29:58",10,1,"Switch",0,"Novel80",3,"Novel80",1,2920,"eyescenter2","4","3","soc",1,0,(Jan 18 2014 15:29:58),TRUE,FALSE,4,3,TRUE
"614","A1ZRK6K5JUPJAV","Jan 18 2014","15:29:58",15,6,"Same",0,"Novel56",1,"Novel56",1,2060,"eyesleftarrow","4","3","soc",0,1,(Jan 18 2014 15:29:58),TRUE,FALSE,4,3,TRUE
"615","A1ZRK6K5JUPJAV","Jan 18 2014","15:29:58",16,7,"Switch",1,"Novel139",2,"Novel102",3,1490,"eyesdownrightarrow","4","3","soc",0,1,(Jan 18 2014 15:29:58),TRUE,FALSE,4,3,FALSE
"616","A1ZRK6K5JUPJAV","Jan 18 2014","15:29:58",13,4,"Same",1,"Novel73",3,"Novel73",3,7190,"eyesrightarrow","4","3","soc",0,1,(Jan 18 2014 15:29:58),TRUE,FALSE,4,3,TRUE
"617","A1ZRK6K5JUPJAV","Jan 18 2014","15:29:58",14,5,"Switch",1,"Novel37",0,"Novel21",2,1331,"eyesleftarrow","4","3","soc",0,1,(Jan 18 2014 15:29:58),TRUE,FALSE,4,3,FALSE
"618","A1ZRK6K5JUPJAV","Jan 18 2014","15:29:58",19,6,"Same",0,"Novel1",1,"Novel56",1,1485,"eyescenter2","4","3","soc",1,0,(Jan 18 2014 15:29:58),TRUE,FALSE,4,3,FALSE
"619","A1ZRK6K5JUPJAV","Jan 18 2014","15:29:58",17,4,"Same",1,"Novel84",2,"Novel73",3,2307,"eyescenter2","4","3","soc",1,0,(Jan 18 2014 15:29:58),TRUE,FALSE,4,3,FALSE
"620","A1ZRK6K5JUPJAV","Jan 18 2014","15:29:58",18,5,"Switch",1,"Novel124",3,"Novel21",2,1530,"eyescenter2","4","3","soc",1,0,(Jan 18 2014 15:29:58),TRUE,FALSE,4,3,FALSE
"624","A207PCIH6CMDY6","Jan 19 2014","10:05:43",15,6,"Switch",1,"Novel94",1,"Novel58",0,4880,"eyesright","4","3","nosoc",0,1,(Jan 19 2014 10:05:43),TRUE,FALSE,4,3,FALSE
"625","A207PCIH6CMDY6","Jan 19 2014","10:05:43",16,7,"Same",0,"Novel24",1,"Novel24",1,4961,"eyesright","4","3","nosoc",0,1,(Jan 19 2014 10:05:43),TRUE,FALSE,4,3,TRUE
"627","A207PCIH6CMDY6","Jan 19 2014","10:05:43",5,0,"Switch",1,"Novel40",1,"Novel12",0,3652,"eyesright","4","3","nosoc",0,1,(Jan 19 2014 10:05:43),TRUE,FALSE,4,3,FALSE
"628","A207PCIH6CMDY6","Jan 19 2014","10:05:43",6,1,"Same",1,"Novel111",1,"Novel111",1,5139,"eyesdownright","4","3","nosoc",0,1,(Jan 19 2014 10:05:43),TRUE,FALSE,4,3,TRUE
"629","A207PCIH6CMDY6","Jan 19 2014","10:05:43",7,2,"Switch",0,"Novel128",0,"Novel114",2,3327,"eyesleft","4","3","nosoc",0,1,(Jan 19 2014 10:05:43),TRUE,FALSE,4,3,FALSE
"630","A207PCIH6CMDY6","Jan 19 2014","10:05:43",8,3,"Same",1,"Novel11",0,"Novel11",0,4702,"eyesdownleft","4","3","nosoc",0,1,(Jan 19 2014 10:05:43),TRUE,FALSE,4,3,TRUE
"631","A207PCIH6CMDY6","Jan 19 2014","10:05:43",9,0,"Switch",1,"Novel12",0,"Novel12",0,4319,"eyescenter","4","3","nosoc",1,0,(Jan 19 2014 10:05:43),TRUE,TRUE,4,3,TRUE
"632","A207PCIH6CMDY6","Jan 19 2014","10:05:43",10,1,"Same",1,"Novel111",1,"Novel111",1,2230,"eyescenter","4","3","nosoc",1,0,(Jan 19 2014 10:05:43),TRUE,FALSE,4,3,TRUE
"633","A207PCIH6CMDY6","Jan 19 2014","10:05:43",11,2,"Switch",0,"Novel114",0,"Novel114",2,5422,"eyescenter","4","3","nosoc",1,0,(Jan 19 2014 10:05:43),TRUE,FALSE,4,3,TRUE
"634","A207PCIH6CMDY6","Jan 19 2014","10:05:43",12,3,"Same",1,"Novel11",0,"Novel11",0,2602,"eyescenter","4","3","nosoc",1,0,(Jan 19 2014 10:05:43),TRUE,FALSE,4,3,TRUE
"635","A207PCIH6CMDY6","Jan 19 2014","10:05:43",13,4,"Switch",0,"Novel19",2,"Novel121",0,2438,"eyesleft","4","3","nosoc",0,1,(Jan 19 2014 10:05:43),TRUE,FALSE,4,3,FALSE
"636","A207PCIH6CMDY6","Jan 19 2014","10:05:43",14,5,"Same",0,"Novel108",0,"Novel108",0,5074,"eyesdownright","4","3","nosoc",0,1,(Jan 19 2014 10:05:43),TRUE,FALSE,4,3,TRUE
"637","A207PCIH6CMDY6","Jan 19 2014","10:05:43",19,6,"Switch",1,"Novel58",0,"Novel58",0,1897,"eyescenter","4","3","nosoc",1,0,(Jan 19 2014 10:05:43),TRUE,FALSE,4,3,TRUE
"638","A207PCIH6CMDY6","Jan 19 2014","10:05:43",20,7,"Same",0,"Novel24",3,"Novel24",1,2114,"eyescenter","4","3","nosoc",1,0,(Jan 19 2014 10:05:43),TRUE,FALSE,4,3,TRUE
"639","A207PCIH6CMDY6","Jan 19 2014","10:05:43",17,4,"Switch",0,"Novel121",3,"Novel121",0,4399,"eyescenter","4","3","nosoc",1,0,(Jan 19 2014 10:05:43),TRUE,FALSE,4,3,TRUE
"640","A207PCIH6CMDY6","Jan 19 2014","10:05:43",18,5,"Same",0,"Novel108",2,"Novel108",0,3801,"eyescenter","4","3","nosoc",1,0,(Jan 19 2014 10:05:43),TRUE,FALSE,4,3,TRUE
"641","A22XK2FSFIAAFG","Jan 19 2014","10:09:36",8,3,"Switch",0,"Novel28",3,"Novel46",1,1746,"eyesdownright","4","3","nosoc",0,1,(Jan 19 2014 10:09:36),TRUE,FALSE,4,3,FALSE
"642","A22XK2FSFIAAFG","Jan 19 2014","10:09:36",9,0,"Same",0,"Novel6",2,"Novel6",1,1595,"eyescenter","4","3","nosoc",1,0,(Jan 19 2014 10:09:36),TRUE,TRUE,4,3,TRUE
"647","A22XK2FSFIAAFG","Jan 19 2014","10:09:36",5,0,"Same",0,"Novel6",1,"Novel6",1,1027,"eyesleft","4","3","nosoc",0,1,(Jan 19 2014 10:09:36),TRUE,FALSE,4,3,TRUE
"648","A22XK2FSFIAAFG","Jan 19 2014","10:09:36",6,1,"Switch",1,"Novel124",3,"Novel97",0,1405,"eyesdownleft","4","3","nosoc",0,1,(Jan 19 2014 10:09:36),TRUE,FALSE,4,3,FALSE
"649","A22XK2FSFIAAFG","Jan 19 2014","10:09:36",7,2,"Same",0,"Novel110",0,"Novel110",0,1828,"eyesdownright","4","3","nosoc",0,1,(Jan 19 2014 10:09:36),TRUE,FALSE,4,3,TRUE
"650","A22XK2FSFIAAFG","Jan 19 2014","10:09:36",12,3,"Switch",0,"Novel46",0,"Novel46",1,2753,"eyescenter","4","3","nosoc",1,0,(Jan 19 2014 10:09:36),TRUE,FALSE,4,3,TRUE
"651","A22XK2FSFIAAFG","Jan 19 2014","10:09:36",13,4,"Same",1,"Novel105",0,"Novel105",0,1423,"eyesdownleft","4","3","nosoc",0,1,(Jan 19 2014 10:09:36),TRUE,FALSE,4,3,TRUE
"652","A22XK2FSFIAAFG","Jan 19 2014","10:09:36",10,1,"Switch",1,"Novel97",0,"Novel97",0,1887,"eyescenter","4","3","nosoc",1,0,(Jan 19 2014 10:09:36),TRUE,FALSE,4,3,TRUE
"653","A22XK2FSFIAAFG","Jan 19 2014","10:09:36",11,2,"Same",0,"Novel110",1,"Novel110",0,1315,"eyescenter","4","3","nosoc",1,0,(Jan 19 2014 10:09:36),TRUE,FALSE,4,3,TRUE
"654","A22XK2FSFIAAFG","Jan 19 2014","10:09:36",16,7,"Switch",1,"Novel42",2,"Novel17",0,1543,"eyesleft","4","3","nosoc",0,1,(Jan 19 2014 10:09:36),TRUE,FALSE,4,3,FALSE
"655","A22XK2FSFIAAFG","Jan 19 2014","10:09:36",17,4,"Same",1,"Novel105",0,"Novel105",0,3037,"eyescenter","4","3","nosoc",1,0,(Jan 19 2014 10:09:36),TRUE,FALSE,4,3,TRUE
"656","A22XK2FSFIAAFG","Jan 19 2014","10:09:36",14,5,"Switch",0,"Novel95",3,"Novel43",1,1781,"eyesright","4","3","nosoc",0,1,(Jan 19 2014 10:09:36),TRUE,FALSE,4,3,FALSE
"657","A22XK2FSFIAAFG","Jan 19 2014","10:09:36",15,6,"Same",1,"Novel77",3,"Novel77",3,1035,"eyesright","4","3","nosoc",0,1,(Jan 19 2014 10:09:36),TRUE,FALSE,4,3,TRUE
"658","A22XK2FSFIAAFG","Jan 19 2014","10:09:36",20,7,"Switch",1,"Novel115",1,"Novel17",0,1967,"eyescenter","4","3","nosoc",1,0,(Jan 19 2014 10:09:36),TRUE,FALSE,4,3,FALSE
"659","A22XK2FSFIAAFG","Jan 19 2014","10:09:36",18,5,"Switch",0,"Novel21",2,"Novel43",1,2198,"eyescenter","4","3","nosoc",1,0,(Jan 19 2014 10:09:36),TRUE,FALSE,4,3,FALSE
"660","A22XK2FSFIAAFG","Jan 19 2014","10:09:36",19,6,"Same",1,"Novel77",3,"Novel77",3,1853,"eyescenter","4","3","nosoc",1,0,(Jan 19 2014 10:09:36),TRUE,FALSE,4,3,TRUE
"664","A23PRCJGBK3AEP","Jan 19 2014","10:10:35",15,6,"Switch",0,"Novel100",0,"Novel88",1,4347,"eyesdownleft","4","3","nosoc",0,1,(Jan 19 2014 10:10:35),TRUE,FALSE,4,3,FALSE
"665","A23PRCJGBK3AEP","Jan 19 2014","10:10:35",16,7,"Same",1,"Novel22",2,"Novel22",2,3115,"eyesleft","4","3","nosoc",0,1,(Jan 19 2014 10:10:35),TRUE,FALSE,4,3,TRUE
"667","A23PRCJGBK3AEP","Jan 19 2014","10:10:35",5,0,"Switch",0,"Novel77",3,"Novel73",2,12840,"eyesright","4","3","nosoc",0,1,(Jan 19 2014 10:10:35),TRUE,FALSE,4,3,FALSE
"668","A23PRCJGBK3AEP","Jan 19 2014","10:10:35",6,1,"Same",0,"Novel23",1,"Novel23",1,3156,"eyesdownright","4","3","nosoc",0,1,(Jan 19 2014 10:10:35),TRUE,FALSE,4,3,TRUE
"669","A23PRCJGBK3AEP","Jan 19 2014","10:10:35",7,2,"Switch",1,"Novel97",1,"Novel16",0,6685,"eyesdownleft","4","3","nosoc",0,1,(Jan 19 2014 10:10:35),TRUE,FALSE,4,3,FALSE
"670","A23PRCJGBK3AEP","Jan 19 2014","10:10:35",8,3,"Same",1,"Novel69",2,"Novel69",2,3293,"eyesright","4","3","nosoc",0,1,(Jan 19 2014 10:10:35),TRUE,FALSE,4,3,TRUE
"671","A23PRCJGBK3AEP","Jan 19 2014","10:10:35",9,0,"Switch",0,"Novel108",2,"Novel73",2,5379,"eyescenter","4","3","nosoc",1,0,(Jan 19 2014 10:10:35),TRUE,TRUE,4,3,FALSE
"672","A23PRCJGBK3AEP","Jan 19 2014","10:10:35",10,1,"Same",0,"Novel23",0,"Novel23",1,1474,"eyescenter","4","3","nosoc",1,0,(Jan 19 2014 10:10:35),TRUE,FALSE,4,3,TRUE
"673","A23PRCJGBK3AEP","Jan 19 2014","10:10:35",11,2,"Switch",1,"Novel16",0,"Novel16",0,4099,"eyescenter","4","3","nosoc",1,0,(Jan 19 2014 10:10:35),TRUE,FALSE,4,3,TRUE
"674","A23PRCJGBK3AEP","Jan 19 2014","10:10:35",12,3,"Same",1,"Novel69",2,"Novel69",2,2315,"eyescenter","4","3","nosoc",1,0,(Jan 19 2014 10:10:35),TRUE,FALSE,4,3,TRUE
"675","A23PRCJGBK3AEP","Jan 19 2014","10:10:35",13,4,"Switch",1,"Novel68",2,"Novel61",0,2316,"eyesleft","4","3","nosoc",0,1,(Jan 19 2014 10:10:35),TRUE,FALSE,4,3,FALSE
"676","A23PRCJGBK3AEP","Jan 19 2014","10:10:35",14,5,"Same",0,"Novel116",1,"Novel116",1,3906,"eyesdownleft","4","3","nosoc",0,1,(Jan 19 2014 10:10:35),TRUE,FALSE,4,3,TRUE
"677","A23PRCJGBK3AEP","Jan 19 2014","10:10:35",19,6,"Switch",0,"Novel88",2,"Novel88",1,1445,"eyescenter","4","3","nosoc",1,0,(Jan 19 2014 10:10:35),TRUE,FALSE,4,3,TRUE
"678","A23PRCJGBK3AEP","Jan 19 2014","10:10:35",20,7,"Same",1,"Novel22",2,"Novel22",2,2996,"eyescenter","4","3","nosoc",1,0,(Jan 19 2014 10:10:35),TRUE,FALSE,4,3,TRUE
"679","A23PRCJGBK3AEP","Jan 19 2014","10:10:35",17,4,"Switch",1,"Novel10",2,"Novel61",0,2133,"eyescenter","4","3","nosoc",1,0,(Jan 19 2014 10:10:35),TRUE,FALSE,4,3,FALSE
"680","A23PRCJGBK3AEP","Jan 19 2014","10:10:35",18,5,"Same",0,"Novel116",3,"Novel116",1,1548,"eyescenter","4","3","nosoc",1,0,(Jan 19 2014 10:10:35),TRUE,FALSE,4,3,TRUE
"704","A25GRAPL6NLMYL","Jan 19 2014","10:12:33",13,4,"Same",1,"Novel113",3,"Novel113",3,8992,"eyesleft","4","3","nosoc",0,1,(Jan 19 2014 10:12:33),TRUE,FALSE,4,3,TRUE
"705","A25GRAPL6NLMYL","Jan 19 2014","10:12:33",14,5,"Switch",0,"Novel37",0,"Novel43",2,6378,"eyesright","4","3","nosoc",0,1,(Jan 19 2014 10:12:33),TRUE,FALSE,4,3,FALSE
"706","A25GRAPL6NLMYL","Jan 19 2014","10:12:33",15,6,"Same",0,"Novel138",2,"Novel138",2,7242,"eyesright","4","3","nosoc",0,1,(Jan 19 2014 10:12:33),TRUE,FALSE,4,3,TRUE
"707","A25GRAPL6NLMYL","Jan 19 2014","10:12:33",16,7,"Switch",1,"Novel47",2,"Novel111",1,7233,"eyesdownright","4","3","nosoc",0,1,(Jan 19 2014 10:12:33),TRUE,FALSE,4,3,FALSE
"709","A25GRAPL6NLMYL","Jan 19 2014","10:12:33",5,0,"Same",0,"Novel3",1,"Novel3",1,7630,"eyesdownleft","4","3","nosoc",0,1,(Jan 19 2014 10:12:33),TRUE,FALSE,4,3,TRUE
"710","A25GRAPL6NLMYL","Jan 19 2014","10:12:33",6,1,"Switch",1,"Novel103",2,"Novel50",3,11754,"eyesdownleft","4","3","nosoc",0,1,(Jan 19 2014 10:12:33),TRUE,FALSE,4,3,FALSE
"711","A25GRAPL6NLMYL","Jan 19 2014","10:12:33",7,2,"Same",1,"Novel92",3,"Novel92",3,6048,"eyesdownright","4","3","nosoc",0,1,(Jan 19 2014 10:12:33),TRUE,FALSE,4,3,TRUE
"712","A25GRAPL6NLMYL","Jan 19 2014","10:12:33",8,3,"Switch",0,"Novel124",0,"Novel77",2,6382,"eyesleft","4","3","nosoc",0,1,(Jan 19 2014 10:12:33),TRUE,FALSE,4,3,FALSE
"713","A25GRAPL6NLMYL","Jan 19 2014","10:12:33",9,0,"Same",0,"Novel3",2,"Novel3",1,3031,"eyescenter","4","3","nosoc",1,0,(Jan 19 2014 10:12:33),TRUE,TRUE,4,3,TRUE
"714","A25GRAPL6NLMYL","Jan 19 2014","10:12:33",10,1,"Switch",1,"Novel50",3,"Novel50",3,6439,"eyescenter","4","3","nosoc",1,0,(Jan 19 2014 10:12:33),TRUE,FALSE,4,3,TRUE
"715","A25GRAPL6NLMYL","Jan 19 2014","10:12:33",11,2,"Same",1,"Novel92",3,"Novel92",3,3334,"eyescenter","4","3","nosoc",1,0,(Jan 19 2014 10:12:33),TRUE,FALSE,4,3,TRUE
"716","A25GRAPL6NLMYL","Jan 19 2014","10:12:33",12,3,"Switch",0,"Novel77",0,"Novel77",2,6331,"eyescenter","4","3","nosoc",1,0,(Jan 19 2014 10:12:33),TRUE,FALSE,4,3,TRUE
"717","A25GRAPL6NLMYL","Jan 19 2014","10:12:33",17,4,"Same",1,"Novel113",3,"Novel113",3,4251,"eyescenter","4","3","nosoc",1,0,(Jan 19 2014 10:12:33),TRUE,FALSE,4,3,TRUE
"718","A25GRAPL6NLMYL","Jan 19 2014","10:12:33",18,5,"Switch",0,"Novel79",1,"Novel43",2,10471,"eyescenter","4","3","nosoc",1,0,(Jan 19 2014 10:12:33),TRUE,FALSE,4,3,FALSE
"719","A25GRAPL6NLMYL","Jan 19 2014","10:12:33",19,6,"Same",0,"Novel138",0,"Novel138",2,2319,"eyescenter","4","3","nosoc",1,0,(Jan 19 2014 10:12:33),TRUE,FALSE,4,3,TRUE
"720","A25GRAPL6NLMYL","Jan 19 2014","10:12:33",20,7,"Switch",1,"Novel111",1,"Novel111",1,5287,"eyescenter","4","3","nosoc",1,0,(Jan 19 2014 10:12:33),TRUE,FALSE,4,3,TRUE
"721","A25ZADCJI3D5AF","Dec 02 2013","15:56:49",20,7,"Switch",0,"Novel44",0,"Novel44",2,2616,"eyescenter","4","0","nosoc",1,0,(Dec 02 2013 15:56:49),TRUE,FALSE,4,0,TRUE
"722","A25ZADCJI3D5AF","Dec 02 2013","15:56:49",7,1,"Switch",1,"Novel102",2,"Novel70",1,4345,"eyescenter","4","0","nosoc",0,1,(Dec 02 2013 15:56:49),TRUE,FALSE,4,0,FALSE
"723","A25ZADCJI3D5AF","Dec 02 2013","15:56:49",8,1,"Switch",1,"Novel91",2,"Novel70",1,4896,"eyescenter","4","0","nosoc",1,0,(Dec 02 2013 15:56:49),TRUE,FALSE,4,0,FALSE
"724","A25ZADCJI3D5AF","Dec 02 2013","15:56:49",9,2,"Same",0,"Novel108",1,"Novel108",1,2043,"eyescenter","4","0","nosoc",0,1,(Dec 02 2013 15:56:49),TRUE,FALSE,4,0,TRUE
"729","A25ZADCJI3D5AF","Dec 02 2013","15:56:49",5,0,"Same",1,"Novel86",1,"Novel86",1,4652,"eyescenter","4","0","nosoc",0,1,(Dec 02 2013 15:56:49),TRUE,FALSE,4,0,TRUE
"730","A25ZADCJI3D5AF","Dec 02 2013","15:56:49",6,0,"Same",1,"Novel86",1,"Novel86",1,1819,"eyescenter","4","0","nosoc",1,0,(Dec 02 2013 15:56:49),TRUE,TRUE,4,0,TRUE
"731","A25ZADCJI3D5AF","Dec 02 2013","15:56:49",11,3,"Switch",1,"Novel17",1,"Novel125",2,3394,"eyescenter","4","0","nosoc",0,1,(Dec 02 2013 15:56:49),TRUE,FALSE,4,0,FALSE
"732","A25ZADCJI3D5AF","Dec 02 2013","15:56:49",12,3,"Switch",1,"Novel133",1,"Novel125",2,1531,"eyescenter","4","0","nosoc",1,0,(Dec 02 2013 15:56:49),TRUE,FALSE,4,0,FALSE
"733","A25ZADCJI3D5AF","Dec 02 2013","15:56:49",13,4,"Same",1,"Novel110",1,"Novel110",1,1903,"eyescenter","4","0","nosoc",0,1,(Dec 02 2013 15:56:49),TRUE,FALSE,4,0,TRUE
"734","A25ZADCJI3D5AF","Dec 02 2013","15:56:49",10,2,"Same",0,"Novel108",3,"Novel108",1,1418,"eyescenter","4","0","nosoc",1,0,(Dec 02 2013 15:56:49),TRUE,FALSE,4,0,TRUE
"735","A25ZADCJI3D5AF","Dec 02 2013","15:56:49",15,5,"Switch",0,"Novel13",2,"Novel26",3,4013,"eyescenter","4","0","nosoc",0,1,(Dec 02 2013 15:56:49),TRUE,FALSE,4,0,FALSE
"736","A25ZADCJI3D5AF","Dec 02 2013","15:56:49",16,5,"Switch",0,"Novel1",2,"Novel26",3,1926,"eyescenter","4","0","nosoc",1,0,(Dec 02 2013 15:56:49),TRUE,FALSE,4,0,FALSE
"737","A25ZADCJI3D5AF","Dec 02 2013","15:56:49",17,6,"Same",0,"Novel72",2,"Novel72",2,2466,"eyescenter","4","0","nosoc",0,1,(Dec 02 2013 15:56:49),TRUE,FALSE,4,0,TRUE
"738","A25ZADCJI3D5AF","Dec 02 2013","15:56:49",14,4,"Same",1,"Novel110",1,"Novel110",1,1006,"eyescenter","4","0","nosoc",1,0,(Dec 02 2013 15:56:49),TRUE,FALSE,4,0,TRUE
"739","A25ZADCJI3D5AF","Dec 02 2013","15:56:49",19,7,"Switch",0,"Novel136",3,"Novel44",2,2865,"eyescenter","4","0","nosoc",0,1,(Dec 02 2013 15:56:49),TRUE,FALSE,4,0,FALSE
"740","A25ZADCJI3D5AF","Dec 02 2013","15:56:49",18,6,"Same",0,"Novel72",0,"Novel72",2,1848,"eyescenter","4","0","nosoc",1,0,(Dec 02 2013 15:56:49),TRUE,FALSE,4,0,TRUE
"745","A26NQQXUTRUFYP","Dec 05 2013","04:39:26",15,5,"Same",0,"Novel115",1,"Novel115",1,1781,"eyesdownleftarrow","4","0","soc",0,1,(Dec 05 2013 04:39:26),TRUE,FALSE,4,0,TRUE
"746","A26NQQXUTRUFYP","Dec 05 2013","04:39:26",16,5,"Same",0,"Novel115",0,"Novel115",1,688,"eyescenter2","4","0","soc",1,0,(Dec 05 2013 04:39:26),TRUE,FALSE,4,0,TRUE
"747","A26NQQXUTRUFYP","Dec 05 2013","04:39:26",17,6,"Switch",0,"Novel99",0,"Novel127",1,1188,"eyesleftarrow","4","0","soc",0,1,(Dec 05 2013 04:39:26),TRUE,FALSE,4,0,FALSE
"748","A26NQQXUTRUFYP","Dec 05 2013","04:39:26",5,0,"Switch",1,"Novel36",0,"Novel138",2,4922,"eyesleftarrow","4","0","soc",0,1,(Dec 05 2013 04:39:26),TRUE,FALSE,4,0,FALSE
"749","A26NQQXUTRUFYP","Dec 05 2013","04:39:26",6,0,"Switch",1,"Novel138",2,"Novel138",2,5812,"eyescenter2","4","0","soc",1,0,(Dec 05 2013 04:39:26),TRUE,TRUE,4,0,TRUE
"750","A26NQQXUTRUFYP","Dec 05 2013","04:39:26",7,1,"Same",1,"Novel140",1,"Novel140",1,1719,"eyesdownleftarrow","4","0","soc",0,1,(Dec 05 2013 04:39:26),TRUE,FALSE,4,0,TRUE
"751","A26NQQXUTRUFYP","Dec 05 2013","04:39:26",8,1,"Same",1,"Novel140",1,"Novel140",1,2016,"eyescenter2","4","0","soc",1,0,(Dec 05 2013 04:39:26),TRUE,FALSE,4,0,TRUE
"752","A26NQQXUTRUFYP","Dec 05 2013","04:39:26",9,2,"Switch",1,"Novel26",0,"Novel33",2,2250,"eyesleftarrow","4","0","soc",0,1,(Dec 05 2013 04:39:26),TRUE,FALSE,4,0,FALSE
"753","A26NQQXUTRUFYP","Dec 05 2013","04:39:26",10,2,"Switch",1,"Novel39",1,"Novel33",2,2609,"eyescenter2","4","0","soc",1,0,(Dec 05 2013 04:39:26),TRUE,FALSE,4,0,FALSE
"754","A26NQQXUTRUFYP","Dec 05 2013","04:39:26",11,3,"Same",1,"Novel56",3,"Novel56",3,2641,"eyesrightarrow","4","0","soc",0,1,(Dec 05 2013 04:39:26),TRUE,FALSE,4,0,TRUE
"755","A26NQQXUTRUFYP","Dec 05 2013","04:39:26",12,3,"Same",1,"Novel56",3,"Novel56",3,843,"eyescenter2","4","0","soc",1,0,(Dec 05 2013 04:39:26),TRUE,FALSE,4,0,TRUE
"756","A26NQQXUTRUFYP","Dec 05 2013","04:39:26",13,4,"Switch",0,"Novel139",2,"Novel91",1,1812,"eyesdownrightarrow","4","0","soc",0,1,(Dec 05 2013 04:39:26),TRUE,FALSE,4,0,FALSE
"757","A26NQQXUTRUFYP","Dec 05 2013","04:39:26",14,4,"Switch",0,"Novel27",3,"Novel91",1,1454,"eyescenter2","4","0","soc",1,0,(Dec 05 2013 04:39:26),TRUE,FALSE,4,0,FALSE
