"","subid","submit.date","submit.time","trial.num","condition","interval","numPic","itemNum","trialType","samePos","chosen","chosenIdx","kept","keptIdx","rt","face","faceIdx","exposureTrial","testTrial","exampleTrial","day.and.time","intervalNum","include","first.trial","numPicN","correct"
"1","A07470353L7983ZPFPYV2","May 02 2014","13:17:43",1,"No-Social","Seven",2,0,"Switch",1,"squirrel",0,"",0,5884,"eyescenter",-1,0,0,1,(May 02 2014 13:17:43),7,TRUE,FALSE,2,FALSE
"2","A07470353L7983ZPFPYV2","May 02 2014","13:17:43",2,"No-Social","Seven",2,0,"Switch",1,"squirrel",1,"",0,2193,"eyescenter",-1,0,0,1,(May 02 2014 13:17:43),7,TRUE,FALSE,2,FALSE
"3","A07470353L7983ZPFPYV2","May 02 2014","13:17:43",3,"No-Social","Seven",2,0,"Switch",1,"tomato",0,"",0,2587,"eyescenter",-1,0,0,1,(May 02 2014 13:17:43),7,TRUE,FALSE,2,FALSE
"4","A07470353L7983ZPFPYV2","May 02 2014","13:17:43",4,"No-Social","Seven",2,0,"Switch",1,"tomato",1,"",0,3155,"eyescenter",-1,0,0,1,(May 02 2014 13:17:43),7,TRUE,FALSE,2,FALSE
"5","A07470353L7983ZPFPYV2","May 02 2014","13:17:43",5,"No-Social","Seven",2,0,"Switch",1,"Novel52",0,"Novel23",1,4611,"eyescenter",-1,1,0,0,(May 02 2014 13:17:43),7,TRUE,FALSE,2,FALSE
"6","A07470353L7983ZPFPYV2","May 02 2014","13:17:43",6,"No-Social","Seven",2,1,"Same",1,"Novel31",0,"Novel31",0,6207,"eyescenter",-1,1,0,0,(May 02 2014 13:17:43),7,TRUE,FALSE,2,TRUE
"7","A07470353L7983ZPFPYV2","May 02 2014","13:17:43",7,"No-Social","Seven",2,2,"Switch",0,"Novel65",1,"Novel6",0,3623,"eyescenter",-1,1,0,0,(May 02 2014 13:17:43),7,TRUE,FALSE,2,FALSE
"8","A07470353L7983ZPFPYV2","May 02 2014","13:17:43",8,"No-Social","Seven",2,3,"Same",0,"Novel134",0,"Novel134",0,3006,"eyescenter",-1,1,0,0,(May 02 2014 13:17:43),7,TRUE,FALSE,2,TRUE
"9","A07470353L7983ZPFPYV2","May 02 2014","13:17:43",9,"No-Social","Seven",2,4,"Switch",0,"Novel125",1,"Novel95",0,4471,"eyescenter",-1,1,0,0,(May 02 2014 13:17:43),7,TRUE,FALSE,2,FALSE
"10","A07470353L7983ZPFPYV2","May 02 2014","13:17:43",10,"No-Social","Seven",2,5,"Same",1,"Novel61",0,"Novel61",0,4577,"eyescenter",-1,1,0,0,(May 02 2014 13:17:43),7,TRUE,FALSE,2,TRUE
"11","A07470353L7983ZPFPYV2","May 02 2014","13:17:43",11,"No-Social","Seven",2,6,"Switch",1,"Novel110",0,"Novel44",1,5004,"eyescenter",-1,1,0,0,(May 02 2014 13:17:43),7,TRUE,FALSE,2,FALSE
"12","A07470353L7983ZPFPYV2","May 02 2014","13:17:43",12,"No-Social","Seven",2,7,"Same",0,"Novel68",0,"Novel68",0,2961,"eyescenter",-1,1,0,0,(May 02 2014 13:17:43),7,TRUE,FALSE,2,TRUE
"13","A07470353L7983ZPFPYV2","May 02 2014","13:17:43",13,"No-Social","Seven",2,0,"Switch",1,"Novel23",1,"Novel23",1,5680,"eyescenter",-1,0,1,0,(May 02 2014 13:17:43),7,TRUE,TRUE,2,TRUE
"14","A07470353L7983ZPFPYV2","May 02 2014","13:17:43",14,"No-Social","Seven",2,1,"Same",1,"Novel31",0,"Novel31",0,2835,"eyescenter",-1,0,1,0,(May 02 2014 13:17:43),7,TRUE,FALSE,2,TRUE
"15","A07470353L7983ZPFPYV2","May 02 2014","13:17:43",15,"No-Social","Seven",2,2,"Switch",0,"Novel6",1,"Novel6",0,3397,"eyescenter",-1,0,1,0,(May 02 2014 13:17:43),7,TRUE,FALSE,2,TRUE
"16","A07470353L7983ZPFPYV2","May 02 2014","13:17:43",16,"No-Social","Seven",2,3,"Same",0,"Novel134",1,"Novel134",0,2242,"eyescenter",-1,0,1,0,(May 02 2014 13:17:43),7,TRUE,FALSE,2,TRUE
"17","A07470353L7983ZPFPYV2","May 02 2014","13:17:43",17,"No-Social","Seven",2,4,"Switch",0,"Novel95",1,"Novel95",0,1798,"eyescenter",-1,0,1,0,(May 02 2014 13:17:43),7,TRUE,FALSE,2,TRUE
"18","A07470353L7983ZPFPYV2","May 02 2014","13:17:43",18,"No-Social","Seven",2,5,"Same",1,"Novel61",0,"Novel61",0,1387,"eyescenter",-1,0,1,0,(May 02 2014 13:17:43),7,TRUE,FALSE,2,TRUE
"19","A07470353L7983ZPFPYV2","May 02 2014","13:17:43",19,"No-Social","Seven",2,6,"Switch",1,"Novel44",1,"Novel44",1,2204,"eyescenter",-1,0,1,0,(May 02 2014 13:17:43),7,TRUE,FALSE,2,TRUE
"20","A07470353L7983ZPFPYV2","May 02 2014","13:17:43",20,"No-Social","Seven",2,7,"Same",0,"Novel68",1,"Novel68",0,1818,"eyescenter",-1,0,1,0,(May 02 2014 13:17:43),7,TRUE,FALSE,2,TRUE
"21","A0784745QMLL9WSFGA6H","May 02 2014","13:17:57",1,"No-Social","Seven",2,0,"Switch",0,"squirrel",0,"",0,1671,"eyescenter",-1,0,0,1,(May 02 2014 13:17:57),7,TRUE,FALSE,2,FALSE
"22","A0784745QMLL9WSFGA6H","May 02 2014","13:17:57",2,"No-Social","Seven",2,0,"Switch",0,"squirrel",1,"",0,805,"eyescenter",-1,0,0,1,(May 02 2014 13:17:57),7,TRUE,FALSE,2,FALSE
"23","A0784745QMLL9WSFGA6H","May 02 2014","13:17:57",3,"No-Social","Seven",2,0,"Switch",0,"tomato",0,"",0,718,"eyescenter",-1,0,0,1,(May 02 2014 13:17:57),7,TRUE,FALSE,2,FALSE
"24","A0784745QMLL9WSFGA6H","May 02 2014","13:17:57",4,"No-Social","Seven",2,0,"Switch",0,"tomato",1,"",0,624,"eyescenter",-1,0,0,1,(May 02 2014 13:17:57),7,TRUE,FALSE,2,FALSE
"25","A0784745QMLL9WSFGA6H","May 02 2014","13:17:57",5,"No-Social","Seven",2,0,"Switch",0,"Novel88",0,"Novel89",1,3325,"eyescenter",-1,1,0,0,(May 02 2014 13:17:57),7,TRUE,FALSE,2,FALSE
"26","A0784745QMLL9WSFGA6H","May 02 2014","13:17:57",6,"No-Social","Seven",2,1,"Same",1,"Novel77",0,"Novel77",0,3239,"eyescenter",-1,1,0,0,(May 02 2014 13:17:57),7,TRUE,FALSE,2,TRUE
"27","A0784745QMLL9WSFGA6H","May 02 2014","13:17:57",7,"No-Social","Seven",2,2,"Switch",1,"Novel94",1,"Novel14",0,1158,"eyescenter",-1,1,0,0,(May 02 2014 13:17:57),7,TRUE,FALSE,2,FALSE
"28","A0784745QMLL9WSFGA6H","May 02 2014","13:17:57",8,"No-Social","Seven",2,3,"Same",0,"Novel125",0,"Novel125",0,1451,"eyescenter",-1,1,0,0,(May 02 2014 13:17:57),7,TRUE,FALSE,2,TRUE
"29","A0784745QMLL9WSFGA6H","May 02 2014","13:17:57",9,"No-Social","Seven",2,4,"Switch",1,"Novel138",0,"Novel57",1,3056,"eyescenter",-1,1,0,0,(May 02 2014 13:17:57),7,TRUE,FALSE,2,FALSE
"30","A0784745QMLL9WSFGA6H","May 02 2014","13:17:57",10,"No-Social","Seven",2,5,"Same",1,"Novel104",0,"Novel104",0,1586,"eyescenter",-1,1,0,0,(May 02 2014 13:17:57),7,TRUE,FALSE,2,TRUE
"31","A0784745QMLL9WSFGA6H","May 02 2014","13:17:57",11,"No-Social","Seven",2,6,"Switch",0,"Novel78",1,"Novel97",0,1269,"eyescenter",-1,1,0,0,(May 02 2014 13:17:57),7,TRUE,FALSE,2,FALSE
"32","A0784745QMLL9WSFGA6H","May 02 2014","13:17:57",12,"No-Social","Seven",2,7,"Same",0,"Novel85",0,"Novel85",0,1194,"eyescenter",-1,1,0,0,(May 02 2014 13:17:57),7,TRUE,FALSE,2,TRUE
"33","A0784745QMLL9WSFGA6H","May 02 2014","13:17:57",13,"No-Social","Seven",2,0,"Switch",0,"Novel89",0,"Novel89",1,1070,"eyescenter",-1,0,1,0,(May 02 2014 13:17:57),7,TRUE,TRUE,2,TRUE
"34","A0784745QMLL9WSFGA6H","May 02 2014","13:17:57",14,"No-Social","Seven",2,1,"Same",1,"Novel77",0,"Novel77",0,1208,"eyescenter",-1,0,1,0,(May 02 2014 13:17:57),7,TRUE,FALSE,2,TRUE
"35","A0784745QMLL9WSFGA6H","May 02 2014","13:17:57",15,"No-Social","Seven",2,2,"Switch",1,"Novel14",0,"Novel14",0,1802,"eyescenter",-1,0,1,0,(May 02 2014 13:17:57),7,TRUE,FALSE,2,TRUE
"36","A0784745QMLL9WSFGA6H","May 02 2014","13:17:57",16,"No-Social","Seven",2,3,"Same",0,"Novel125",1,"Novel125",0,1087,"eyescenter",-1,0,1,0,(May 02 2014 13:17:57),7,TRUE,FALSE,2,TRUE
"37","A0784745QMLL9WSFGA6H","May 02 2014","13:17:57",17,"No-Social","Seven",2,4,"Switch",1,"Novel57",1,"Novel57",1,893,"eyescenter",-1,0,1,0,(May 02 2014 13:17:57),7,TRUE,FALSE,2,TRUE
"38","A0784745QMLL9WSFGA6H","May 02 2014","13:17:57",18,"No-Social","Seven",2,5,"Same",1,"Novel104",0,"Novel104",0,1253,"eyescenter",-1,0,1,0,(May 02 2014 13:17:57),7,TRUE,FALSE,2,TRUE
"39","A0784745QMLL9WSFGA6H","May 02 2014","13:17:57",19,"No-Social","Seven",2,6,"Switch",0,"Novel97",1,"Novel97",0,1668,"eyescenter",-1,0,1,0,(May 02 2014 13:17:57),7,TRUE,FALSE,2,TRUE
"40","A0784745QMLL9WSFGA6H","May 02 2014","13:17:57",20,"No-Social","Seven",2,7,"Same",0,"Novel85",1,"Novel85",0,1245,"eyescenter",-1,0,1,0,(May 02 2014 13:17:57),7,TRUE,FALSE,2,TRUE
"41","A10K8ZSAU26T49","May 02 2014","14:42:08",1,"No-Social","Seven",2,0,"Same",1,"squirrel",0,"",0,5497,"eyescenter",-1,0,0,1,(May 02 2014 14:42:08),7,TRUE,FALSE,2,FALSE
"42","A10K8ZSAU26T49","May 02 2014","14:42:08",2,"No-Social","Seven",2,0,"Same",1,"squirrel",1,"",0,3839,"eyescenter",-1,0,0,1,(May 02 2014 14:42:08),7,TRUE,FALSE,2,FALSE
"43","A10K8ZSAU26T49","May 02 2014","14:42:08",3,"No-Social","Seven",2,0,"Same",1,"tomato",0,"",0,1696,"eyescenter",-1,0,0,1,(May 02 2014 14:42:08),7,TRUE,FALSE,2,FALSE
"44","A10K8ZSAU26T49","May 02 2014","14:42:08",4,"No-Social","Seven",2,0,"Same",1,"tomato",1,"",0,1430,"eyescenter",-1,0,0,1,(May 02 2014 14:42:08),7,TRUE,FALSE,2,FALSE
"45","A10K8ZSAU26T49","May 02 2014","14:42:08",5,"No-Social","Seven",2,0,"Same",1,"Novel127",0,"Novel127",0,4681,"eyescenter",-1,1,0,0,(May 02 2014 14:42:08),7,TRUE,FALSE,2,TRUE
"46","A10K8ZSAU26T49","May 02 2014","14:42:08",6,"No-Social","Seven",2,1,"Switch",1,"Novel86",1,"Novel48",0,2574,"eyescenter",-1,1,0,0,(May 02 2014 14:42:08),7,TRUE,FALSE,2,FALSE
"47","A10K8ZSAU26T49","May 02 2014","14:42:08",7,"No-Social","Seven",2,2,"Same",0,"Novel7",1,"Novel7",1,6197,"eyescenter",-1,1,0,0,(May 02 2014 14:42:08),7,TRUE,FALSE,2,TRUE
"48","A10K8ZSAU26T49","May 02 2014","14:42:08",8,"No-Social","Seven",2,3,"Switch",0,"Novel115",1,"Novel5",0,4461,"eyescenter",-1,1,0,0,(May 02 2014 14:42:08),7,TRUE,FALSE,2,FALSE
"49","A10K8ZSAU26T49","May 02 2014","14:42:08",9,"No-Social","Seven",2,4,"Same",0,"Novel60",0,"Novel60",0,3787,"eyescenter",-1,1,0,0,(May 02 2014 14:42:08),7,TRUE,FALSE,2,TRUE
"50","A10K8ZSAU26T49","May 02 2014","14:42:08",10,"No-Social","Seven",2,5,"Switch",0,"Novel82",1,"Novel78",0,3710,"eyescenter",-1,1,0,0,(May 02 2014 14:42:08),7,TRUE,FALSE,2,FALSE
"51","A10K8ZSAU26T49","May 02 2014","14:42:08",11,"No-Social","Seven",2,6,"Same",1,"Novel99",0,"Novel99",0,4536,"eyescenter",-1,1,0,0,(May 02 2014 14:42:08),7,TRUE,FALSE,2,TRUE
"52","A10K8ZSAU26T49","May 02 2014","14:42:08",12,"No-Social","Seven",2,7,"Switch",1,"Novel95",0,"Novel57",1,3179,"eyescenter",-1,1,0,0,(May 02 2014 14:42:08),7,TRUE,FALSE,2,FALSE
"53","A10K8ZSAU26T49","May 02 2014","14:42:08",13,"No-Social","Seven",2,0,"Same",1,"Novel127",0,"Novel127",0,2591,"eyescenter",-1,0,1,0,(May 02 2014 14:42:08),7,TRUE,TRUE,2,TRUE
"54","A10K8ZSAU26T49","May 02 2014","14:42:08",14,"No-Social","Seven",2,1,"Switch",1,"Novel83",1,"Novel48",0,3676,"eyescenter",-1,0,1,0,(May 02 2014 14:42:08),7,TRUE,FALSE,2,FALSE
"55","A10K8ZSAU26T49","May 02 2014","14:42:08",15,"No-Social","Seven",2,2,"Same",0,"Novel118",1,"Novel7",1,2943,"eyescenter",-1,0,1,0,(May 02 2014 14:42:08),7,TRUE,FALSE,2,FALSE
"56","A10K8ZSAU26T49","May 02 2014","14:42:08",16,"No-Social","Seven",2,3,"Switch",0,"Novel77",0,"Novel5",0,2211,"eyescenter",-1,0,1,0,(May 02 2014 14:42:08),7,TRUE,FALSE,2,FALSE
"57","A10K8ZSAU26T49","May 02 2014","14:42:08",17,"No-Social","Seven",2,4,"Same",0,"Novel125",0,"Novel60",0,1951,"eyescenter",-1,0,1,0,(May 02 2014 14:42:08),7,TRUE,FALSE,2,FALSE
"58","A10K8ZSAU26T49","May 02 2014","14:42:08",18,"No-Social","Seven",2,5,"Switch",0,"Novel78",1,"Novel78",0,2675,"eyescenter",-1,0,1,0,(May 02 2014 14:42:08),7,TRUE,FALSE,2,TRUE
"59","A10K8ZSAU26T49","May 02 2014","14:42:08",19,"No-Social","Seven",2,6,"Same",1,"Novel99",0,"Novel99",0,1791,"eyescenter",-1,0,1,0,(May 02 2014 14:42:08),7,TRUE,FALSE,2,TRUE
"60","A10K8ZSAU26T49","May 02 2014","14:42:08",20,"No-Social","Seven",2,7,"Switch",1,"Novel138",0,"Novel57",1,3211,"eyescenter",-1,0,1,0,(May 02 2014 14:42:08),7,TRUE,FALSE,2,FALSE
"61","A10VQSMGPJFSMU","May 02 2014","20:00:48",1,"No-Social","One",2,0,"Switch",1,"squirrel",0,"",0,1289,"eyescenter",-1,0,0,1,(May 02 2014 20:00:48),1,TRUE,FALSE,2,FALSE
"62","A10VQSMGPJFSMU","May 02 2014","20:00:48",2,"No-Social","One",2,0,"Switch",1,"squirrel",1,"",0,1592,"eyescenter",-1,0,0,1,(May 02 2014 20:00:48),1,TRUE,FALSE,2,FALSE
"63","A10VQSMGPJFSMU","May 02 2014","20:00:48",3,"No-Social","One",2,0,"Switch",1,"tomato",0,"",0,1148,"eyescenter",-1,0,0,1,(May 02 2014 20:00:48),1,TRUE,FALSE,2,FALSE
"64","A10VQSMGPJFSMU","May 02 2014","20:00:48",4,"No-Social","One",2,0,"Switch",1,"tomato",1,"",0,981,"eyescenter",-1,0,0,1,(May 02 2014 20:00:48),1,TRUE,FALSE,2,FALSE
"65","A10VQSMGPJFSMU","May 02 2014","20:00:48",5,"No-Social","One",2,0,"Switch",1,"Novel70",1,"Novel97",0,3403,"eyescenter",-1,1,0,0,(May 02 2014 20:00:48),1,TRUE,FALSE,2,FALSE
"66","A10VQSMGPJFSMU","May 02 2014","20:00:48",6,"No-Social","One",2,1,"Same",1,"Novel117",0,"Novel117",0,1765,"eyescenter",-1,1,0,0,(May 02 2014 20:00:48),1,TRUE,FALSE,2,TRUE
"67","A10VQSMGPJFSMU","May 02 2014","20:00:48",7,"No-Social","One",2,0,"Switch",1,"Novel140",1,"Novel97",0,2930,"eyescenter",-1,0,1,0,(May 02 2014 20:00:48),1,TRUE,TRUE,2,FALSE
"68","A10VQSMGPJFSMU","May 02 2014","20:00:48",8,"No-Social","One",2,1,"Same",1,"Novel117",0,"Novel117",0,1628,"eyescenter",-1,0,1,0,(May 02 2014 20:00:48),1,TRUE,FALSE,2,TRUE
"69","A10VQSMGPJFSMU","May 02 2014","20:00:48",9,"No-Social","One",2,2,"Switch",0,"Novel9",1,"Novel132",0,1695,"eyescenter",-1,1,0,0,(May 02 2014 20:00:48),1,TRUE,FALSE,2,FALSE
"70","A10VQSMGPJFSMU","May 02 2014","20:00:48",10,"No-Social","One",2,3,"Same",0,"Novel96",0,"Novel96",0,2317,"eyescenter",-1,1,0,0,(May 02 2014 20:00:48),1,TRUE,FALSE,2,TRUE
"71","A10VQSMGPJFSMU","May 02 2014","20:00:48",11,"No-Social","One",2,2,"Switch",0,"Novel132",1,"Novel132",0,2193,"eyescenter",-1,0,1,0,(May 02 2014 20:00:48),1,TRUE,FALSE,2,TRUE
"72","A10VQSMGPJFSMU","May 02 2014","20:00:48",12,"No-Social","One",2,3,"Same",0,"Novel96",1,"Novel96",0,888,"eyescenter",-1,0,1,0,(May 02 2014 20:00:48),1,TRUE,FALSE,2,TRUE
"73","A10VQSMGPJFSMU","May 02 2014","20:00:48",13,"No-Social","One",2,4,"Switch",1,"Novel126",0,"Novel130",1,1541,"eyescenter",-1,1,0,0,(May 02 2014 20:00:48),1,TRUE,FALSE,2,FALSE
"74","A10VQSMGPJFSMU","May 02 2014","20:00:48",14,"No-Social","One",2,5,"Same",1,"Novel48",0,"Novel48",0,1498,"eyescenter",-1,1,0,0,(May 02 2014 20:00:48),1,TRUE,FALSE,2,TRUE
"75","A10VQSMGPJFSMU","May 02 2014","20:00:48",15,"No-Social","One",2,4,"Switch",1,"Novel130",1,"Novel130",1,1267,"eyescenter",-1,0,1,0,(May 02 2014 20:00:48),1,TRUE,FALSE,2,TRUE
"76","A10VQSMGPJFSMU","May 02 2014","20:00:48",16,"No-Social","One",2,5,"Same",1,"Novel48",0,"Novel48",0,1723,"eyescenter",-1,0,1,0,(May 02 2014 20:00:48),1,TRUE,FALSE,2,TRUE
"77","A10VQSMGPJFSMU","May 02 2014","20:00:48",17,"No-Social","One",2,6,"Switch",0,"Novel73",0,"Novel1",1,1505,"eyescenter",-1,1,0,0,(May 02 2014 20:00:48),1,TRUE,FALSE,2,FALSE
"78","A10VQSMGPJFSMU","May 02 2014","20:00:48",18,"No-Social","One",2,7,"Same",0,"Novel101",0,"Novel101",0,2181,"eyescenter",-1,1,0,0,(May 02 2014 20:00:48),1,TRUE,FALSE,2,TRUE
"79","A10VQSMGPJFSMU","May 02 2014","20:00:48",19,"No-Social","One",2,6,"Switch",0,"Novel136",1,"Novel1",1,2085,"eyescenter",-1,0,1,0,(May 02 2014 20:00:48),1,TRUE,FALSE,2,FALSE
"80","A10VQSMGPJFSMU","May 02 2014","20:00:48",20,"No-Social","One",2,7,"Same",0,"Novel101",1,"Novel101",0,932,"eyescenter",-1,0,1,0,(May 02 2014 20:00:48),1,TRUE,FALSE,2,TRUE
"81","A10YS8AVLQWUZZ","May 02 2014","12:03:50",1,"No-Social","One",2,0,"Switch",0,"squirrel",0,"",0,5090,"eyescenter",-1,0,0,1,(May 02 2014 12:03:50),1,TRUE,FALSE,2,FALSE
"82","A10YS8AVLQWUZZ","May 02 2014","12:03:50",2,"No-Social","One",2,0,"Switch",0,"squirrel",1,"",0,1718,"eyescenter",-1,0,0,1,(May 02 2014 12:03:50),1,TRUE,FALSE,2,FALSE
"83","A10YS8AVLQWUZZ","May 02 2014","12:03:50",3,"No-Social","One",2,0,"Switch",0,"tomato",0,"",0,2009,"eyescenter",-1,0,0,1,(May 02 2014 12:03:50),1,TRUE,FALSE,2,FALSE
"84","A10YS8AVLQWUZZ","May 02 2014","12:03:50",4,"No-Social","One",2,0,"Switch",0,"tomato",1,"",0,1618,"eyescenter",-1,0,0,1,(May 02 2014 12:03:50),1,TRUE,FALSE,2,FALSE
"85","A10YS8AVLQWUZZ","May 02 2014","12:03:50",5,"No-Social","One",2,0,"Switch",0,"Novel113",0,"Novel99",1,5133,"eyescenter",-1,1,0,0,(May 02 2014 12:03:50),1,TRUE,FALSE,2,FALSE
"86","A10YS8AVLQWUZZ","May 02 2014","12:03:50",6,"No-Social","One",2,1,"Same",0,"Novel71",1,"Novel71",1,7866,"eyescenter",-1,1,0,0,(May 02 2014 12:03:50),1,TRUE,FALSE,2,TRUE
"87","A10YS8AVLQWUZZ","May 02 2014","12:03:50",7,"No-Social","One",2,0,"Switch",0,"Novel99",0,"Novel99",1,6263,"eyescenter",-1,0,1,0,(May 02 2014 12:03:50),1,TRUE,TRUE,2,TRUE
"88","A10YS8AVLQWUZZ","May 02 2014","12:03:50",8,"No-Social","One",2,1,"Same",0,"Novel71",0,"Novel71",1,2527,"eyescenter",-1,0,1,0,(May 02 2014 12:03:50),1,TRUE,FALSE,2,TRUE
"89","A10YS8AVLQWUZZ","May 02 2014","12:03:50",9,"No-Social","One",2,2,"Switch",1,"Novel134",1,"Novel96",0,3262,"eyescenter",-1,1,0,0,(May 02 2014 12:03:50),1,TRUE,FALSE,2,FALSE
"90","A10YS8AVLQWUZZ","May 02 2014","12:03:50",10,"No-Social","One",2,3,"Same",1,"Novel38",1,"Novel38",1,5718,"eyescenter",-1,1,0,0,(May 02 2014 12:03:50),1,TRUE,FALSE,2,TRUE
"91","A10YS8AVLQWUZZ","May 02 2014","12:03:50",11,"No-Social","One",2,2,"Switch",1,"Novel96",0,"Novel96",0,2185,"eyescenter",-1,0,1,0,(May 02 2014 12:03:50),1,TRUE,FALSE,2,TRUE
"92","A10YS8AVLQWUZZ","May 02 2014","12:03:50",12,"No-Social","One",2,3,"Same",1,"Novel38",1,"Novel38",1,2804,"eyescenter",-1,0,1,0,(May 02 2014 12:03:50),1,TRUE,FALSE,2,TRUE
"93","A10YS8AVLQWUZZ","May 02 2014","12:03:50",13,"No-Social","One",2,4,"Switch",1,"Novel37",1,"Novel23",0,2726,"eyescenter",-1,1,0,0,(May 02 2014 12:03:50),1,TRUE,FALSE,2,FALSE
"94","A10YS8AVLQWUZZ","May 02 2014","12:03:50",14,"No-Social","One",2,5,"Same",0,"Novel139",1,"Novel139",1,2369,"eyescenter",-1,1,0,0,(May 02 2014 12:03:50),1,TRUE,FALSE,2,TRUE
"95","A10YS8AVLQWUZZ","May 02 2014","12:03:50",15,"No-Social","One",2,4,"Switch",1,"Novel23",0,"Novel23",0,2831,"eyescenter",-1,0,1,0,(May 02 2014 12:03:50),1,TRUE,FALSE,2,TRUE
"96","A10YS8AVLQWUZZ","May 02 2014","12:03:50",16,"No-Social","One",2,5,"Same",0,"Novel139",0,"Novel139",1,1447,"eyescenter",-1,0,1,0,(May 02 2014 12:03:50),1,TRUE,FALSE,2,TRUE
"97","A10YS8AVLQWUZZ","May 02 2014","12:03:50",17,"No-Social","One",2,6,"Switch",0,"Novel82",0,"Novel76",1,2383,"eyescenter",-1,1,0,0,(May 02 2014 12:03:50),1,TRUE,FALSE,2,FALSE
"98","A10YS8AVLQWUZZ","May 02 2014","12:03:50",18,"No-Social","One",2,7,"Same",1,"Novel25",1,"Novel25",1,3012,"eyescenter",-1,1,0,0,(May 02 2014 12:03:50),1,TRUE,FALSE,2,TRUE
"99","A10YS8AVLQWUZZ","May 02 2014","12:03:50",19,"No-Social","One",2,6,"Switch",0,"Novel76",0,"Novel76",1,2849,"eyescenter",-1,0,1,0,(May 02 2014 12:03:50),1,TRUE,FALSE,2,TRUE
"100","A10YS8AVLQWUZZ","May 02 2014","12:03:50",20,"No-Social","One",2,7,"Same",1,"Novel25",1,"Novel25",1,2701,"eyescenter",-1,0,1,0,(May 02 2014 12:03:50),1,TRUE,FALSE,2,TRUE
"101","A113ZBYX5DAS4L","May 01 2014","18:00:20",1,"No-Social","Zero",2,0,"Same",1,"squirrel",0,"",0,3806,"eyescenter",-1,0,0,1,(May 01 2014 18:00:20),0,TRUE,FALSE,2,FALSE
"102","A113ZBYX5DAS4L","May 01 2014","18:00:20",2,"No-Social","Zero",2,0,"Same",1,"squirrel",1,"",0,1478,"eyescenter",-1,0,0,1,(May 01 2014 18:00:20),0,TRUE,FALSE,2,FALSE
"103","A113ZBYX5DAS4L","May 01 2014","18:00:20",3,"No-Social","Zero",2,0,"Same",1,"tomato",0,"",0,1283,"eyescenter",-1,0,0,1,(May 01 2014 18:00:20),0,TRUE,FALSE,2,FALSE
"104","A113ZBYX5DAS4L","May 01 2014","18:00:20",4,"No-Social","Zero",2,0,"Same",1,"tomato",1,"",0,822,"eyescenter",-1,0,0,1,(May 01 2014 18:00:20),0,TRUE,FALSE,2,FALSE
"105","A113ZBYX5DAS4L","May 01 2014","18:00:20",5,"No-Social","Zero",2,0,"Same",1,"Novel48",1,"Novel48",1,3081,"eyescenter",-1,1,0,0,(May 01 2014 18:00:20),0,TRUE,FALSE,2,TRUE
"106","A113ZBYX5DAS4L","May 01 2014","18:00:20",6,"No-Social","Zero",2,0,"Same",1,"Novel48",1,"Novel48",1,1098,"eyescenter",-1,0,1,0,(May 01 2014 18:00:20),0,TRUE,TRUE,2,TRUE
"107","A113ZBYX5DAS4L","May 01 2014","18:00:20",7,"No-Social","Zero",2,1,"Switch",1,"Novel110",0,"Novel131",1,3014,"eyescenter",-1,1,0,0,(May 01 2014 18:00:20),0,TRUE,FALSE,2,FALSE
"108","A113ZBYX5DAS4L","May 01 2014","18:00:20",8,"No-Social","Zero",2,1,"Switch",1,"Novel131",1,"Novel131",1,6136,"eyescenter",-1,0,1,0,(May 01 2014 18:00:20),0,TRUE,FALSE,2,TRUE
"109","A113ZBYX5DAS4L","May 01 2014","18:00:20",9,"No-Social","Zero",2,2,"Same",0,"Novel132",0,"Novel132",0,4571,"eyescenter",-1,1,0,0,(May 01 2014 18:00:20),0,TRUE,FALSE,2,TRUE
"110","A113ZBYX5DAS4L","May 01 2014","18:00:20",10,"No-Social","Zero",2,2,"Same",0,"Novel132",1,"Novel132",0,5189,"eyescenter",-1,0,1,0,(May 01 2014 18:00:20),0,TRUE,FALSE,2,TRUE
"111","A113ZBYX5DAS4L","May 01 2014","18:00:20",11,"No-Social","Zero",2,3,"Switch",0,"Novel67",0,"Novel63",1,3436,"eyescenter",-1,1,0,0,(May 01 2014 18:00:20),0,TRUE,FALSE,2,FALSE
"112","A113ZBYX5DAS4L","May 01 2014","18:00:20",12,"No-Social","Zero",2,3,"Switch",0,"Novel105",1,"Novel63",1,961,"eyescenter",-1,0,1,0,(May 01 2014 18:00:20),0,TRUE,FALSE,2,FALSE
"113","A113ZBYX5DAS4L","May 01 2014","18:00:20",13,"No-Social","Zero",2,4,"Same",1,"Novel130",0,"Novel130",0,2827,"eyescenter",-1,1,0,0,(May 01 2014 18:00:20),0,TRUE,FALSE,2,TRUE
"114","A113ZBYX5DAS4L","May 01 2014","18:00:20",14,"No-Social","Zero",2,4,"Same",1,"Novel130",0,"Novel130",0,1048,"eyescenter",-1,0,1,0,(May 01 2014 18:00:20),0,TRUE,FALSE,2,TRUE
"115","A113ZBYX5DAS4L","May 01 2014","18:00:20",15,"No-Social","Zero",2,5,"Switch",0,"Novel70",1,"Novel79",0,2936,"eyescenter",-1,1,0,0,(May 01 2014 18:00:20),0,TRUE,FALSE,2,FALSE
"116","A113ZBYX5DAS4L","May 01 2014","18:00:20",16,"No-Social","Zero",2,5,"Switch",0,"Novel79",1,"Novel79",0,917,"eyescenter",-1,0,1,0,(May 01 2014 18:00:20),0,TRUE,FALSE,2,TRUE
"117","A113ZBYX5DAS4L","May 01 2014","18:00:20",17,"No-Social","Zero",2,6,"Same",0,"Novel62",0,"Novel62",0,3696,"eyescenter",-1,1,0,0,(May 01 2014 18:00:20),0,TRUE,FALSE,2,TRUE
"118","A113ZBYX5DAS4L","May 01 2014","18:00:20",18,"No-Social","Zero",2,6,"Same",0,"Novel62",1,"Novel62",0,838,"eyescenter",-1,0,1,0,(May 01 2014 18:00:20),0,TRUE,FALSE,2,TRUE
"119","A113ZBYX5DAS4L","May 01 2014","18:00:20",19,"No-Social","Zero",2,7,"Switch",1,"Novel36",1,"Novel30",0,4140,"eyescenter",-1,1,0,0,(May 01 2014 18:00:20),0,TRUE,FALSE,2,FALSE
"120","A113ZBYX5DAS4L","May 01 2014","18:00:20",20,"No-Social","Zero",2,7,"Switch",1,"Novel30",0,"Novel30",0,706,"eyescenter",-1,0,1,0,(May 01 2014 18:00:20),0,TRUE,FALSE,2,TRUE
"121","A123ZFE2DN7ZYB","May 02 2014","14:32:50",1,"No-Social","Three",2,0,"Switch",1,"squirrel",0,"",0,1823,"eyescenter",-1,0,0,1,(May 02 2014 14:32:50),3,TRUE,FALSE,2,FALSE
"122","A123ZFE2DN7ZYB","May 02 2014","14:32:50",2,"No-Social","Three",2,0,"Switch",1,"squirrel",1,"",0,1642,"eyescenter",-1,0,0,1,(May 02 2014 14:32:50),3,TRUE,FALSE,2,FALSE
"123","A123ZFE2DN7ZYB","May 02 2014","14:32:50",3,"No-Social","Three",2,0,"Switch",1,"tomato",0,"",0,1552,"eyescenter",-1,0,0,1,(May 02 2014 14:32:50),3,TRUE,FALSE,2,FALSE
"124","A123ZFE2DN7ZYB","May 02 2014","14:32:50",4,"No-Social","Three",2,0,"Switch",1,"tomato",1,"",0,1803,"eyescenter",-1,0,0,1,(May 02 2014 14:32:50),3,TRUE,FALSE,2,FALSE
"125","A123ZFE2DN7ZYB","May 02 2014","14:32:50",5,"No-Social","Three",2,0,"Switch",1,"Novel8",1,"Novel110",0,4387,"eyescenter",-1,1,0,0,(May 02 2014 14:32:50),3,TRUE,FALSE,2,FALSE
"126","A123ZFE2DN7ZYB","May 02 2014","14:32:50",6,"No-Social","Three",2,1,"Same",1,"Novel37",1,"Novel37",1,2349,"eyescenter",-1,1,0,0,(May 02 2014 14:32:50),3,TRUE,FALSE,2,TRUE
"127","A123ZFE2DN7ZYB","May 02 2014","14:32:50",7,"No-Social","Three",2,2,"Switch",0,"Novel43",0,"Novel80",1,2919,"eyescenter",-1,1,0,0,(May 02 2014 14:32:50),3,TRUE,FALSE,2,FALSE
"128","A123ZFE2DN7ZYB","May 02 2014","14:32:50",8,"No-Social","Three",2,3,"Same",0,"Novel97",0,"Novel97",0,3875,"eyescenter",-1,1,0,0,(May 02 2014 14:32:50),3,TRUE,FALSE,2,TRUE
"129","A123ZFE2DN7ZYB","May 02 2014","14:32:50",9,"No-Social","Three",2,0,"Switch",1,"Novel110",0,"Novel110",0,2799,"eyescenter",-1,0,1,0,(May 02 2014 14:32:50),3,TRUE,TRUE,2,TRUE
"130","A123ZFE2DN7ZYB","May 02 2014","14:32:50",10,"No-Social","Three",2,1,"Same",1,"Novel37",1,"Novel37",1,1392,"eyescenter",-1,0,1,0,(May 02 2014 14:32:50),3,TRUE,FALSE,2,TRUE
"131","A123ZFE2DN7ZYB","May 02 2014","14:32:50",11,"No-Social","Three",2,2,"Switch",0,"Novel80",0,"Novel80",1,2184,"eyescenter",-1,0,1,0,(May 02 2014 14:32:50),3,TRUE,FALSE,2,TRUE
"132","A123ZFE2DN7ZYB","May 02 2014","14:32:50",12,"No-Social","Three",2,3,"Same",0,"Novel97",1,"Novel97",0,1456,"eyescenter",-1,0,1,0,(May 02 2014 14:32:50),3,TRUE,FALSE,2,TRUE
"133","A123ZFE2DN7ZYB","May 02 2014","14:32:50",13,"No-Social","Three",2,4,"Switch",1,"Novel117",1,"Novel87",0,3649,"eyescenter",-1,1,0,0,(May 02 2014 14:32:50),3,TRUE,FALSE,2,FALSE
"134","A123ZFE2DN7ZYB","May 02 2014","14:32:50",14,"No-Social","Three",2,5,"Same",0,"Novel17",0,"Novel17",0,3101,"eyescenter",-1,1,0,0,(May 02 2014 14:32:50),3,TRUE,FALSE,2,TRUE
"135","A123ZFE2DN7ZYB","May 02 2014","14:32:50",15,"No-Social","Three",2,6,"Switch",0,"Novel33",0,"Novel50",1,2871,"eyescenter",-1,1,0,0,(May 02 2014 14:32:50),3,TRUE,FALSE,2,FALSE
"136","A123ZFE2DN7ZYB","May 02 2014","14:32:50",16,"No-Social","Three",2,7,"Same",1,"Novel46",0,"Novel46",0,3516,"eyescenter",-1,1,0,0,(May 02 2014 14:32:50),3,TRUE,FALSE,2,TRUE
"137","A123ZFE2DN7ZYB","May 02 2014","14:32:50",17,"No-Social","Three",2,4,"Switch",1,"Novel87",0,"Novel87",0,1962,"eyescenter",-1,0,1,0,(May 02 2014 14:32:50),3,TRUE,FALSE,2,TRUE
"138","A123ZFE2DN7ZYB","May 02 2014","14:32:50",18,"No-Social","Three",2,5,"Same",0,"Novel17",1,"Novel17",0,1170,"eyescenter",-1,0,1,0,(May 02 2014 14:32:50),3,TRUE,FALSE,2,TRUE
"139","A123ZFE2DN7ZYB","May 02 2014","14:32:50",19,"No-Social","Three",2,6,"Switch",0,"Novel50",0,"Novel50",1,1916,"eyescenter",-1,0,1,0,(May 02 2014 14:32:50),3,TRUE,FALSE,2,TRUE
"140","A123ZFE2DN7ZYB","May 02 2014","14:32:50",20,"No-Social","Three",2,7,"Same",1,"Novel46",0,"Novel46",0,2119,"eyescenter",-1,0,1,0,(May 02 2014 14:32:50),3,TRUE,FALSE,2,TRUE
"141","A12YW9ETZPJ6G5","May 02 2014","13:04:11",1,"Social","Zero",2,0,"Switch",1,"squirrel",0,"",0,2979,"eyescenter",-1,0,0,1,(May 02 2014 13:04:11),0,TRUE,FALSE,2,FALSE
"142","A12YW9ETZPJ6G5","May 02 2014","13:04:11",2,"Social","Zero",2,0,"Switch",1,"squirrel",1,"",0,2237,"eyescenter",-1,0,0,1,(May 02 2014 13:04:11),0,TRUE,FALSE,2,FALSE
"143","A12YW9ETZPJ6G5","May 02 2014","13:04:11",3,"Social","Zero",2,0,"Switch",1,"tomato",0,"",0,297,"eyescenter",-1,0,0,1,(May 02 2014 13:04:11),0,TRUE,FALSE,2,FALSE
"144","A12YW9ETZPJ6G5","May 02 2014","13:04:11",4,"Social","Zero",2,0,"Switch",1,"tomato",1,"",0,411,"eyescenter",-1,0,0,1,(May 02 2014 13:04:11),0,TRUE,FALSE,2,FALSE
"145","A12YW9ETZPJ6G5","May 02 2014","13:04:11",5,"Social","Zero",2,0,"Switch",1,"Novel140",1,"Novel108",0,511,"eyes_down_right",1,1,0,0,(May 02 2014 13:04:11),0,TRUE,FALSE,2,FALSE
"146","A12YW9ETZPJ6G5","May 02 2014","13:04:11",6,"Social","Zero",2,0,"Switch",1,"Novel108",0,"Novel108",0,1935,"eyescenter",-1,0,1,0,(May 02 2014 13:04:11),0,TRUE,TRUE,2,TRUE
"147","A12YW9ETZPJ6G5","May 02 2014","13:04:11",7,"Social","Zero",2,1,"Same",1,"Novel25",1,"Novel25",1,591,"eyes_down_right",1,1,0,0,(May 02 2014 13:04:11),0,TRUE,FALSE,2,TRUE
"148","A12YW9ETZPJ6G5","May 02 2014","13:04:11",8,"Social","Zero",2,1,"Same",1,"Novel25",1,"Novel25",1,1265,"eyescenter",-1,0,1,0,(May 02 2014 13:04:11),0,TRUE,FALSE,2,TRUE
"149","A12YW9ETZPJ6G5","May 02 2014","13:04:11",9,"Social","Zero",2,2,"Switch",1,"Novel77",1,"Novel131",0,339,"eyes_down_right",1,1,0,0,(May 02 2014 13:04:11),0,TRUE,FALSE,2,FALSE
"150","A12YW9ETZPJ6G5","May 02 2014","13:04:11",10,"Social","Zero",2,2,"Switch",1,"Novel131",0,"Novel131",0,502,"eyescenter",-1,0,1,0,(May 02 2014 13:04:11),0,TRUE,FALSE,2,TRUE
"151","A12YW9ETZPJ6G5","May 02 2014","13:04:11",11,"Social","Zero",2,3,"Same",0,"Novel73",0,"Novel73",0,704,"eyes_down_left",0,1,0,0,(May 02 2014 13:04:11),0,TRUE,FALSE,2,TRUE
"152","A12YW9ETZPJ6G5","May 02 2014","13:04:11",12,"Social","Zero",2,3,"Same",0,"Novel26",0,"Novel73",0,56043,"eyescenter",-1,0,1,0,(May 02 2014 13:04:11),0,TRUE,FALSE,2,FALSE
"153","A12YW9ETZPJ6G5","May 02 2014","13:04:11",13,"Social","Zero",2,4,"Switch",0,"Novel37",0,"Novel96",1,50,"eyes_down_left",0,1,0,0,(May 02 2014 13:04:11),0,TRUE,FALSE,2,FALSE
"154","A12YW9ETZPJ6G5","May 02 2014","13:04:11",14,"Social","Zero",2,4,"Switch",0,"Novel136",1,"Novel96",1,517,"eyescenter",-1,0,1,0,(May 02 2014 13:04:11),0,TRUE,FALSE,2,FALSE
"155","A12YW9ETZPJ6G5","May 02 2014","13:04:11",15,"Social","Zero",2,5,"Same",1,"Novel42",0,"Novel42",0,258,"eyes_down_left",0,1,0,0,(May 02 2014 13:04:11),0,TRUE,FALSE,2,TRUE
"156","A12YW9ETZPJ6G5","May 02 2014","13:04:11",16,"Social","Zero",2,5,"Same",1,"Novel36",1,"Novel42",0,233,"eyescenter",-1,0,1,0,(May 02 2014 13:04:11),0,TRUE,FALSE,2,FALSE
"157","A12YW9ETZPJ6G5","May 02 2014","13:04:11",17,"Social","Zero",2,6,"Switch",0,"Novel128",0,"Novel57",1,805,"eyes_down_left",0,1,0,0,(May 02 2014 13:04:11),0,TRUE,FALSE,2,FALSE
"158","A12YW9ETZPJ6G5","May 02 2014","13:04:11",18,"Social","Zero",2,6,"Switch",0,"Novel113",1,"Novel57",1,564,"eyescenter",-1,0,1,0,(May 02 2014 13:04:11),0,TRUE,FALSE,2,FALSE
"159","A12YW9ETZPJ6G5","May 02 2014","13:04:11",19,"Social","Zero",2,7,"Same",0,"Novel123",0,"Novel123",0,90,"eyes_down_left",0,1,0,0,(May 02 2014 13:04:11),0,TRUE,FALSE,2,TRUE
"160","A12YW9ETZPJ6G5","May 02 2014","13:04:11",20,"Social","Zero",2,7,"Same",0,"Novel123",1,"Novel123",0,418,"eyescenter",-1,0,1,0,(May 02 2014 13:04:11),0,TRUE,FALSE,2,TRUE
"161","A135N9TJYTIQNA","May 02 2014","12:03:03",1,"No-Social","Three",2,0,"Same",0,"squirrel",0,"",0,2483,"eyescenter",-1,0,0,1,(May 02 2014 12:03:03),3,TRUE,FALSE,2,FALSE
"162","A135N9TJYTIQNA","May 02 2014","12:03:03",2,"No-Social","Three",2,0,"Same",0,"squirrel",1,"",0,879,"eyescenter",-1,0,0,1,(May 02 2014 12:03:03),3,TRUE,FALSE,2,FALSE
"163","A135N9TJYTIQNA","May 02 2014","12:03:03",3,"No-Social","Three",2,0,"Same",0,"tomato",0,"",0,1003,"eyescenter",-1,0,0,1,(May 02 2014 12:03:03),3,TRUE,FALSE,2,FALSE
"164","A135N9TJYTIQNA","May 02 2014","12:03:03",4,"No-Social","Three",2,0,"Same",0,"tomato",1,"",0,781,"eyescenter",-1,0,0,1,(May 02 2014 12:03:03),3,TRUE,FALSE,2,FALSE
"165","A135N9TJYTIQNA","May 02 2014","12:03:03",5,"No-Social","Three",2,0,"Same",0,"Novel81",0,"Novel81",0,2531,"eyescenter",-1,1,0,0,(May 02 2014 12:03:03),3,TRUE,FALSE,2,TRUE
"166","A135N9TJYTIQNA","May 02 2014","12:03:03",6,"No-Social","Three",2,1,"Switch",1,"Novel137",0,"Novel121",1,2445,"eyescenter",-1,1,0,0,(May 02 2014 12:03:03),3,TRUE,FALSE,2,FALSE
"167","A135N9TJYTIQNA","May 02 2014","12:03:03",7,"No-Social","Three",2,2,"Same",0,"Novel134",0,"Novel134",0,1658,"eyescenter",-1,1,0,0,(May 02 2014 12:03:03),3,TRUE,FALSE,2,TRUE
"168","A135N9TJYTIQNA","May 02 2014","12:03:03",8,"No-Social","Three",2,3,"Switch",1,"Novel86",1,"Novel39",0,1831,"eyescenter",-1,1,0,0,(May 02 2014 12:03:03),3,TRUE,FALSE,2,FALSE
"169","A135N9TJYTIQNA","May 02 2014","12:03:03",9,"No-Social","Three",2,0,"Same",0,"Novel81",1,"Novel81",0,1289,"eyescenter",-1,0,1,0,(May 02 2014 12:03:03),3,TRUE,TRUE,2,TRUE
"170","A135N9TJYTIQNA","May 02 2014","12:03:03",10,"No-Social","Three",2,1,"Switch",1,"Novel121",1,"Novel121",1,1378,"eyescenter",-1,0,1,0,(May 02 2014 12:03:03),3,TRUE,FALSE,2,TRUE
"171","A135N9TJYTIQNA","May 02 2014","12:03:03",11,"No-Social","Three",2,2,"Same",0,"Novel134",1,"Novel134",0,1106,"eyescenter",-1,0,1,0,(May 02 2014 12:03:03),3,TRUE,FALSE,2,TRUE
"172","A135N9TJYTIQNA","May 02 2014","12:03:03",12,"No-Social","Three",2,3,"Switch",1,"Novel61",1,"Novel39",0,1689,"eyescenter",-1,0,1,0,(May 02 2014 12:03:03),3,TRUE,FALSE,2,FALSE
"173","A135N9TJYTIQNA","May 02 2014","12:03:03",13,"No-Social","Three",2,4,"Same",1,"Novel34",1,"Novel34",1,2120,"eyescenter",-1,1,0,0,(May 02 2014 12:03:03),3,TRUE,FALSE,2,TRUE
"174","A135N9TJYTIQNA","May 02 2014","12:03:03",14,"No-Social","Three",2,5,"Switch",0,"Novel138",0,"Novel1",1,2680,"eyescenter",-1,1,0,0,(May 02 2014 12:03:03),3,TRUE,FALSE,2,FALSE
"175","A135N9TJYTIQNA","May 02 2014","12:03:03",15,"No-Social","Three",2,6,"Same",1,"Novel58",0,"Novel58",0,2563,"eyescenter",-1,1,0,0,(May 02 2014 12:03:03),3,TRUE,FALSE,2,TRUE
"176","A135N9TJYTIQNA","May 02 2014","12:03:03",16,"No-Social","Three",2,7,"Switch",0,"Novel99",0,"Novel59",1,1750,"eyescenter",-1,1,0,0,(May 02 2014 12:03:03),3,TRUE,FALSE,2,FALSE
"177","A135N9TJYTIQNA","May 02 2014","12:03:03",17,"No-Social","Three",2,4,"Same",1,"Novel34",1,"Novel34",1,1229,"eyescenter",-1,0,1,0,(May 02 2014 12:03:03),3,TRUE,FALSE,2,TRUE
"178","A135N9TJYTIQNA","May 02 2014","12:03:03",18,"No-Social","Three",2,5,"Switch",0,"Novel1",0,"Novel1",1,3021,"eyescenter",-1,0,1,0,(May 02 2014 12:03:03),3,TRUE,FALSE,2,TRUE
"179","A135N9TJYTIQNA","May 02 2014","12:03:03",19,"No-Social","Three",2,6,"Same",1,"Novel58",0,"Novel58",0,1458,"eyescenter",-1,0,1,0,(May 02 2014 12:03:03),3,TRUE,FALSE,2,TRUE
"180","A135N9TJYTIQNA","May 02 2014","12:03:03",20,"No-Social","Three",2,7,"Switch",0,"Novel59",0,"Novel59",1,2071,"eyescenter",-1,0,1,0,(May 02 2014 12:03:03),3,TRUE,FALSE,2,TRUE
"181","A13MXQ1KC1J9QL","May 02 2014","14:44:30",1,"Social","One",2,0,"Same",1,"squirrel",0,"",0,17016,"eyescenter",-1,0,0,1,(May 02 2014 14:44:30),1,TRUE,FALSE,2,FALSE
"182","A13MXQ1KC1J9QL","May 02 2014","14:44:30",2,"Social","One",2,0,"Same",1,"squirrel",1,"",0,5357,"eyescenter",-1,0,0,1,(May 02 2014 14:44:30),1,TRUE,FALSE,2,FALSE
"183","A13MXQ1KC1J9QL","May 02 2014","14:44:30",3,"Social","One",2,0,"Same",1,"tomato",0,"",0,1166,"eyescenter",-1,0,0,1,(May 02 2014 14:44:30),1,TRUE,FALSE,2,FALSE
"184","A13MXQ1KC1J9QL","May 02 2014","14:44:30",4,"Social","One",2,0,"Same",1,"tomato",1,"",0,951,"eyescenter",-1,0,0,1,(May 02 2014 14:44:30),1,TRUE,FALSE,2,FALSE
"185","A13MXQ1KC1J9QL","May 02 2014","14:44:30",5,"Social","One",2,0,"Same",1,"Novel133",1,"Novel133",1,7108,"eyes_down_right",1,1,0,0,(May 02 2014 14:44:30),1,TRUE,FALSE,2,TRUE
"186","A13MXQ1KC1J9QL","May 02 2014","14:44:30",6,"Social","One",2,1,"Switch",1,"Novel135",0,"Novel34",1,1596,"eyes_down_left",0,1,0,0,(May 02 2014 14:44:30),1,TRUE,FALSE,2,FALSE
"187","A13MXQ1KC1J9QL","May 02 2014","14:44:30",7,"Social","One",2,0,"Same",1,"Novel133",1,"Novel133",1,3049,"eyescenter",-1,0,1,0,(May 02 2014 14:44:30),1,TRUE,TRUE,2,TRUE
"188","A13MXQ1KC1J9QL","May 02 2014","14:44:30",8,"Social","One",2,1,"Switch",1,"Novel34",1,"Novel34",1,7105,"eyescenter",-1,0,1,0,(May 02 2014 14:44:30),1,TRUE,FALSE,2,TRUE
"189","A13MXQ1KC1J9QL","May 02 2014","14:44:30",9,"Social","One",2,2,"Same",0,"Novel140",0,"Novel140",0,2027,"eyes_down_left",0,1,0,0,(May 02 2014 14:44:30),1,TRUE,FALSE,2,TRUE
"190","A13MXQ1KC1J9QL","May 02 2014","14:44:30",10,"Social","One",2,3,"Switch",0,"Novel1",0,"Novel104",1,1633,"eyes_down_left",0,1,0,0,(May 02 2014 14:44:30),1,TRUE,FALSE,2,FALSE
"191","A13MXQ1KC1J9QL","May 02 2014","14:44:30",11,"Social","One",2,2,"Same",0,"Novel140",1,"Novel140",0,946,"eyescenter",-1,0,1,0,(May 02 2014 14:44:30),1,TRUE,FALSE,2,TRUE
"192","A13MXQ1KC1J9QL","May 02 2014","14:44:30",12,"Social","One",2,3,"Switch",0,"Novel19",1,"Novel104",1,1507,"eyescenter",-1,0,1,0,(May 02 2014 14:44:30),1,TRUE,FALSE,2,FALSE
"193","A13MXQ1KC1J9QL","May 02 2014","14:44:30",13,"Social","One",2,4,"Same",1,"Novel44",0,"Novel44",0,1457,"eyes_down_left",0,1,0,0,(May 02 2014 14:44:30),1,TRUE,FALSE,2,TRUE
"194","A13MXQ1KC1J9QL","May 02 2014","14:44:30",14,"Social","One",2,5,"Switch",1,"Novel23",1,"Novel29",0,1255,"eyes_down_right",1,1,0,0,(May 02 2014 14:44:30),1,TRUE,FALSE,2,FALSE
"195","A13MXQ1KC1J9QL","May 02 2014","14:44:30",15,"Social","One",2,4,"Same",1,"Novel44",0,"Novel44",0,779,"eyescenter",-1,0,1,0,(May 02 2014 14:44:30),1,TRUE,FALSE,2,TRUE
"196","A13MXQ1KC1J9QL","May 02 2014","14:44:30",16,"Social","One",2,5,"Switch",1,"Novel138",1,"Novel29",0,1181,"eyescenter",-1,0,1,0,(May 02 2014 14:44:30),1,TRUE,FALSE,2,FALSE
"197","A13MXQ1KC1J9QL","May 02 2014","14:44:30",17,"Social","One",2,6,"Same",0,"Novel53",1,"Novel53",1,1385,"eyes_down_right",1,1,0,0,(May 02 2014 14:44:30),1,TRUE,FALSE,2,TRUE
"198","A13MXQ1KC1J9QL","May 02 2014","14:44:30",18,"Social","One",2,7,"Switch",0,"Novel108",1,"Novel94",0,2331,"eyes_down_right",1,1,0,0,(May 02 2014 14:44:30),1,TRUE,FALSE,2,FALSE
"199","A13MXQ1KC1J9QL","May 02 2014","14:44:30",19,"Social","One",2,6,"Same",0,"Novel53",0,"Novel53",1,972,"eyescenter",-1,0,1,0,(May 02 2014 14:44:30),1,TRUE,FALSE,2,TRUE
"200","A13MXQ1KC1J9QL","May 02 2014","14:44:30",20,"Social","One",2,7,"Switch",0,"Novel13",0,"Novel94",0,644,"eyescenter",-1,0,1,0,(May 02 2014 14:44:30),1,TRUE,FALSE,2,FALSE
"201","A13Y01LS8ZI1PI","May 02 2014","16:32:16",1,"No-Social","One",2,0,"Switch",1,"squirrel",0,"",0,4645,"eyescenter",-1,0,0,1,(May 02 2014 16:32:16),1,TRUE,FALSE,2,FALSE
"202","A13Y01LS8ZI1PI","May 02 2014","16:32:16",2,"No-Social","One",2,0,"Switch",1,"squirrel",1,"",0,796,"eyescenter",-1,0,0,1,(May 02 2014 16:32:16),1,TRUE,FALSE,2,FALSE
"203","A13Y01LS8ZI1PI","May 02 2014","16:32:16",3,"No-Social","One",2,0,"Switch",1,"tomato",0,"",0,1283,"eyescenter",-1,0,0,1,(May 02 2014 16:32:16),1,TRUE,FALSE,2,FALSE
"204","A13Y01LS8ZI1PI","May 02 2014","16:32:16",4,"No-Social","One",2,0,"Switch",1,"tomato",1,"",0,859,"eyescenter",-1,0,0,1,(May 02 2014 16:32:16),1,TRUE,FALSE,2,FALSE
"205","A13Y01LS8ZI1PI","May 02 2014","16:32:16",5,"No-Social","One",2,0,"Switch",1,"Novel95",1,"Novel61",0,2859,"eyescenter",-1,1,0,0,(May 02 2014 16:32:16),1,TRUE,FALSE,2,FALSE
"206","A13Y01LS8ZI1PI","May 02 2014","16:32:16",6,"No-Social","One",2,1,"Same",1,"Novel31",0,"Novel31",0,2590,"eyescenter",-1,1,0,0,(May 02 2014 16:32:16),1,TRUE,FALSE,2,TRUE
"207","A13Y01LS8ZI1PI","May 02 2014","16:32:16",7,"No-Social","One",2,0,"Switch",1,"Novel61",0,"Novel61",0,1701,"eyescenter",-1,0,1,0,(May 02 2014 16:32:16),1,TRUE,TRUE,2,TRUE
"208","A13Y01LS8ZI1PI","May 02 2014","16:32:16",8,"No-Social","One",2,1,"Same",1,"Novel31",0,"Novel31",0,1168,"eyescenter",-1,0,1,0,(May 02 2014 16:32:16),1,TRUE,FALSE,2,TRUE
"209","A13Y01LS8ZI1PI","May 02 2014","16:32:16",9,"No-Social","One",2,2,"Switch",0,"Novel117",1,"Novel129",0,2755,"eyescenter",-1,1,0,0,(May 02 2014 16:32:16),1,TRUE,FALSE,2,FALSE
"210","A13Y01LS8ZI1PI","May 02 2014","16:32:16",10,"No-Social","One",2,3,"Same",0,"Novel25",0,"Novel25",0,1276,"eyescenter",-1,1,0,0,(May 02 2014 16:32:16),1,TRUE,FALSE,2,TRUE
"211","A13Y01LS8ZI1PI","May 02 2014","16:32:16",11,"No-Social","One",2,2,"Switch",0,"Novel129",1,"Novel129",0,920,"eyescenter",-1,0,1,0,(May 02 2014 16:32:16),1,TRUE,FALSE,2,TRUE
"212","A13Y01LS8ZI1PI","May 02 2014","16:32:16",12,"No-Social","One",2,3,"Same",0,"Novel25",1,"Novel25",0,695,"eyescenter",-1,0,1,0,(May 02 2014 16:32:16),1,TRUE,FALSE,2,TRUE
"213","A13Y01LS8ZI1PI","May 02 2014","16:32:16",13,"No-Social","One",2,4,"Switch",0,"Novel51",0,"Novel21",1,1010,"eyescenter",-1,1,0,0,(May 02 2014 16:32:16),1,TRUE,FALSE,2,FALSE
"214","A13Y01LS8ZI1PI","May 02 2014","16:32:16",14,"No-Social","One",2,5,"Same",0,"Novel62",1,"Novel62",1,1229,"eyescenter",-1,1,0,0,(May 02 2014 16:32:16),1,TRUE,FALSE,2,TRUE
"215","A13Y01LS8ZI1PI","May 02 2014","16:32:16",15,"No-Social","One",2,4,"Switch",0,"Novel21",0,"Novel21",1,745,"eyescenter",-1,0,1,0,(May 02 2014 16:32:16),1,TRUE,FALSE,2,TRUE
"216","A13Y01LS8ZI1PI","May 02 2014","16:32:16",16,"No-Social","One",2,5,"Same",0,"Novel62",0,"Novel62",1,557,"eyescenter",-1,0,1,0,(May 02 2014 16:32:16),1,TRUE,FALSE,2,TRUE
"217","A13Y01LS8ZI1PI","May 02 2014","16:32:16",17,"No-Social","One",2,6,"Switch",1,"Novel4",1,"Novel59",0,1180,"eyescenter",-1,1,0,0,(May 02 2014 16:32:16),1,TRUE,FALSE,2,FALSE
"218","A13Y01LS8ZI1PI","May 02 2014","16:32:16",18,"No-Social","One",2,7,"Same",1,"Novel86",1,"Novel86",1,1675,"eyescenter",-1,1,0,0,(May 02 2014 16:32:16),1,TRUE,FALSE,2,TRUE
"219","A13Y01LS8ZI1PI","May 02 2014","16:32:16",19,"No-Social","One",2,6,"Switch",1,"Novel59",0,"Novel59",0,1188,"eyescenter",-1,0,1,0,(May 02 2014 16:32:16),1,TRUE,FALSE,2,TRUE
"220","A13Y01LS8ZI1PI","May 02 2014","16:32:16",20,"No-Social","One",2,7,"Same",1,"Novel86",1,"Novel86",1,469,"eyescenter",-1,0,1,0,(May 02 2014 16:32:16),1,TRUE,FALSE,2,TRUE
"221","A142ZRU284W9O","May 02 2014","11:18:31",1,"No-Social","One",2,0,"Same",0,"squirrel",0,"",0,1981,"eyescenter",-1,0,0,1,(May 02 2014 11:18:31),1,TRUE,FALSE,2,FALSE
"222","A142ZRU284W9O","May 02 2014","11:18:31",2,"No-Social","One",2,0,"Same",0,"squirrel",1,"",0,764,"eyescenter",-1,0,0,1,(May 02 2014 11:18:31),1,TRUE,FALSE,2,FALSE
"223","A142ZRU284W9O","May 02 2014","11:18:31",3,"No-Social","One",2,0,"Same",0,"tomato",0,"",0,826,"eyescenter",-1,0,0,1,(May 02 2014 11:18:31),1,TRUE,FALSE,2,FALSE
"224","A142ZRU284W9O","May 02 2014","11:18:31",4,"No-Social","One",2,0,"Same",0,"tomato",1,"",0,926,"eyescenter",-1,0,0,1,(May 02 2014 11:18:31),1,TRUE,FALSE,2,FALSE
"225","A142ZRU284W9O","May 02 2014","11:18:31",5,"No-Social","One",2,0,"Same",0,"Novel51",0,"Novel51",0,2817,"eyescenter",-1,1,0,0,(May 02 2014 11:18:31),1,TRUE,FALSE,2,TRUE
"226","A142ZRU284W9O","May 02 2014","11:18:31",6,"No-Social","One",2,1,"Switch",1,"Novel27",1,"Novel15",0,5701,"eyescenter",-1,1,0,0,(May 02 2014 11:18:31),1,TRUE,FALSE,2,FALSE
"227","A142ZRU284W9O","May 02 2014","11:18:31",7,"No-Social","One",2,0,"Same",0,"Novel51",1,"Novel51",0,1688,"eyescenter",-1,0,1,0,(May 02 2014 11:18:31),1,TRUE,TRUE,2,TRUE
"228","A142ZRU284W9O","May 02 2014","11:18:31",8,"No-Social","One",2,1,"Switch",1,"Novel15",0,"Novel15",0,508,"eyescenter",-1,0,1,0,(May 02 2014 11:18:31),1,TRUE,FALSE,2,TRUE
"229","A142ZRU284W9O","May 02 2014","11:18:31",9,"No-Social","One",2,2,"Same",1,"Novel113",0,"Novel113",0,316,"eyescenter",-1,1,0,0,(May 02 2014 11:18:31),1,TRUE,FALSE,2,TRUE
"230","A142ZRU284W9O","May 02 2014","11:18:31",10,"No-Social","One",2,3,"Switch",1,"Novel117",0,"Novel54",1,2087,"eyescenter",-1,1,0,0,(May 02 2014 11:18:31),1,TRUE,FALSE,2,FALSE
"231","A142ZRU284W9O","May 02 2014","11:18:31",11,"No-Social","One",2,2,"Same",1,"Novel80",1,"Novel113",0,1323,"eyescenter",-1,0,1,0,(May 02 2014 11:18:31),1,TRUE,FALSE,2,FALSE
"232","A142ZRU284W9O","May 02 2014","11:18:31",12,"No-Social","One",2,3,"Switch",1,"Novel79",0,"Novel54",1,27,"eyescenter",-1,0,1,0,(May 02 2014 11:18:31),1,TRUE,FALSE,2,FALSE
"233","A142ZRU284W9O","May 02 2014","11:18:31",13,"No-Social","One",2,4,"Same",0,"Novel56",0,"Novel56",0,296,"eyescenter",-1,1,0,0,(May 02 2014 11:18:31),1,TRUE,FALSE,2,TRUE
"234","A142ZRU284W9O","May 02 2014","11:18:31",14,"No-Social","One",2,5,"Switch",0,"Novel126",1,"Novel78",0,124,"eyescenter",-1,1,0,0,(May 02 2014 11:18:31),1,TRUE,FALSE,2,FALSE
"235","A142ZRU284W9O","May 02 2014","11:18:31",15,"No-Social","One",2,4,"Same",0,"Novel56",1,"Novel56",0,1602,"eyescenter",-1,0,1,0,(May 02 2014 11:18:31),1,TRUE,FALSE,2,TRUE
"236","A142ZRU284W9O","May 02 2014","11:18:31",16,"No-Social","One",2,5,"Switch",0,"Novel23",0,"Novel78",0,24,"eyescenter",-1,0,1,0,(May 02 2014 11:18:31),1,TRUE,FALSE,2,FALSE
"237","A142ZRU284W9O","May 02 2014","11:18:31",17,"No-Social","One",2,6,"Same",1,"Novel75",1,"Novel75",1,574,"eyescenter",-1,1,0,0,(May 02 2014 11:18:31),1,TRUE,FALSE,2,TRUE
"238","A142ZRU284W9O","May 02 2014","11:18:31",18,"No-Social","One",2,7,"Switch",0,"Novel136",0,"Novel29",1,118,"eyescenter",-1,1,0,0,(May 02 2014 11:18:31),1,TRUE,FALSE,2,FALSE
"239","A142ZRU284W9O","May 02 2014","11:18:31",19,"No-Social","One",2,6,"Same",1,"Novel75",1,"Novel75",1,938,"eyescenter",-1,0,1,0,(May 02 2014 11:18:31),1,TRUE,FALSE,2,TRUE
"240","A142ZRU284W9O","May 02 2014","11:18:31",20,"No-Social","One",2,7,"Switch",0,"Novel64",1,"Novel29",1,1095,"eyescenter",-1,0,1,0,(May 02 2014 11:18:31),1,TRUE,FALSE,2,FALSE
"241","A149ROBL26JWPJ","May 02 2014","17:07:08",1,"No-Social","One",2,0,"Switch",1,"squirrel",0,"",0,4296,"eyescenter",-1,0,0,1,(May 02 2014 17:07:08),1,TRUE,FALSE,2,FALSE
"242","A149ROBL26JWPJ","May 02 2014","17:07:08",2,"No-Social","One",2,0,"Switch",1,"squirrel",1,"",0,2165,"eyescenter",-1,0,0,1,(May 02 2014 17:07:08),1,TRUE,FALSE,2,FALSE
"243","A149ROBL26JWPJ","May 02 2014","17:07:08",3,"No-Social","One",2,0,"Switch",1,"tomato",0,"",0,2455,"eyescenter",-1,0,0,1,(May 02 2014 17:07:08),1,TRUE,FALSE,2,FALSE
"244","A149ROBL26JWPJ","May 02 2014","17:07:08",4,"No-Social","One",2,0,"Switch",1,"tomato",1,"",0,1324,"eyescenter",-1,0,0,1,(May 02 2014 17:07:08),1,TRUE,FALSE,2,FALSE
"245","A149ROBL26JWPJ","May 02 2014","17:07:08",5,"No-Social","One",2,0,"Switch",1,"Novel131",1,"Novel137",0,5390,"eyescenter",-1,1,0,0,(May 02 2014 17:07:08),1,TRUE,FALSE,2,FALSE
"246","A149ROBL26JWPJ","May 02 2014","17:07:08",6,"No-Social","One",2,1,"Same",1,"Novel19",1,"Novel19",1,5262,"eyescenter",-1,1,0,0,(May 02 2014 17:07:08),1,TRUE,FALSE,2,TRUE
"247","A149ROBL26JWPJ","May 02 2014","17:07:08",7,"No-Social","One",2,0,"Switch",1,"Novel137",0,"Novel137",0,3350,"eyescenter",-1,0,1,0,(May 02 2014 17:07:08),1,TRUE,TRUE,2,TRUE
"248","A149ROBL26JWPJ","May 02 2014","17:07:08",8,"No-Social","One",2,1,"Same",1,"Novel19",1,"Novel19",1,1621,"eyescenter",-1,0,1,0,(May 02 2014 17:07:08),1,TRUE,FALSE,2,TRUE
"249","A149ROBL26JWPJ","May 02 2014","17:07:08",9,"No-Social","One",2,2,"Switch",1,"Novel63",0,"Novel6",1,4497,"eyescenter",-1,1,0,0,(May 02 2014 17:07:08),1,TRUE,FALSE,2,FALSE
"250","A149ROBL26JWPJ","May 02 2014","17:07:08",10,"No-Social","One",2,3,"Same",1,"Novel135",0,"Novel135",0,2537,"eyescenter",-1,1,0,0,(May 02 2014 17:07:08),1,TRUE,FALSE,2,TRUE
"251","A149ROBL26JWPJ","May 02 2014","17:07:08",11,"No-Social","One",2,2,"Switch",1,"Novel6",1,"Novel6",1,2342,"eyescenter",-1,0,1,0,(May 02 2014 17:07:08),1,TRUE,FALSE,2,TRUE
"252","A149ROBL26JWPJ","May 02 2014","17:07:08",12,"No-Social","One",2,3,"Same",1,"Novel122",1,"Novel135",0,3678,"eyescenter",-1,0,1,0,(May 02 2014 17:07:08),1,TRUE,FALSE,2,FALSE
"253","A149ROBL26JWPJ","May 02 2014","17:07:08",13,"No-Social","One",2,4,"Switch",0,"Novel97",0,"Novel92",1,2989,"eyescenter",-1,1,0,0,(May 02 2014 17:07:08),1,TRUE,FALSE,2,FALSE
"254","A149ROBL26JWPJ","May 02 2014","17:07:08",14,"No-Social","One",2,5,"Same",0,"Novel136",1,"Novel136",1,1755,"eyescenter",-1,1,0,0,(May 02 2014 17:07:08),1,TRUE,FALSE,2,TRUE
"255","A149ROBL26JWPJ","May 02 2014","17:07:08",15,"No-Social","One",2,4,"Switch",0,"Novel92",0,"Novel92",1,2562,"eyescenter",-1,0,1,0,(May 02 2014 17:07:08),1,TRUE,FALSE,2,TRUE
"256","A149ROBL26JWPJ","May 02 2014","17:07:08",16,"No-Social","One",2,5,"Same",0,"Novel136",0,"Novel136",1,1644,"eyescenter",-1,0,1,0,(May 02 2014 17:07:08),1,TRUE,FALSE,2,TRUE
"257","A149ROBL26JWPJ","May 02 2014","17:07:08",17,"No-Social","One",2,6,"Switch",0,"Novel105",0,"Novel76",1,2067,"eyescenter",-1,1,0,0,(May 02 2014 17:07:08),1,TRUE,FALSE,2,FALSE
"258","A149ROBL26JWPJ","May 02 2014","17:07:08",18,"No-Social","One",2,7,"Same",0,"Novel8",0,"Novel8",0,4263,"eyescenter",-1,1,0,0,(May 02 2014 17:07:08),1,TRUE,FALSE,2,TRUE
"259","A149ROBL26JWPJ","May 02 2014","17:07:08",19,"No-Social","One",2,6,"Switch",0,"Novel76",0,"Novel76",1,2875,"eyescenter",-1,0,1,0,(May 02 2014 17:07:08),1,TRUE,FALSE,2,TRUE
"260","A149ROBL26JWPJ","May 02 2014","17:07:08",20,"No-Social","One",2,7,"Same",0,"Novel8",1,"Novel8",0,1850,"eyescenter",-1,0,1,0,(May 02 2014 17:07:08),1,TRUE,FALSE,2,TRUE
"261","A152SAO8J1ZL7T","May 02 2014","14:46:35",1,"No-Social","Zero",2,0,"Same",1,"squirrel",0,"",0,3621,"eyescenter",-1,0,0,1,(May 02 2014 14:46:35),0,TRUE,FALSE,2,FALSE
"262","A152SAO8J1ZL7T","May 02 2014","14:46:35",2,"No-Social","Zero",2,0,"Same",1,"squirrel",1,"",0,1321,"eyescenter",-1,0,0,1,(May 02 2014 14:46:35),0,TRUE,FALSE,2,FALSE
"263","A152SAO8J1ZL7T","May 02 2014","14:46:35",3,"No-Social","Zero",2,0,"Same",1,"tomato",0,"",0,1093,"eyescenter",-1,0,0,1,(May 02 2014 14:46:35),0,TRUE,FALSE,2,FALSE
"264","A152SAO8J1ZL7T","May 02 2014","14:46:35",4,"No-Social","Zero",2,0,"Same",1,"tomato",1,"",0,779,"eyescenter",-1,0,0,1,(May 02 2014 14:46:35),0,TRUE,FALSE,2,FALSE
"265","A152SAO8J1ZL7T","May 02 2014","14:46:35",5,"No-Social","Zero",2,0,"Same",1,"Novel104",0,"Novel104",0,2295,"eyescenter",-1,1,0,0,(May 02 2014 14:46:35),0,TRUE,FALSE,2,TRUE
"266","A152SAO8J1ZL7T","May 02 2014","14:46:35",6,"No-Social","Zero",2,0,"Same",1,"Novel104",0,"Novel104",0,1229,"eyescenter",-1,0,1,0,(May 02 2014 14:46:35),0,TRUE,TRUE,2,TRUE
"267","A152SAO8J1ZL7T","May 02 2014","14:46:35",7,"No-Social","Zero",2,1,"Switch",1,"Novel81",0,"Novel121",1,2634,"eyescenter",-1,1,0,0,(May 02 2014 14:46:35),0,TRUE,FALSE,2,FALSE
"268","A152SAO8J1ZL7T","May 02 2014","14:46:35",8,"No-Social","Zero",2,1,"Switch",1,"Novel96",0,"Novel121",1,3213,"eyescenter",-1,0,1,0,(May 02 2014 14:46:35),0,TRUE,FALSE,2,FALSE
"269","A152SAO8J1ZL7T","May 02 2014","14:46:35",9,"No-Social","Zero",2,2,"Same",0,"Novel1",1,"Novel1",1,3873,"eyescenter",-1,1,0,0,(May 02 2014 14:46:35),0,TRUE,FALSE,2,TRUE
"270","A152SAO8J1ZL7T","May 02 2014","14:46:35",10,"No-Social","Zero",2,2,"Same",0,"Novel1",0,"Novel1",1,819,"eyescenter",-1,0,1,0,(May 02 2014 14:46:35),0,TRUE,FALSE,2,TRUE
"271","A152SAO8J1ZL7T","May 02 2014","14:46:35",11,"No-Social","Zero",2,3,"Switch",0,"Novel112",0,"Novel11",1,1690,"eyescenter",-1,1,0,0,(May 02 2014 14:46:35),0,TRUE,FALSE,2,FALSE
"272","A152SAO8J1ZL7T","May 02 2014","14:46:35",12,"No-Social","Zero",2,3,"Switch",0,"Novel11",0,"Novel11",1,1332,"eyescenter",-1,0,1,0,(May 02 2014 14:46:35),0,TRUE,FALSE,2,TRUE
"273","A152SAO8J1ZL7T","May 02 2014","14:46:35",13,"No-Social","Zero",2,4,"Same",1,"Novel5",1,"Novel5",1,1900,"eyescenter",-1,1,0,0,(May 02 2014 14:46:35),0,TRUE,FALSE,2,TRUE
"274","A152SAO8J1ZL7T","May 02 2014","14:46:35",14,"No-Social","Zero",2,4,"Same",1,"Novel5",1,"Novel5",1,838,"eyescenter",-1,0,1,0,(May 02 2014 14:46:35),0,TRUE,FALSE,2,TRUE
"275","A152SAO8J1ZL7T","May 02 2014","14:46:35",15,"No-Social","Zero",2,5,"Switch",1,"Novel58",1,"Novel52",0,1844,"eyescenter",-1,1,0,0,(May 02 2014 14:46:35),0,TRUE,FALSE,2,FALSE
"276","A152SAO8J1ZL7T","May 02 2014","14:46:35",16,"No-Social","Zero",2,5,"Switch",1,"Novel55",1,"Novel52",0,1402,"eyescenter",-1,0,1,0,(May 02 2014 14:46:35),0,TRUE,FALSE,2,FALSE
"277","A152SAO8J1ZL7T","May 02 2014","14:46:35",17,"No-Social","Zero",2,6,"Same",0,"Novel137",0,"Novel137",0,1924,"eyescenter",-1,1,0,0,(May 02 2014 14:46:35),0,TRUE,FALSE,2,TRUE
"278","A152SAO8J1ZL7T","May 02 2014","14:46:35",18,"No-Social","Zero",2,6,"Same",0,"Novel137",1,"Novel137",0,1236,"eyescenter",-1,0,1,0,(May 02 2014 14:46:35),0,TRUE,FALSE,2,TRUE
"279","A152SAO8J1ZL7T","May 02 2014","14:46:35",19,"No-Social","Zero",2,7,"Switch",0,"Novel8",1,"Novel134",0,1484,"eyescenter",-1,1,0,0,(May 02 2014 14:46:35),0,TRUE,FALSE,2,FALSE
"280","A152SAO8J1ZL7T","May 02 2014","14:46:35",20,"No-Social","Zero",2,7,"Switch",0,"Novel76",0,"Novel134",0,1649,"eyescenter",-1,0,1,0,(May 02 2014 14:46:35),0,TRUE,FALSE,2,FALSE
"281","A15C96Z8TZEV6D","May 02 2014","14:27:57",1,"Social","Three",2,0,"Same",1,"squirrel",0,"",0,3044,"eyescenter",-1,0,0,1,(May 02 2014 14:27:57),3,TRUE,FALSE,2,FALSE
"282","A15C96Z8TZEV6D","May 02 2014","14:27:57",2,"Social","Three",2,0,"Same",1,"squirrel",1,"",0,2832,"eyescenter",-1,0,0,1,(May 02 2014 14:27:57),3,TRUE,FALSE,2,FALSE
"283","A15C96Z8TZEV6D","May 02 2014","14:27:57",3,"Social","Three",2,0,"Same",1,"tomato",0,"",0,2048,"eyescenter",-1,0,0,1,(May 02 2014 14:27:57),3,TRUE,FALSE,2,FALSE
"284","A15C96Z8TZEV6D","May 02 2014","14:27:57",4,"Social","Three",2,0,"Same",1,"tomato",1,"",0,2353,"eyescenter",-1,0,0,1,(May 02 2014 14:27:57),3,TRUE,FALSE,2,FALSE
"285","A15C96Z8TZEV6D","May 02 2014","14:27:57",5,"Social","Three",2,0,"Same",1,"Novel84",0,"Novel84",0,3304,"eyes_down_left",0,1,0,0,(May 02 2014 14:27:57),3,TRUE,FALSE,2,TRUE
"286","A15C96Z8TZEV6D","May 02 2014","14:27:57",6,"Social","Three",2,1,"Switch",0,"Novel41",1,"Novel110",0,1361,"eyes_down_right",1,1,0,0,(May 02 2014 14:27:57),3,TRUE,FALSE,2,FALSE
"287","A15C96Z8TZEV6D","May 02 2014","14:27:57",7,"Social","Three",2,2,"Same",0,"Novel31",0,"Novel31",0,1068,"eyes_down_left",0,1,0,0,(May 02 2014 14:27:57),3,TRUE,FALSE,2,TRUE
"288","A15C96Z8TZEV6D","May 02 2014","14:27:57",8,"Social","Three",2,3,"Switch",1,"Novel57",0,"Novel121",1,2240,"eyes_down_left",0,1,0,0,(May 02 2014 14:27:57),3,TRUE,FALSE,2,FALSE
"289","A15C96Z8TZEV6D","May 02 2014","14:27:57",9,"Social","Three",2,0,"Same",1,"Novel84",0,"Novel84",0,1364,"eyescenter",-1,0,1,0,(May 02 2014 14:27:57),3,TRUE,TRUE,2,TRUE
"290","A15C96Z8TZEV6D","May 02 2014","14:27:57",10,"Social","Three",2,1,"Switch",0,"Novel120",0,"Novel110",0,1342,"eyescenter",-1,0,1,0,(May 02 2014 14:27:57),3,TRUE,FALSE,2,FALSE
"291","A15C96Z8TZEV6D","May 02 2014","14:27:57",11,"Social","Three",2,2,"Same",0,"Novel31",1,"Novel31",0,985,"eyescenter",-1,0,1,0,(May 02 2014 14:27:57),3,TRUE,FALSE,2,TRUE
"292","A15C96Z8TZEV6D","May 02 2014","14:27:57",12,"Social","Three",2,3,"Switch",1,"Novel53",0,"Novel121",1,1694,"eyescenter",-1,0,1,0,(May 02 2014 14:27:57),3,TRUE,FALSE,2,FALSE
"293","A15C96Z8TZEV6D","May 02 2014","14:27:57",13,"Social","Three",2,4,"Same",0,"Novel98",0,"Novel98",0,1296,"eyes_down_left",0,1,0,0,(May 02 2014 14:27:57),3,TRUE,FALSE,2,TRUE
"294","A15C96Z8TZEV6D","May 02 2014","14:27:57",14,"Social","Three",2,5,"Switch",0,"Novel92",1,"Novel91",0,1584,"eyes_down_right",1,1,0,0,(May 02 2014 14:27:57),3,TRUE,FALSE,2,FALSE
"295","A15C96Z8TZEV6D","May 02 2014","14:27:57",15,"Social","Three",2,6,"Same",1,"Novel130",1,"Novel130",1,1200,"eyes_down_right",1,1,0,0,(May 02 2014 14:27:57),3,TRUE,FALSE,2,TRUE
"296","A15C96Z8TZEV6D","May 02 2014","14:27:57",16,"Social","Three",2,7,"Switch",1,"Novel13",0,"Novel85",1,1034,"eyes_down_left",0,1,0,0,(May 02 2014 14:27:57),3,TRUE,FALSE,2,FALSE
"297","A15C96Z8TZEV6D","May 02 2014","14:27:57",17,"Social","Three",2,4,"Same",0,"Novel98",1,"Novel98",0,1245,"eyescenter",-1,0,1,0,(May 02 2014 14:27:57),3,TRUE,FALSE,2,TRUE
"298","A15C96Z8TZEV6D","May 02 2014","14:27:57",18,"Social","Three",2,5,"Switch",0,"Novel91",1,"Novel91",0,1812,"eyescenter",-1,0,1,0,(May 02 2014 14:27:57),3,TRUE,FALSE,2,TRUE
"299","A15C96Z8TZEV6D","May 02 2014","14:27:57",19,"Social","Three",2,6,"Same",1,"Novel130",1,"Novel130",1,462,"eyescenter",-1,0,1,0,(May 02 2014 14:27:57),3,TRUE,FALSE,2,TRUE
"300","A15C96Z8TZEV6D","May 02 2014","14:27:57",20,"Social","Three",2,7,"Switch",1,"Novel9",0,"Novel85",1,584,"eyescenter",-1,0,1,0,(May 02 2014 14:27:57),3,TRUE,FALSE,2,FALSE
"301","A15R9EXZP3UNYF","May 03 2014","06:22:03",1,"Social","Zero",2,0,"Same",0,"squirrel",0,"",0,1369,"eyescenter",-1,0,0,1,(May 03 2014 06:22:03),0,TRUE,FALSE,2,FALSE
"302","A15R9EXZP3UNYF","May 03 2014","06:22:03",2,"Social","Zero",2,0,"Same",0,"squirrel",1,"",0,1009,"eyescenter",-1,0,0,1,(May 03 2014 06:22:03),0,TRUE,FALSE,2,FALSE
"303","A15R9EXZP3UNYF","May 03 2014","06:22:03",3,"Social","Zero",2,0,"Same",0,"tomato",0,"",0,915,"eyescenter",-1,0,0,1,(May 03 2014 06:22:03),0,TRUE,FALSE,2,FALSE
"304","A15R9EXZP3UNYF","May 03 2014","06:22:03",4,"Social","Zero",2,0,"Same",0,"tomato",1,"",0,913,"eyescenter",-1,0,0,1,(May 03 2014 06:22:03),0,TRUE,FALSE,2,FALSE
"305","A15R9EXZP3UNYF","May 03 2014","06:22:03",5,"Social","Zero",2,0,"Same",0,"Novel131",0,"Novel131",0,3407,"eyes_down_left",0,1,0,0,(May 03 2014 06:22:03),0,TRUE,FALSE,2,TRUE
"306","A15R9EXZP3UNYF","May 03 2014","06:22:03",6,"Social","Zero",2,0,"Same",0,"Novel131",1,"Novel131",0,1673,"eyescenter",-1,0,1,0,(May 03 2014 06:22:03),0,TRUE,TRUE,2,TRUE
"307","A15R9EXZP3UNYF","May 03 2014","06:22:03",7,"Social","Zero",2,1,"Switch",0,"Novel17",1,"Novel68",0,4404,"eyes_down_left",0,1,0,0,(May 03 2014 06:22:03),0,TRUE,FALSE,2,FALSE
"308","A15R9EXZP3UNYF","May 03 2014","06:22:03",8,"Social","Zero",2,1,"Switch",0,"Novel68",1,"Novel68",0,3896,"eyescenter",-1,0,1,0,(May 03 2014 06:22:03),0,TRUE,FALSE,2,TRUE
"309","A15R9EXZP3UNYF","May 03 2014","06:22:03",9,"Social","Zero",2,2,"Same",0,"Novel42",1,"Novel42",1,1951,"eyes_down_left",0,1,0,0,(May 03 2014 06:22:03),0,TRUE,FALSE,2,TRUE
"310","A15R9EXZP3UNYF","May 03 2014","06:22:03",10,"Social","Zero",2,2,"Same",0,"Novel42",0,"Novel42",1,1065,"eyescenter",-1,0,1,0,(May 03 2014 06:22:03),0,TRUE,FALSE,2,TRUE
"311","A15R9EXZP3UNYF","May 03 2014","06:22:03",11,"Social","Zero",2,3,"Switch",1,"Novel46",1,"Novel61",0,6384,"eyes_down_left",0,1,0,0,(May 03 2014 06:22:03),0,TRUE,FALSE,2,FALSE
"312","A15R9EXZP3UNYF","May 03 2014","06:22:03",12,"Social","Zero",2,3,"Switch",1,"Novel61",0,"Novel61",0,1564,"eyescenter",-1,0,1,0,(May 03 2014 06:22:03),0,TRUE,FALSE,2,TRUE
"313","A15R9EXZP3UNYF","May 03 2014","06:22:03",13,"Social","Zero",2,4,"Same",1,"Novel52",1,"Novel52",1,2319,"eyes_down_left",0,1,0,0,(May 03 2014 06:22:03),0,TRUE,FALSE,2,TRUE
"314","A15R9EXZP3UNYF","May 03 2014","06:22:03",14,"Social","Zero",2,4,"Same",1,"Novel52",1,"Novel52",1,831,"eyescenter",-1,0,1,0,(May 03 2014 06:22:03),0,TRUE,FALSE,2,TRUE
"315","A15R9EXZP3UNYF","May 03 2014","06:22:03",15,"Social","Zero",2,5,"Switch",1,"Novel79",0,"Novel136",1,1241,"eyes_down_left",0,1,0,0,(May 03 2014 06:22:03),0,TRUE,FALSE,2,FALSE
"316","A15R9EXZP3UNYF","May 03 2014","06:22:03",16,"Social","Zero",2,5,"Switch",1,"Novel64",0,"Novel136",1,3502,"eyescenter",-1,0,1,0,(May 03 2014 06:22:03),0,TRUE,FALSE,2,FALSE
"317","A15R9EXZP3UNYF","May 03 2014","06:22:03",17,"Social","Zero",2,6,"Same",1,"Novel12",1,"Novel12",1,2557,"eyes_down_right",1,1,0,0,(May 03 2014 06:22:03),0,TRUE,FALSE,2,TRUE
"318","A15R9EXZP3UNYF","May 03 2014","06:22:03",18,"Social","Zero",2,6,"Same",1,"Novel12",1,"Novel12",1,2177,"eyescenter",-1,0,1,0,(May 03 2014 06:22:03),0,TRUE,FALSE,2,TRUE
"319","A15R9EXZP3UNYF","May 03 2014","06:22:03",19,"Social","Zero",2,7,"Switch",0,"Novel119",1,"Novel138",0,2208,"eyes_down_right",1,1,0,0,(May 03 2014 06:22:03),0,TRUE,FALSE,2,FALSE
"320","A15R9EXZP3UNYF","May 03 2014","06:22:03",20,"Social","Zero",2,7,"Switch",0,"Novel138",1,"Novel138",0,1401,"eyescenter",-1,0,1,0,(May 03 2014 06:22:03),0,TRUE,FALSE,2,TRUE
"321","A15WYY7ZKAQQ7R","May 02 2014","16:04:40",1,"Social","Seven",2,0,"Same",1,"squirrel",0,"",0,2254,"eyescenter",-1,0,0,1,(May 02 2014 16:04:40),7,TRUE,FALSE,2,FALSE
"322","A15WYY7ZKAQQ7R","May 02 2014","16:04:40",2,"Social","Seven",2,0,"Same",1,"squirrel",1,"",0,1249,"eyescenter",-1,0,0,1,(May 02 2014 16:04:40),7,TRUE,FALSE,2,FALSE
"323","A15WYY7ZKAQQ7R","May 02 2014","16:04:40",3,"Social","Seven",2,0,"Same",1,"tomato",0,"",0,1607,"eyescenter",-1,0,0,1,(May 02 2014 16:04:40),7,TRUE,FALSE,2,FALSE
"324","A15WYY7ZKAQQ7R","May 02 2014","16:04:40",4,"Social","Seven",2,0,"Same",1,"tomato",1,"",0,1781,"eyescenter",-1,0,0,1,(May 02 2014 16:04:40),7,TRUE,FALSE,2,FALSE
"325","A15WYY7ZKAQQ7R","May 02 2014","16:04:40",5,"Social","Seven",2,0,"Same",1,"Novel69",0,"Novel69",0,1873,"eyes_down_left",0,1,0,0,(May 02 2014 16:04:40),7,TRUE,FALSE,2,TRUE
"326","A15WYY7ZKAQQ7R","May 02 2014","16:04:40",6,"Social","Seven",2,1,"Switch",1,"Novel120",0,"Novel113",1,2474,"eyes_down_left",0,1,0,0,(May 02 2014 16:04:40),7,TRUE,FALSE,2,FALSE
"327","A15WYY7ZKAQQ7R","May 02 2014","16:04:40",7,"Social","Seven",2,2,"Same",0,"Novel89",1,"Novel89",1,1992,"eyes_down_right",1,1,0,0,(May 02 2014 16:04:40),7,TRUE,FALSE,2,TRUE
"328","A15WYY7ZKAQQ7R","May 02 2014","16:04:40",8,"Social","Seven",2,3,"Switch",1,"Novel70",1,"Novel34",0,1512,"eyes_down_right",1,1,0,0,(May 02 2014 16:04:40),7,TRUE,FALSE,2,FALSE
"329","A15WYY7ZKAQQ7R","May 02 2014","16:04:40",9,"Social","Seven",2,4,"Same",1,"Novel8",1,"Novel8",1,1782,"eyes_down_right",1,1,0,0,(May 02 2014 16:04:40),7,TRUE,FALSE,2,TRUE
"330","A15WYY7ZKAQQ7R","May 02 2014","16:04:40",10,"Social","Seven",2,5,"Switch",0,"Novel3",1,"Novel140",0,1643,"eyes_down_right",1,1,0,0,(May 02 2014 16:04:40),7,TRUE,FALSE,2,FALSE
"331","A15WYY7ZKAQQ7R","May 02 2014","16:04:40",11,"Social","Seven",2,6,"Same",0,"Novel79",0,"Novel79",0,1864,"eyes_down_left",0,1,0,0,(May 02 2014 16:04:40),7,TRUE,FALSE,2,TRUE
"332","A15WYY7ZKAQQ7R","May 02 2014","16:04:40",12,"Social","Seven",2,7,"Switch",0,"Novel133",1,"Novel119",0,1611,"eyes_down_right",1,1,0,0,(May 02 2014 16:04:40),7,TRUE,FALSE,2,FALSE
"333","A15WYY7ZKAQQ7R","May 02 2014","16:04:40",13,"Social","Seven",2,0,"Same",1,"Novel69",0,"Novel69",0,3624,"eyescenter",-1,0,1,0,(May 02 2014 16:04:40),7,TRUE,TRUE,2,TRUE
"334","A15WYY7ZKAQQ7R","May 02 2014","16:04:40",14,"Social","Seven",2,1,"Switch",1,"Novel113",1,"Novel113",1,3137,"eyescenter",-1,0,1,0,(May 02 2014 16:04:40),7,TRUE,FALSE,2,TRUE
"335","A15WYY7ZKAQQ7R","May 02 2014","16:04:40",15,"Social","Seven",2,2,"Same",0,"Novel89",0,"Novel89",1,1890,"eyescenter",-1,0,1,0,(May 02 2014 16:04:40),7,TRUE,FALSE,2,TRUE
"336","A15WYY7ZKAQQ7R","May 02 2014","16:04:40",16,"Social","Seven",2,3,"Switch",1,"Novel34",0,"Novel34",0,9153,"eyescenter",-1,0,1,0,(May 02 2014 16:04:40),7,TRUE,FALSE,2,TRUE
"337","A15WYY7ZKAQQ7R","May 02 2014","16:04:40",17,"Social","Seven",2,4,"Same",1,"Novel8",1,"Novel8",1,4449,"eyescenter",-1,0,1,0,(May 02 2014 16:04:40),7,TRUE,FALSE,2,TRUE
"338","A15WYY7ZKAQQ7R","May 02 2014","16:04:40",18,"Social","Seven",2,5,"Switch",0,"Novel85",0,"Novel140",0,1697,"eyescenter",-1,0,1,0,(May 02 2014 16:04:40),7,TRUE,FALSE,2,FALSE
"339","A15WYY7ZKAQQ7R","May 02 2014","16:04:40",19,"Social","Seven",2,6,"Same",0,"Novel79",1,"Novel79",0,5171,"eyescenter",-1,0,1,0,(May 02 2014 16:04:40),7,TRUE,FALSE,2,TRUE
"340","A15WYY7ZKAQQ7R","May 02 2014","16:04:40",20,"Social","Seven",2,7,"Switch",0,"Novel81",0,"Novel119",0,3373,"eyescenter",-1,0,1,0,(May 02 2014 16:04:40),7,TRUE,FALSE,2,FALSE
"341","A1601OGXH9CRQ0","May 02 2014","12:15:02",1,"Social","Seven",2,0,"Same",0,"squirrel",0,"",0,3895,"eyescenter",-1,0,0,1,(May 02 2014 12:15:02),7,TRUE,FALSE,2,FALSE
"342","A1601OGXH9CRQ0","May 02 2014","12:15:02",2,"Social","Seven",2,0,"Same",0,"squirrel",1,"",0,1832,"eyescenter",-1,0,0,1,(May 02 2014 12:15:02),7,TRUE,FALSE,2,FALSE
"343","A1601OGXH9CRQ0","May 02 2014","12:15:02",3,"Social","Seven",2,0,"Same",0,"tomato",0,"",0,1639,"eyescenter",-1,0,0,1,(May 02 2014 12:15:02),7,TRUE,FALSE,2,FALSE
"344","A1601OGXH9CRQ0","May 02 2014","12:15:02",4,"Social","Seven",2,0,"Same",0,"tomato",1,"",0,952,"eyescenter",-1,0,0,1,(May 02 2014 12:15:02),7,TRUE,FALSE,2,FALSE
"345","A1601OGXH9CRQ0","May 02 2014","12:15:02",5,"Social","Seven",2,0,"Same",0,"Novel129",1,"Novel129",1,2199,"eyes_down_right",1,1,0,0,(May 02 2014 12:15:02),7,TRUE,FALSE,2,TRUE
"346","A1601OGXH9CRQ0","May 02 2014","12:15:02",6,"Social","Seven",2,1,"Switch",1,"Novel72",0,"Novel44",1,2319,"eyes_down_left",0,1,0,0,(May 02 2014 12:15:02),7,TRUE,FALSE,2,FALSE
"347","A1601OGXH9CRQ0","May 02 2014","12:15:02",7,"Social","Seven",2,2,"Same",1,"Novel128",1,"Novel128",1,752,"eyes_down_right",1,1,0,0,(May 02 2014 12:15:02),7,TRUE,FALSE,2,TRUE
"348","A1601OGXH9CRQ0","May 02 2014","12:15:02",8,"Social","Seven",2,3,"Switch",0,"Novel5",1,"Novel133",0,1010,"eyes_down_right",1,1,0,0,(May 02 2014 12:15:02),7,TRUE,FALSE,2,FALSE
"349","A1601OGXH9CRQ0","May 02 2014","12:15:02",9,"Social","Seven",2,4,"Same",1,"Novel74",1,"Novel74",1,497,"eyes_down_right",1,1,0,0,(May 02 2014 12:15:02),7,TRUE,FALSE,2,TRUE
"350","A1601OGXH9CRQ0","May 02 2014","12:15:02",10,"Social","Seven",2,5,"Switch",0,"Novel92",0,"Novel16",1,834,"eyes_down_left",0,1,0,0,(May 02 2014 12:15:02),7,TRUE,FALSE,2,FALSE
"351","A1601OGXH9CRQ0","May 02 2014","12:15:02",11,"Social","Seven",2,6,"Same",0,"Novel38",1,"Novel38",1,1519,"eyes_down_right",1,1,0,0,(May 02 2014 12:15:02),7,TRUE,FALSE,2,TRUE
"352","A1601OGXH9CRQ0","May 02 2014","12:15:02",12,"Social","Seven",2,7,"Switch",1,"Novel77",0,"Novel120",1,1456,"eyes_down_left",0,1,0,0,(May 02 2014 12:15:02),7,TRUE,FALSE,2,FALSE
"353","A1601OGXH9CRQ0","May 02 2014","12:15:02",13,"Social","Seven",2,0,"Same",0,"Novel70",1,"Novel129",1,2272,"eyescenter",-1,0,1,0,(May 02 2014 12:15:02),7,TRUE,TRUE,2,FALSE
"354","A1601OGXH9CRQ0","May 02 2014","12:15:02",14,"Social","Seven",2,1,"Switch",1,"Novel44",1,"Novel44",1,2072,"eyescenter",-1,0,1,0,(May 02 2014 12:15:02),7,TRUE,FALSE,2,TRUE
"355","A1601OGXH9CRQ0","May 02 2014","12:15:02",15,"Social","Seven",2,2,"Same",1,"Novel128",1,"Novel128",1,1121,"eyescenter",-1,0,1,0,(May 02 2014 12:15:02),7,TRUE,FALSE,2,TRUE
"356","A1601OGXH9CRQ0","May 02 2014","12:15:02",16,"Social","Seven",2,3,"Switch",0,"Novel133",1,"Novel133",0,1249,"eyescenter",-1,0,1,0,(May 02 2014 12:15:02),7,TRUE,FALSE,2,TRUE
"357","A1601OGXH9CRQ0","May 02 2014","12:15:02",17,"Social","Seven",2,4,"Same",1,"Novel74",1,"Novel74",1,1089,"eyescenter",-1,0,1,0,(May 02 2014 12:15:02),7,TRUE,FALSE,2,TRUE
"358","A1601OGXH9CRQ0","May 02 2014","12:15:02",18,"Social","Seven",2,5,"Switch",0,"Novel16",0,"Novel16",1,1619,"eyescenter",-1,0,1,0,(May 02 2014 12:15:02),7,TRUE,FALSE,2,TRUE
"359","A1601OGXH9CRQ0","May 02 2014","12:15:02",19,"Social","Seven",2,6,"Same",0,"Novel38",0,"Novel38",1,770,"eyescenter",-1,0,1,0,(May 02 2014 12:15:02),7,TRUE,FALSE,2,TRUE
"360","A1601OGXH9CRQ0","May 02 2014","12:15:02",20,"Social","Seven",2,7,"Switch",1,"Novel101",0,"Novel120",1,1691,"eyescenter",-1,0,1,0,(May 02 2014 12:15:02),7,TRUE,FALSE,2,FALSE
"361","A164RBTU9AO3G7","May 02 2014","03:52:21",1,"No-Social","Zero",2,0,"Same",1,"squirrel",0,"",0,4026,"eyescenter",-1,0,0,1,(May 02 2014 03:52:21),0,TRUE,FALSE,2,FALSE
"362","A164RBTU9AO3G7","May 02 2014","03:52:21",2,"No-Social","Zero",2,0,"Same",1,"squirrel",1,"",0,1216,"eyescenter",-1,0,0,1,(May 02 2014 03:52:21),0,TRUE,FALSE,2,FALSE
"363","A164RBTU9AO3G7","May 02 2014","03:52:21",3,"No-Social","Zero",2,0,"Same",1,"tomato",0,"",0,793,"eyescenter",-1,0,0,1,(May 02 2014 03:52:21),0,TRUE,FALSE,2,FALSE
"364","A164RBTU9AO3G7","May 02 2014","03:52:21",4,"No-Social","Zero",2,0,"Same",1,"tomato",1,"",0,1409,"eyescenter",-1,0,0,1,(May 02 2014 03:52:21),0,TRUE,FALSE,2,FALSE
"365","A164RBTU9AO3G7","May 02 2014","03:52:21",5,"No-Social","Zero",2,0,"Same",1,"Novel49",0,"Novel49",0,1781,"eyescenter",-1,1,0,0,(May 02 2014 03:52:21),0,TRUE,FALSE,2,TRUE
"366","A164RBTU9AO3G7","May 02 2014","03:52:21",6,"No-Social","Zero",2,0,"Same",1,"Novel49",0,"Novel49",0,1115,"eyescenter",-1,0,1,0,(May 02 2014 03:52:21),0,TRUE,TRUE,2,TRUE
"367","A164RBTU9AO3G7","May 02 2014","03:52:21",7,"No-Social","Zero",2,1,"Switch",1,"Novel19",1,"Novel111",0,2310,"eyescenter",-1,1,0,0,(May 02 2014 03:52:21),0,TRUE,FALSE,2,FALSE
"368","A164RBTU9AO3G7","May 02 2014","03:52:21",8,"No-Social","Zero",2,1,"Switch",1,"Novel111",0,"Novel111",0,1630,"eyescenter",-1,0,1,0,(May 02 2014 03:52:21),0,TRUE,FALSE,2,TRUE
"369","A164RBTU9AO3G7","May 02 2014","03:52:21",9,"No-Social","Zero",2,2,"Same",0,"Novel64",0,"Novel64",0,1931,"eyescenter",-1,1,0,0,(May 02 2014 03:52:21),0,TRUE,FALSE,2,TRUE
"370","A164RBTU9AO3G7","May 02 2014","03:52:21",10,"No-Social","Zero",2,2,"Same",0,"Novel64",1,"Novel64",0,1043,"eyescenter",-1,0,1,0,(May 02 2014 03:52:21),0,TRUE,FALSE,2,TRUE
"371","A164RBTU9AO3G7","May 02 2014","03:52:21",11,"No-Social","Zero",2,3,"Switch",1,"Novel58",0,"Novel48",1,2042,"eyescenter",-1,1,0,0,(May 02 2014 03:52:21),0,TRUE,FALSE,2,FALSE
"372","A164RBTU9AO3G7","May 02 2014","03:52:21",12,"No-Social","Zero",2,3,"Switch",1,"Novel48",1,"Novel48",1,2292,"eyescenter",-1,0,1,0,(May 02 2014 03:52:21),0,TRUE,FALSE,2,TRUE
"373","A164RBTU9AO3G7","May 02 2014","03:52:21",13,"No-Social","Zero",2,4,"Same",1,"Novel114",1,"Novel114",1,2788,"eyescenter",-1,1,0,0,(May 02 2014 03:52:21),0,TRUE,FALSE,2,TRUE
"374","A164RBTU9AO3G7","May 02 2014","03:52:21",14,"No-Social","Zero",2,4,"Same",1,"Novel114",1,"Novel114",1,1126,"eyescenter",-1,0,1,0,(May 02 2014 03:52:21),0,TRUE,FALSE,2,TRUE
"375","A164RBTU9AO3G7","May 02 2014","03:52:21",15,"No-Social","Zero",2,5,"Switch",0,"Novel127",0,"Novel82",1,1663,"eyescenter",-1,1,0,0,(May 02 2014 03:52:21),0,TRUE,FALSE,2,FALSE
"376","A164RBTU9AO3G7","May 02 2014","03:52:21",16,"No-Social","Zero",2,5,"Switch",0,"Novel82",0,"Novel82",1,906,"eyescenter",-1,0,1,0,(May 02 2014 03:52:21),0,TRUE,FALSE,2,TRUE
"377","A164RBTU9AO3G7","May 02 2014","03:52:21",17,"No-Social","Zero",2,6,"Same",0,"Novel63",1,"Novel63",1,1773,"eyescenter",-1,1,0,0,(May 02 2014 03:52:21),0,TRUE,FALSE,2,TRUE
"378","A164RBTU9AO3G7","May 02 2014","03:52:21",18,"No-Social","Zero",2,6,"Same",0,"Novel63",0,"Novel63",1,1292,"eyescenter",-1,0,1,0,(May 02 2014 03:52:21),0,TRUE,FALSE,2,TRUE
"379","A164RBTU9AO3G7","May 02 2014","03:52:21",19,"No-Social","Zero",2,7,"Switch",0,"Novel38",0,"Novel61",1,1765,"eyescenter",-1,1,0,0,(May 02 2014 03:52:21),0,TRUE,FALSE,2,FALSE
"380","A164RBTU9AO3G7","May 02 2014","03:52:21",20,"No-Social","Zero",2,7,"Switch",0,"Novel61",0,"Novel61",1,1293,"eyescenter",-1,0,1,0,(May 02 2014 03:52:21),0,TRUE,FALSE,2,TRUE
"401","A16M46MK3XDRCL","May 02 2014","15:53:05",1,"Social","Three",2,0,"Same",0,"squirrel",0,"",0,5233,"eyescenter",-1,0,0,1,(May 02 2014 15:53:05),3,TRUE,FALSE,2,FALSE
"402","A16M46MK3XDRCL","May 02 2014","15:53:05",2,"Social","Three",2,0,"Same",0,"squirrel",1,"",0,1942,"eyescenter",-1,0,0,1,(May 02 2014 15:53:05),3,TRUE,FALSE,2,FALSE
"403","A16M46MK3XDRCL","May 02 2014","15:53:05",3,"Social","Three",2,0,"Same",0,"tomato",0,"",0,1776,"eyescenter",-1,0,0,1,(May 02 2014 15:53:05),3,TRUE,FALSE,2,FALSE
"404","A16M46MK3XDRCL","May 02 2014","15:53:05",4,"Social","Three",2,0,"Same",0,"tomato",1,"",0,609,"eyescenter",-1,0,0,1,(May 02 2014 15:53:05),3,TRUE,FALSE,2,FALSE
"405","A16M46MK3XDRCL","May 02 2014","15:53:05",5,"Social","Three",2,0,"Same",0,"Novel48",1,"Novel48",1,1452,"eyes_down_right",1,1,0,0,(May 02 2014 15:53:05),3,TRUE,FALSE,2,TRUE
"406","A16M46MK3XDRCL","May 02 2014","15:53:05",6,"Social","Three",2,1,"Switch",0,"Novel91",1,"Novel7",0,1267,"eyes_down_right",1,1,0,0,(May 02 2014 15:53:05),3,TRUE,FALSE,2,FALSE
"407","A16M46MK3XDRCL","May 02 2014","15:53:05",7,"Social","Three",2,2,"Same",1,"Novel16",0,"Novel16",0,1002,"eyes_down_left",0,1,0,0,(May 02 2014 15:53:05),3,TRUE,FALSE,2,TRUE
"408","A16M46MK3XDRCL","May 02 2014","15:53:05",8,"Social","Three",2,3,"Switch",1,"Novel89",1,"Novel31",0,980,"eyes_down_right",1,1,0,0,(May 02 2014 15:53:05),3,TRUE,FALSE,2,FALSE
"409","A16M46MK3XDRCL","May 02 2014","15:53:05",9,"Social","Three",2,0,"Same",0,"Novel48",0,"Novel48",1,963,"eyescenter",-1,0,1,0,(May 02 2014 15:53:05),3,TRUE,TRUE,2,TRUE
"410","A16M46MK3XDRCL","May 02 2014","15:53:05",10,"Social","Three",2,1,"Switch",0,"Novel26",0,"Novel7",0,1293,"eyescenter",-1,0,1,0,(May 02 2014 15:53:05),3,TRUE,FALSE,2,FALSE
"411","A16M46MK3XDRCL","May 02 2014","15:53:05",11,"Social","Three",2,2,"Same",1,"Novel16",0,"Novel16",0,875,"eyescenter",-1,0,1,0,(May 02 2014 15:53:05),3,TRUE,FALSE,2,TRUE
"412","A16M46MK3XDRCL","May 02 2014","15:53:05",12,"Social","Three",2,3,"Switch",1,"Novel29",1,"Novel31",0,1188,"eyescenter",-1,0,1,0,(May 02 2014 15:53:05),3,TRUE,FALSE,2,FALSE
"413","A16M46MK3XDRCL","May 02 2014","15:53:05",13,"Social","Three",2,4,"Same",1,"Novel119",0,"Novel119",0,1086,"eyes_down_left",0,1,0,0,(May 02 2014 15:53:05),3,TRUE,FALSE,2,TRUE
"414","A16M46MK3XDRCL","May 02 2014","15:53:05",14,"Social","Three",2,5,"Switch",1,"Novel55",0,"Novel17",1,875,"eyes_down_left",0,1,0,0,(May 02 2014 15:53:05),3,TRUE,FALSE,2,FALSE
"415","A16M46MK3XDRCL","May 02 2014","15:53:05",15,"Social","Three",2,6,"Same",0,"Novel59",1,"Novel59",1,1481,"eyes_down_right",1,1,0,0,(May 02 2014 15:53:05),3,TRUE,FALSE,2,TRUE
"416","A16M46MK3XDRCL","May 02 2014","15:53:05",16,"Social","Three",2,7,"Switch",0,"Novel95",1,"Novel138",0,1295,"eyes_down_right",1,1,0,0,(May 02 2014 15:53:05),3,TRUE,FALSE,2,FALSE
"417","A16M46MK3XDRCL","May 02 2014","15:53:05",17,"Social","Three",2,4,"Same",1,"Novel119",0,"Novel119",0,1057,"eyescenter",-1,0,1,0,(May 02 2014 15:53:05),3,TRUE,FALSE,2,TRUE
"418","A16M46MK3XDRCL","May 02 2014","15:53:05",18,"Social","Three",2,5,"Switch",1,"Novel128",0,"Novel17",1,4517,"eyescenter",-1,0,1,0,(May 02 2014 15:53:05),3,TRUE,FALSE,2,FALSE
"419","A16M46MK3XDRCL","May 02 2014","15:53:05",19,"Social","Three",2,6,"Same",0,"Novel59",0,"Novel59",1,988,"eyescenter",-1,0,1,0,(May 02 2014 15:53:05),3,TRUE,FALSE,2,TRUE
"420","A16M46MK3XDRCL","May 02 2014","15:53:05",20,"Social","Three",2,7,"Switch",0,"Novel138",1,"Novel138",0,782,"eyescenter",-1,0,1,0,(May 02 2014 15:53:05),3,TRUE,FALSE,2,TRUE
"421","A16PU53B41CJ22","May 02 2014","11:19:23",1,"No-Social","One",2,0,"Same",0,"squirrel",0,"",0,2724,"eyescenter",-1,0,0,1,(May 02 2014 11:19:23),1,TRUE,FALSE,2,FALSE
"422","A16PU53B41CJ22","May 02 2014","11:19:23",2,"No-Social","One",2,0,"Same",0,"squirrel",1,"",0,4755,"eyescenter",-1,0,0,1,(May 02 2014 11:19:23),1,TRUE,FALSE,2,FALSE
"423","A16PU53B41CJ22","May 02 2014","11:19:23",3,"No-Social","One",2,0,"Same",0,"tomato",0,"",0,1925,"eyescenter",-1,0,0,1,(May 02 2014 11:19:23),1,TRUE,FALSE,2,FALSE
"424","A16PU53B41CJ22","May 02 2014","11:19:23",4,"No-Social","One",2,0,"Same",0,"tomato",1,"",0,1324,"eyescenter",-1,0,0,1,(May 02 2014 11:19:23),1,TRUE,FALSE,2,FALSE
"425","A16PU53B41CJ22","May 02 2014","11:19:23",5,"No-Social","One",2,0,"Same",0,"Novel134",0,"Novel134",0,5998,"eyescenter",-1,1,0,0,(May 02 2014 11:19:23),1,TRUE,FALSE,2,TRUE
"426","A16PU53B41CJ22","May 02 2014","11:19:23",6,"No-Social","One",2,1,"Switch",1,"Novel22",1,"Novel1",0,3921,"eyescenter",-1,1,0,0,(May 02 2014 11:19:23),1,TRUE,FALSE,2,FALSE
"427","A16PU53B41CJ22","May 02 2014","11:19:23",7,"No-Social","One",2,0,"Same",0,"Novel134",1,"Novel134",0,1840,"eyescenter",-1,0,1,0,(May 02 2014 11:19:23),1,TRUE,TRUE,2,TRUE
"428","A16PU53B41CJ22","May 02 2014","11:19:23",8,"No-Social","One",2,1,"Switch",1,"Novel1",0,"Novel1",0,1639,"eyescenter",-1,0,1,0,(May 02 2014 11:19:23),1,TRUE,FALSE,2,TRUE
"429","A16PU53B41CJ22","May 02 2014","11:19:23",9,"No-Social","One",2,2,"Same",1,"Novel23",1,"Novel23",1,5289,"eyescenter",-1,1,0,0,(May 02 2014 11:19:23),1,TRUE,FALSE,2,TRUE
"430","A16PU53B41CJ22","May 02 2014","11:19:23",10,"No-Social","One",2,3,"Switch",1,"Novel59",1,"Novel108",0,1748,"eyescenter",-1,1,0,0,(May 02 2014 11:19:23),1,TRUE,FALSE,2,FALSE
"431","A16PU53B41CJ22","May 02 2014","11:19:23",11,"No-Social","One",2,2,"Same",1,"Novel23",1,"Novel23",1,996,"eyescenter",-1,0,1,0,(May 02 2014 11:19:23),1,TRUE,FALSE,2,TRUE
"432","A16PU53B41CJ22","May 02 2014","11:19:23",12,"No-Social","One",2,3,"Switch",1,"Novel108",0,"Novel108",0,1246,"eyescenter",-1,0,1,0,(May 02 2014 11:19:23),1,TRUE,FALSE,2,TRUE
"433","A16PU53B41CJ22","May 02 2014","11:19:23",13,"No-Social","One",2,4,"Same",1,"Novel123",1,"Novel123",1,3198,"eyescenter",-1,1,0,0,(May 02 2014 11:19:23),1,TRUE,FALSE,2,TRUE
"434","A16PU53B41CJ22","May 02 2014","11:19:23",14,"No-Social","One",2,5,"Switch",0,"Novel100",0,"Novel125",1,1616,"eyescenter",-1,1,0,0,(May 02 2014 11:19:23),1,TRUE,FALSE,2,FALSE
"435","A16PU53B41CJ22","May 02 2014","11:19:23",15,"No-Social","One",2,4,"Same",1,"Novel123",1,"Novel123",1,1137,"eyescenter",-1,0,1,0,(May 02 2014 11:19:23),1,TRUE,FALSE,2,TRUE
"436","A16PU53B41CJ22","May 02 2014","11:19:23",16,"No-Social","One",2,5,"Switch",0,"Novel125",0,"Novel125",1,1545,"eyescenter",-1,0,1,0,(May 02 2014 11:19:23),1,TRUE,FALSE,2,TRUE
"437","A16PU53B41CJ22","May 02 2014","11:19:23",17,"No-Social","One",2,6,"Same",0,"Novel57",0,"Novel57",0,1152,"eyescenter",-1,1,0,0,(May 02 2014 11:19:23),1,TRUE,FALSE,2,TRUE
"438","A16PU53B41CJ22","May 02 2014","11:19:23",18,"No-Social","One",2,7,"Switch",0,"Novel7",1,"Novel36",0,13780,"eyescenter",-1,1,0,0,(May 02 2014 11:19:23),1,TRUE,FALSE,2,FALSE
"439","A16PU53B41CJ22","May 02 2014","11:19:23",19,"No-Social","One",2,6,"Same",0,"Novel57",1,"Novel57",0,950,"eyescenter",-1,0,1,0,(May 02 2014 11:19:23),1,TRUE,FALSE,2,TRUE
"440","A16PU53B41CJ22","May 02 2014","11:19:23",20,"No-Social","One",2,7,"Switch",0,"Novel36",1,"Novel36",0,754,"eyescenter",-1,0,1,0,(May 02 2014 11:19:23),1,TRUE,FALSE,2,TRUE
"441","A16SR2HQIWRFD6","May 02 2014","16:20:05",1,"No-Social","Three",2,0,"Same",0,"squirrel",0,"",0,1362,"eyescenter",-1,0,0,1,(May 02 2014 16:20:05),3,TRUE,FALSE,2,FALSE
"442","A16SR2HQIWRFD6","May 02 2014","16:20:05",2,"No-Social","Three",2,0,"Same",0,"squirrel",1,"",0,947,"eyescenter",-1,0,0,1,(May 02 2014 16:20:05),3,TRUE,FALSE,2,FALSE
"443","A16SR2HQIWRFD6","May 02 2014","16:20:05",3,"No-Social","Three",2,0,"Same",0,"tomato",0,"",0,923,"eyescenter",-1,0,0,1,(May 02 2014 16:20:05),3,TRUE,FALSE,2,FALSE
"444","A16SR2HQIWRFD6","May 02 2014","16:20:05",4,"No-Social","Three",2,0,"Same",0,"tomato",1,"",0,690,"eyescenter",-1,0,0,1,(May 02 2014 16:20:05),3,TRUE,FALSE,2,FALSE
"445","A16SR2HQIWRFD6","May 02 2014","16:20:05",5,"No-Social","Three",2,0,"Same",0,"Novel78",0,"Novel78",0,2827,"eyescenter",-1,1,0,0,(May 02 2014 16:20:05),3,TRUE,FALSE,2,TRUE
"446","A16SR2HQIWRFD6","May 02 2014","16:20:05",6,"No-Social","Three",2,1,"Switch",1,"Novel38",1,"Novel110",0,1652,"eyescenter",-1,1,0,0,(May 02 2014 16:20:05),3,TRUE,FALSE,2,FALSE
"447","A16SR2HQIWRFD6","May 02 2014","16:20:05",7,"No-Social","Three",2,2,"Same",1,"Novel88",0,"Novel88",0,1861,"eyescenter",-1,1,0,0,(May 02 2014 16:20:05),3,TRUE,FALSE,2,TRUE
"448","A16SR2HQIWRFD6","May 02 2014","16:20:05",8,"No-Social","Three",2,3,"Switch",1,"Novel101",1,"Novel31",0,1637,"eyescenter",-1,1,0,0,(May 02 2014 16:20:05),3,TRUE,FALSE,2,FALSE
"449","A16SR2HQIWRFD6","May 02 2014","16:20:05",9,"No-Social","Three",2,0,"Same",0,"Novel78",1,"Novel78",0,2270,"eyescenter",-1,0,1,0,(May 02 2014 16:20:05),3,TRUE,TRUE,2,TRUE
"450","A16SR2HQIWRFD6","May 02 2014","16:20:05",10,"No-Social","Three",2,1,"Switch",1,"Novel110",0,"Novel110",0,925,"eyescenter",-1,0,1,0,(May 02 2014 16:20:05),3,TRUE,FALSE,2,TRUE
"451","A16SR2HQIWRFD6","May 02 2014","16:20:05",11,"No-Social","Three",2,2,"Same",1,"Novel11",1,"Novel88",0,1823,"eyescenter",-1,0,1,0,(May 02 2014 16:20:05),3,TRUE,FALSE,2,FALSE
"452","A16SR2HQIWRFD6","May 02 2014","16:20:05",12,"No-Social","Three",2,3,"Switch",1,"Novel31",0,"Novel31",0,1244,"eyescenter",-1,0,1,0,(May 02 2014 16:20:05),3,TRUE,FALSE,2,TRUE
"453","A16SR2HQIWRFD6","May 02 2014","16:20:05",13,"No-Social","Three",2,4,"Same",0,"Novel18",0,"Novel18",0,1301,"eyescenter",-1,1,0,0,(May 02 2014 16:20:05),3,TRUE,FALSE,2,TRUE
"454","A16SR2HQIWRFD6","May 02 2014","16:20:05",14,"No-Social","Three",2,5,"Switch",0,"Novel92",1,"Novel45",0,1068,"eyescenter",-1,1,0,0,(May 02 2014 16:20:05),3,TRUE,FALSE,2,FALSE
"455","A16SR2HQIWRFD6","May 02 2014","16:20:05",15,"No-Social","Three",2,6,"Same",1,"Novel17",1,"Novel17",1,1373,"eyescenter",-1,1,0,0,(May 02 2014 16:20:05),3,TRUE,FALSE,2,TRUE
"456","A16SR2HQIWRFD6","May 02 2014","16:20:05",16,"No-Social","Three",2,7,"Switch",0,"Novel3",1,"Novel115",0,1548,"eyescenter",-1,1,0,0,(May 02 2014 16:20:05),3,TRUE,FALSE,2,FALSE
"457","A16SR2HQIWRFD6","May 02 2014","16:20:05",17,"No-Social","Three",2,4,"Same",0,"Novel18",1,"Novel18",0,1675,"eyescenter",-1,0,1,0,(May 02 2014 16:20:05),3,TRUE,FALSE,2,TRUE
"458","A16SR2HQIWRFD6","May 02 2014","16:20:05",18,"No-Social","Three",2,5,"Switch",0,"Novel45",1,"Novel45",0,1291,"eyescenter",-1,0,1,0,(May 02 2014 16:20:05),3,TRUE,FALSE,2,TRUE
"459","A16SR2HQIWRFD6","May 02 2014","16:20:05",19,"No-Social","Three",2,6,"Same",1,"Novel17",1,"Novel17",1,1526,"eyescenter",-1,0,1,0,(May 02 2014 16:20:05),3,TRUE,FALSE,2,TRUE
"460","A16SR2HQIWRFD6","May 02 2014","16:20:05",20,"No-Social","Three",2,7,"Switch",0,"Novel115",1,"Novel115",0,877,"eyescenter",-1,0,1,0,(May 02 2014 16:20:05),3,TRUE,FALSE,2,TRUE
"461","A16TESTJICU76L","May 02 2014","15:51:12",1,"Social","Three",2,0,"Switch",1,"squirrel",0,"",0,4094,"eyescenter",-1,0,0,1,(May 02 2014 15:51:12),3,TRUE,FALSE,2,FALSE
"462","A16TESTJICU76L","May 02 2014","15:51:12",2,"Social","Three",2,0,"Switch",1,"squirrel",1,"",0,1549,"eyescenter",-1,0,0,1,(May 02 2014 15:51:12),3,TRUE,FALSE,2,FALSE
"463","A16TESTJICU76L","May 02 2014","15:51:12",3,"Social","Three",2,0,"Switch",1,"tomato",0,"",0,1054,"eyescenter",-1,0,0,1,(May 02 2014 15:51:12),3,TRUE,FALSE,2,FALSE
"464","A16TESTJICU76L","May 02 2014","15:51:12",4,"Social","Three",2,0,"Switch",1,"tomato",1,"",0,1104,"eyescenter",-1,0,0,1,(May 02 2014 15:51:12),3,TRUE,FALSE,2,FALSE
"465","A16TESTJICU76L","May 02 2014","15:51:12",5,"Social","Three",2,0,"Switch",1,"Novel28",1,"Novel138",0,1490,"eyes_down_right",1,1,0,0,(May 02 2014 15:51:12),3,TRUE,FALSE,2,FALSE
"466","A16TESTJICU76L","May 02 2014","15:51:12",6,"Social","Three",2,1,"Same",1,"Novel9",0,"Novel9",0,1462,"eyes_down_left",0,1,0,0,(May 02 2014 15:51:12),3,TRUE,FALSE,2,TRUE
"467","A16TESTJICU76L","May 02 2014","15:51:12",7,"Social","Three",2,2,"Switch",0,"Novel137",1,"Novel107",0,1191,"eyes_down_right",1,1,0,0,(May 02 2014 15:51:12),3,TRUE,FALSE,2,FALSE
"468","A16TESTJICU76L","May 02 2014","15:51:12",8,"Social","Three",2,3,"Same",0,"Novel60",1,"Novel60",1,1517,"eyes_down_right",1,1,0,0,(May 02 2014 15:51:12),3,TRUE,FALSE,2,TRUE
"469","A16TESTJICU76L","May 02 2014","15:51:12",9,"Social","Three",2,0,"Switch",1,"Novel138",0,"Novel138",0,1763,"eyescenter",-1,0,1,0,(May 02 2014 15:51:12),3,TRUE,TRUE,2,TRUE
"470","A16TESTJICU76L","May 02 2014","15:51:12",10,"Social","Three",2,1,"Same",1,"Novel9",0,"Novel9",0,1183,"eyescenter",-1,0,1,0,(May 02 2014 15:51:12),3,TRUE,FALSE,2,TRUE
"471","A16TESTJICU76L","May 02 2014","15:51:12",11,"Social","Three",2,2,"Switch",0,"Novel107",1,"Novel107",0,1116,"eyescenter",-1,0,1,0,(May 02 2014 15:51:12),3,TRUE,FALSE,2,TRUE
"472","A16TESTJICU76L","May 02 2014","15:51:12",12,"Social","Three",2,3,"Same",0,"Novel49",1,"Novel60",1,1311,"eyescenter",-1,0,1,0,(May 02 2014 15:51:12),3,TRUE,FALSE,2,FALSE
"473","A16TESTJICU76L","May 02 2014","15:51:12",13,"Social","Three",2,4,"Switch",1,"Novel86",0,"Novel59",1,1294,"eyes_down_left",0,1,0,0,(May 02 2014 15:51:12),3,TRUE,FALSE,2,FALSE
"474","A16TESTJICU76L","May 02 2014","15:51:12",14,"Social","Three",2,5,"Same",0,"Novel122",1,"Novel122",1,942,"eyes_down_right",1,1,0,0,(May 02 2014 15:51:12),3,TRUE,FALSE,2,TRUE
"475","A16TESTJICU76L","May 02 2014","15:51:12",15,"Social","Three",2,6,"Switch",0,"Novel136",0,"Novel54",1,1242,"eyes_down_right",1,1,0,0,(May 02 2014 15:51:12),3,TRUE,FALSE,2,FALSE
"476","A16TESTJICU76L","May 02 2014","15:51:12",16,"Social","Three",2,7,"Same",1,"Novel58",1,"Novel58",1,1080,"eyes_down_right",1,1,0,0,(May 02 2014 15:51:12),3,TRUE,FALSE,2,TRUE
"477","A16TESTJICU76L","May 02 2014","15:51:12",17,"Social","Three",2,4,"Switch",1,"Novel59",1,"Novel59",1,1805,"eyescenter",-1,0,1,0,(May 02 2014 15:51:12),3,TRUE,FALSE,2,TRUE
"478","A16TESTJICU76L","May 02 2014","15:51:12",18,"Social","Three",2,5,"Same",0,"Novel111",1,"Novel122",1,9515,"eyescenter",-1,0,1,0,(May 02 2014 15:51:12),3,TRUE,FALSE,2,FALSE
"479","A16TESTJICU76L","May 02 2014","15:51:12",19,"Social","Three",2,6,"Switch",0,"Novel27",1,"Novel54",1,1063,"eyescenter",-1,0,1,0,(May 02 2014 15:51:12),3,TRUE,FALSE,2,FALSE
"480","A16TESTJICU76L","May 02 2014","15:51:12",20,"Social","Three",2,7,"Same",1,"Novel70",0,"Novel58",1,1072,"eyescenter",-1,0,1,0,(May 02 2014 15:51:12),3,TRUE,FALSE,2,FALSE
"481","A16ZEIAJF8SKKP","May 02 2014","21:58:41",1,"No-Social","One",2,0,"Switch",0,"squirrel",0,"",0,2924,"eyescenter",-1,0,0,1,(May 02 2014 21:58:41),1,TRUE,FALSE,2,FALSE
"482","A16ZEIAJF8SKKP","May 02 2014","21:58:41",2,"No-Social","One",2,0,"Switch",0,"squirrel",1,"",0,1182,"eyescenter",-1,0,0,1,(May 02 2014 21:58:41),1,TRUE,FALSE,2,FALSE
"483","A16ZEIAJF8SKKP","May 02 2014","21:58:41",3,"No-Social","One",2,0,"Switch",0,"tomato",0,"",0,1064,"eyescenter",-1,0,0,1,(May 02 2014 21:58:41),1,TRUE,FALSE,2,FALSE
"484","A16ZEIAJF8SKKP","May 02 2014","21:58:41",4,"No-Social","One",2,0,"Switch",0,"tomato",1,"",0,953,"eyescenter",-1,0,0,1,(May 02 2014 21:58:41),1,TRUE,FALSE,2,FALSE
"485","A16ZEIAJF8SKKP","May 02 2014","21:58:41",5,"No-Social","One",2,0,"Switch",0,"Novel9",1,"Novel119",0,7989,"eyescenter",-1,1,0,0,(May 02 2014 21:58:41),1,TRUE,FALSE,2,FALSE
"486","A16ZEIAJF8SKKP","May 02 2014","21:58:41",6,"No-Social","One",2,1,"Same",1,"Novel60",0,"Novel60",0,5383,"eyescenter",-1,1,0,0,(May 02 2014 21:58:41),1,TRUE,FALSE,2,TRUE
"487","A16ZEIAJF8SKKP","May 02 2014","21:58:41",7,"No-Social","One",2,0,"Switch",0,"Novel119",1,"Novel119",0,2604,"eyescenter",-1,0,1,0,(May 02 2014 21:58:41),1,TRUE,TRUE,2,TRUE
"488","A16ZEIAJF8SKKP","May 02 2014","21:58:41",8,"No-Social","One",2,1,"Same",1,"Novel60",0,"Novel60",0,1087,"eyescenter",-1,0,1,0,(May 02 2014 21:58:41),1,TRUE,FALSE,2,TRUE
"489","A16ZEIAJF8SKKP","May 02 2014","21:58:41",9,"No-Social","One",2,2,"Switch",0,"Novel13",0,"Novel47",1,1856,"eyescenter",-1,1,0,0,(May 02 2014 21:58:41),1,TRUE,FALSE,2,FALSE
"490","A16ZEIAJF8SKKP","May 02 2014","21:58:41",10,"No-Social","One",2,3,"Same",0,"Novel74",1,"Novel74",1,2179,"eyescenter",-1,1,0,0,(May 02 2014 21:58:41),1,TRUE,FALSE,2,TRUE
"491","A16ZEIAJF8SKKP","May 02 2014","21:58:41",11,"No-Social","One",2,2,"Switch",0,"Novel47",0,"Novel47",1,817,"eyescenter",-1,0,1,0,(May 02 2014 21:58:41),1,TRUE,FALSE,2,TRUE
"492","A16ZEIAJF8SKKP","May 02 2014","21:58:41",12,"No-Social","One",2,3,"Same",0,"Novel74",0,"Novel74",1,859,"eyescenter",-1,0,1,0,(May 02 2014 21:58:41),1,TRUE,FALSE,2,TRUE
"493","A16ZEIAJF8SKKP","May 02 2014","21:58:41",13,"No-Social","One",2,4,"Switch",1,"Novel18",1,"Novel23",0,1449,"eyescenter",-1,1,0,0,(May 02 2014 21:58:41),1,TRUE,FALSE,2,FALSE
"494","A16ZEIAJF8SKKP","May 02 2014","21:58:41",14,"No-Social","One",2,5,"Same",1,"Novel91",0,"Novel91",0,1270,"eyescenter",-1,1,0,0,(May 02 2014 21:58:41),1,TRUE,FALSE,2,TRUE
"495","A16ZEIAJF8SKKP","May 02 2014","21:58:41",15,"No-Social","One",2,4,"Switch",1,"Novel23",0,"Novel23",0,722,"eyescenter",-1,0,1,0,(May 02 2014 21:58:41),1,TRUE,FALSE,2,TRUE
"496","A16ZEIAJF8SKKP","May 02 2014","21:58:41",16,"No-Social","One",2,5,"Same",1,"Novel91",0,"Novel91",0,407,"eyescenter",-1,0,1,0,(May 02 2014 21:58:41),1,TRUE,FALSE,2,TRUE
"497","A16ZEIAJF8SKKP","May 02 2014","21:58:41",17,"No-Social","One",2,6,"Switch",1,"Novel52",0,"Novel89",1,2347,"eyescenter",-1,1,0,0,(May 02 2014 21:58:41),1,TRUE,FALSE,2,FALSE
"498","A16ZEIAJF8SKKP","May 02 2014","21:58:41",18,"No-Social","One",2,7,"Same",0,"Novel133",1,"Novel133",1,757,"eyescenter",-1,1,0,0,(May 02 2014 21:58:41),1,TRUE,FALSE,2,TRUE
"499","A16ZEIAJF8SKKP","May 02 2014","21:58:41",19,"No-Social","One",2,6,"Switch",1,"Novel89",1,"Novel89",1,815,"eyescenter",-1,0,1,0,(May 02 2014 21:58:41),1,TRUE,FALSE,2,TRUE
"500","A16ZEIAJF8SKKP","May 02 2014","21:58:41",20,"No-Social","One",2,7,"Same",0,"Novel133",0,"Novel133",1,733,"eyescenter",-1,0,1,0,(May 02 2014 21:58:41),1,TRUE,FALSE,2,TRUE
"501","A177EXELDLWTWV","May 02 2014","11:22:55",1,"Social","Zero",2,0,"Same",1,"squirrel",0,"",0,4119,"eyescenter",-1,0,0,1,(May 02 2014 11:22:55),0,TRUE,FALSE,2,FALSE
"502","A177EXELDLWTWV","May 02 2014","11:22:55",2,"Social","Zero",2,0,"Same",1,"squirrel",1,"",0,1481,"eyescenter",-1,0,0,1,(May 02 2014 11:22:55),0,TRUE,FALSE,2,FALSE
"503","A177EXELDLWTWV","May 02 2014","11:22:55",3,"Social","Zero",2,0,"Same",1,"tomato",0,"",0,3851,"eyescenter",-1,0,0,1,(May 02 2014 11:22:55),0,TRUE,FALSE,2,FALSE
"504","A177EXELDLWTWV","May 02 2014","11:22:55",4,"Social","Zero",2,0,"Same",1,"tomato",1,"",0,915,"eyescenter",-1,0,0,1,(May 02 2014 11:22:55),0,TRUE,FALSE,2,FALSE
"505","A177EXELDLWTWV","May 02 2014","11:22:55",5,"Social","Zero",2,0,"Same",1,"Novel38",0,"Novel38",0,9685,"eyes_down_left",0,1,0,0,(May 02 2014 11:22:55),0,TRUE,FALSE,2,TRUE
"506","A177EXELDLWTWV","May 02 2014","11:22:55",6,"Social","Zero",2,0,"Same",1,"Novel38",0,"Novel38",0,3236,"eyescenter",-1,0,1,0,(May 02 2014 11:22:55),0,TRUE,TRUE,2,TRUE
"507","A177EXELDLWTWV","May 02 2014","11:22:55",7,"Social","Zero",2,1,"Switch",1,"Novel124",1,"Novel89",0,1268,"eyes_down_right",1,1,0,0,(May 02 2014 11:22:55),0,TRUE,FALSE,2,FALSE
"508","A177EXELDLWTWV","May 02 2014","11:22:55",8,"Social","Zero",2,1,"Switch",1,"Novel122",1,"Novel89",0,1554,"eyescenter",-1,0,1,0,(May 02 2014 11:22:55),0,TRUE,FALSE,2,FALSE
"509","A177EXELDLWTWV","May 02 2014","11:22:55",9,"Social","Zero",2,2,"Same",0,"Novel43",1,"Novel43",1,842,"eyes_down_right",1,1,0,0,(May 02 2014 11:22:55),0,TRUE,FALSE,2,TRUE
"510","A177EXELDLWTWV","May 02 2014","11:22:55",10,"Social","Zero",2,2,"Same",0,"Novel43",0,"Novel43",1,571,"eyescenter",-1,0,1,0,(May 02 2014 11:22:55),0,TRUE,FALSE,2,TRUE
"511","A177EXELDLWTWV","May 02 2014","11:22:55",11,"Social","Zero",2,3,"Switch",0,"Novel2",1,"Novel3",0,1108,"eyes_down_right",1,1,0,0,(May 02 2014 11:22:55),0,TRUE,FALSE,2,FALSE
"512","A177EXELDLWTWV","May 02 2014","11:22:55",12,"Social","Zero",2,3,"Switch",0,"Novel3",1,"Novel3",0,844,"eyescenter",-1,0,1,0,(May 02 2014 11:22:55),0,TRUE,FALSE,2,TRUE
"513","A177EXELDLWTWV","May 02 2014","11:22:55",13,"Social","Zero",2,4,"Same",1,"Novel138",1,"Novel138",1,658,"eyes_down_right",1,1,0,0,(May 02 2014 11:22:55),0,TRUE,FALSE,2,TRUE
"514","A177EXELDLWTWV","May 02 2014","11:22:55",14,"Social","Zero",2,4,"Same",1,"Novel138",1,"Novel138",1,684,"eyescenter",-1,0,1,0,(May 02 2014 11:22:55),0,TRUE,FALSE,2,TRUE
"515","A177EXELDLWTWV","May 02 2014","11:22:55",15,"Social","Zero",2,5,"Switch",1,"Novel36",1,"Novel69",0,940,"eyes_down_right",1,1,0,0,(May 02 2014 11:22:55),0,TRUE,FALSE,2,FALSE
"516","A177EXELDLWTWV","May 02 2014","11:22:55",16,"Social","Zero",2,5,"Switch",1,"Novel69",0,"Novel69",0,876,"eyescenter",-1,0,1,0,(May 02 2014 11:22:55),0,TRUE,FALSE,2,TRUE
"517","A177EXELDLWTWV","May 02 2014","11:22:55",17,"Social","Zero",2,6,"Same",0,"Novel61",0,"Novel61",0,877,"eyes_down_left",0,1,0,0,(May 02 2014 11:22:55),0,TRUE,FALSE,2,TRUE
"518","A177EXELDLWTWV","May 02 2014","11:22:55",18,"Social","Zero",2,6,"Same",0,"Novel61",1,"Novel61",0,1171,"eyescenter",-1,0,1,0,(May 02 2014 11:22:55),0,TRUE,FALSE,2,TRUE
"519","A177EXELDLWTWV","May 02 2014","11:22:55",19,"Social","Zero",2,7,"Switch",0,"Novel73",1,"Novel132",0,4284,"eyes_down_right",1,1,0,0,(May 02 2014 11:22:55),0,TRUE,FALSE,2,FALSE
"520","A177EXELDLWTWV","May 02 2014","11:22:55",20,"Social","Zero",2,7,"Switch",0,"Novel132",1,"Novel132",0,1884,"eyescenter",-1,0,1,0,(May 02 2014 11:22:55),0,TRUE,FALSE,2,TRUE
"521","A179OX1482SRXK","May 02 2014","12:48:04",1,"No-Social","Zero",2,0,"Switch",1,"squirrel",0,"",0,1444,"eyescenter",-1,0,0,1,(May 02 2014 12:48:04),0,TRUE,FALSE,2,FALSE
"522","A179OX1482SRXK","May 02 2014","12:48:04",2,"No-Social","Zero",2,0,"Switch",1,"squirrel",1,"",0,855,"eyescenter",-1,0,0,1,(May 02 2014 12:48:04),0,TRUE,FALSE,2,FALSE
"523","A179OX1482SRXK","May 02 2014","12:48:04",3,"No-Social","Zero",2,0,"Switch",1,"tomato",0,"",0,697,"eyescenter",-1,0,0,1,(May 02 2014 12:48:04),0,TRUE,FALSE,2,FALSE
"524","A179OX1482SRXK","May 02 2014","12:48:04",4,"No-Social","Zero",2,0,"Switch",1,"tomato",1,"",0,865,"eyescenter",-1,0,0,1,(May 02 2014 12:48:04),0,TRUE,FALSE,2,FALSE
"525","A179OX1482SRXK","May 02 2014","12:48:04",5,"No-Social","Zero",2,0,"Switch",1,"Novel72",0,"Novel140",1,2781,"eyescenter",-1,1,0,0,(May 02 2014 12:48:04),0,TRUE,FALSE,2,FALSE
"526","A179OX1482SRXK","May 02 2014","12:48:04",6,"No-Social","Zero",2,0,"Switch",1,"Novel140",1,"Novel140",1,2269,"eyescenter",-1,0,1,0,(May 02 2014 12:48:04),0,TRUE,TRUE,2,TRUE
"527","A179OX1482SRXK","May 02 2014","12:48:04",7,"No-Social","Zero",2,1,"Same",0,"Novel7",1,"Novel7",1,2426,"eyescenter",-1,1,0,0,(May 02 2014 12:48:04),0,TRUE,FALSE,2,TRUE
"528","A179OX1482SRXK","May 02 2014","12:48:04",8,"No-Social","Zero",2,1,"Same",0,"Novel7",0,"Novel7",1,1070,"eyescenter",-1,0,1,0,(May 02 2014 12:48:04),0,TRUE,FALSE,2,TRUE
"529","A179OX1482SRXK","May 02 2014","12:48:04",9,"No-Social","Zero",2,2,"Switch",1,"Novel131",1,"Novel61",0,7629,"eyescenter",-1,1,0,0,(May 02 2014 12:48:04),0,TRUE,FALSE,2,FALSE
"530","A179OX1482SRXK","May 02 2014","12:48:04",10,"No-Social","Zero",2,2,"Switch",1,"Novel61",0,"Novel61",0,1083,"eyescenter",-1,0,1,0,(May 02 2014 12:48:04),0,TRUE,FALSE,2,TRUE
"531","A179OX1482SRXK","May 02 2014","12:48:04",11,"No-Social","Zero",2,3,"Same",0,"Novel74",0,"Novel74",0,1814,"eyescenter",-1,1,0,0,(May 02 2014 12:48:04),0,TRUE,FALSE,2,TRUE
"532","A179OX1482SRXK","May 02 2014","12:48:04",12,"No-Social","Zero",2,3,"Same",0,"Novel74",1,"Novel74",0,941,"eyescenter",-1,0,1,0,(May 02 2014 12:48:04),0,TRUE,FALSE,2,TRUE
"533","A179OX1482SRXK","May 02 2014","12:48:04",13,"No-Social","Zero",2,4,"Switch",0,"Novel19",0,"Novel62",1,1279,"eyescenter",-1,1,0,0,(May 02 2014 12:48:04),0,TRUE,FALSE,2,FALSE
"534","A179OX1482SRXK","May 02 2014","12:48:04",14,"No-Social","Zero",2,4,"Switch",0,"Novel62",0,"Novel62",1,881,"eyescenter",-1,0,1,0,(May 02 2014 12:48:04),0,TRUE,FALSE,2,TRUE
"535","A179OX1482SRXK","May 02 2014","12:48:04",15,"No-Social","Zero",2,5,"Same",1,"Novel124",0,"Novel124",0,989,"eyescenter",-1,1,0,0,(May 02 2014 12:48:04),0,TRUE,FALSE,2,TRUE
"536","A179OX1482SRXK","May 02 2014","12:48:04",16,"No-Social","Zero",2,5,"Same",1,"Novel124",0,"Novel124",0,614,"eyescenter",-1,0,1,0,(May 02 2014 12:48:04),0,TRUE,FALSE,2,TRUE
"537","A179OX1482SRXK","May 02 2014","12:48:04",17,"No-Social","Zero",2,6,"Switch",0,"Novel101",1,"Novel122",0,1295,"eyescenter",-1,1,0,0,(May 02 2014 12:48:04),0,TRUE,FALSE,2,FALSE
"538","A179OX1482SRXK","May 02 2014","12:48:04",18,"No-Social","Zero",2,6,"Switch",0,"Novel122",1,"Novel122",0,893,"eyescenter",-1,0,1,0,(May 02 2014 12:48:04),0,TRUE,FALSE,2,TRUE
"539","A179OX1482SRXK","May 02 2014","12:48:04",19,"No-Social","Zero",2,7,"Same",1,"Novel102",1,"Novel102",1,1148,"eyescenter",-1,1,0,0,(May 02 2014 12:48:04),0,TRUE,FALSE,2,TRUE
"540","A179OX1482SRXK","May 02 2014","12:48:04",20,"No-Social","Zero",2,7,"Same",1,"Novel102",1,"Novel102",1,1036,"eyescenter",-1,0,1,0,(May 02 2014 12:48:04),0,TRUE,FALSE,2,TRUE
"541","A17ETOGOC5JF4I","May 02 2014","12:48:25",1,"No-Social","Zero",2,0,"Same",0,"squirrel",0,"",0,1419,"eyescenter",-1,0,0,1,(May 02 2014 12:48:25),0,TRUE,FALSE,2,FALSE
"542","A17ETOGOC5JF4I","May 02 2014","12:48:25",2,"No-Social","Zero",2,0,"Same",0,"squirrel",1,"",0,1435,"eyescenter",-1,0,0,1,(May 02 2014 12:48:25),0,TRUE,FALSE,2,FALSE
"543","A17ETOGOC5JF4I","May 02 2014","12:48:25",3,"No-Social","Zero",2,0,"Same",0,"tomato",0,"",0,889,"eyescenter",-1,0,0,1,(May 02 2014 12:48:25),0,TRUE,FALSE,2,FALSE
"544","A17ETOGOC5JF4I","May 02 2014","12:48:25",4,"No-Social","Zero",2,0,"Same",0,"tomato",1,"",0,483,"eyescenter",-1,0,0,1,(May 02 2014 12:48:25),0,TRUE,FALSE,2,FALSE
"545","A17ETOGOC5JF4I","May 02 2014","12:48:25",5,"No-Social","Zero",2,0,"Same",0,"Novel126",0,"Novel126",0,1685,"eyescenter",-1,1,0,0,(May 02 2014 12:48:25),0,TRUE,FALSE,2,TRUE
"546","A17ETOGOC5JF4I","May 02 2014","12:48:25",6,"No-Social","Zero",2,0,"Same",0,"Novel126",1,"Novel126",0,1263,"eyescenter",-1,0,1,0,(May 02 2014 12:48:25),0,TRUE,TRUE,2,TRUE
"547","A17ETOGOC5JF4I","May 02 2014","12:48:25",7,"No-Social","Zero",2,1,"Switch",1,"Novel75",0,"Novel28",1,1092,"eyescenter",-1,1,0,0,(May 02 2014 12:48:25),0,TRUE,FALSE,2,FALSE
"548","A17ETOGOC5JF4I","May 02 2014","12:48:25",8,"No-Social","Zero",2,1,"Switch",1,"Novel28",1,"Novel28",1,827,"eyescenter",-1,0,1,0,(May 02 2014 12:48:25),0,TRUE,FALSE,2,TRUE
"549","A17ETOGOC5JF4I","May 02 2014","12:48:25",9,"No-Social","Zero",2,2,"Same",1,"Novel3",0,"Novel3",0,1357,"eyescenter",-1,1,0,0,(May 02 2014 12:48:25),0,TRUE,FALSE,2,TRUE
"550","A17ETOGOC5JF4I","May 02 2014","12:48:25",10,"No-Social","Zero",2,2,"Same",1,"Novel3",0,"Novel3",0,991,"eyescenter",-1,0,1,0,(May 02 2014 12:48:25),0,TRUE,FALSE,2,TRUE
"551","A17ETOGOC5JF4I","May 02 2014","12:48:25",11,"No-Social","Zero",2,3,"Switch",0,"Novel33",0,"Novel46",1,1202,"eyescenter",-1,1,0,0,(May 02 2014 12:48:25),0,TRUE,FALSE,2,FALSE
"552","A17ETOGOC5JF4I","May 02 2014","12:48:25",12,"No-Social","Zero",2,3,"Switch",0,"Novel46",0,"Novel46",1,858,"eyescenter",-1,0,1,0,(May 02 2014 12:48:25),0,TRUE,FALSE,2,TRUE
"553","A17ETOGOC5JF4I","May 02 2014","12:48:25",13,"No-Social","Zero",2,4,"Same",1,"Novel42",1,"Novel42",1,827,"eyescenter",-1,1,0,0,(May 02 2014 12:48:25),0,TRUE,FALSE,2,TRUE
"554","A17ETOGOC5JF4I","May 02 2014","12:48:25",14,"No-Social","Zero",2,4,"Same",1,"Novel42",1,"Novel42",1,921,"eyescenter",-1,0,1,0,(May 02 2014 12:48:25),0,TRUE,FALSE,2,TRUE
"555","A17ETOGOC5JF4I","May 02 2014","12:48:25",15,"No-Social","Zero",2,5,"Switch",0,"Novel23",0,"Novel15",1,1061,"eyescenter",-1,1,0,0,(May 02 2014 12:48:25),0,TRUE,FALSE,2,FALSE
"556","A17ETOGOC5JF4I","May 02 2014","12:48:25",16,"No-Social","Zero",2,5,"Switch",0,"Novel22",1,"Novel15",1,234,"eyescenter",-1,0,1,0,(May 02 2014 12:48:25),0,TRUE,FALSE,2,FALSE
"557","A17ETOGOC5JF4I","May 02 2014","12:48:25",17,"No-Social","Zero",2,6,"Same",0,"Novel57",1,"Novel57",1,842,"eyescenter",-1,1,0,0,(May 02 2014 12:48:25),0,TRUE,FALSE,2,TRUE
"558","A17ETOGOC5JF4I","May 02 2014","12:48:25",18,"No-Social","Zero",2,6,"Same",0,"Novel57",0,"Novel57",1,280,"eyescenter",-1,0,1,0,(May 02 2014 12:48:25),0,TRUE,FALSE,2,TRUE
"559","A17ETOGOC5JF4I","May 02 2014","12:48:25",19,"No-Social","Zero",2,7,"Switch",1,"Novel12",1,"Novel34",0,1357,"eyescenter",-1,1,0,0,(May 02 2014 12:48:25),0,TRUE,FALSE,2,FALSE
"560","A17ETOGOC5JF4I","May 02 2014","12:48:25",20,"No-Social","Zero",2,7,"Switch",1,"Novel34",0,"Novel34",0,702,"eyescenter",-1,0,1,0,(May 02 2014 12:48:25),0,TRUE,FALSE,2,TRUE
"561","A17F803GEBD75P","May 02 2014","13:08:38",1,"No-Social","Three",2,0,"Same",1,"squirrel",0,"",0,2744,"eyescenter",-1,0,0,1,(May 02 2014 13:08:38),3,TRUE,FALSE,2,FALSE
"562","A17F803GEBD75P","May 02 2014","13:08:38",2,"No-Social","Three",2,0,"Same",1,"squirrel",1,"",0,5289,"eyescenter",-1,0,0,1,(May 02 2014 13:08:38),3,TRUE,FALSE,2,FALSE
"563","A17F803GEBD75P","May 02 2014","13:08:38",3,"No-Social","Three",2,0,"Same",1,"tomato",0,"",0,6406,"eyescenter",-1,0,0,1,(May 02 2014 13:08:38),3,TRUE,FALSE,2,FALSE
"564","A17F803GEBD75P","May 02 2014","13:08:38",4,"No-Social","Three",2,0,"Same",1,"tomato",1,"",0,1074,"eyescenter",-1,0,0,1,(May 02 2014 13:08:38),3,TRUE,FALSE,2,FALSE
"565","A17F803GEBD75P","May 02 2014","13:08:38",5,"No-Social","Three",2,0,"Same",1,"Novel46",1,"Novel46",1,2207,"eyescenter",-1,1,0,0,(May 02 2014 13:08:38),3,TRUE,FALSE,2,TRUE
"566","A17F803GEBD75P","May 02 2014","13:08:38",6,"No-Social","Three",2,1,"Switch",0,"Novel26",0,"Novel120",1,1789,"eyescenter",-1,1,0,0,(May 02 2014 13:08:38),3,TRUE,FALSE,2,FALSE
"567","A17F803GEBD75P","May 02 2014","13:08:38",7,"No-Social","Three",2,2,"Same",0,"Novel55",0,"Novel55",0,1257,"eyescenter",-1,1,0,0,(May 02 2014 13:08:38),3,TRUE,FALSE,2,TRUE
"568","A17F803GEBD75P","May 02 2014","13:08:38",8,"No-Social","Three",2,3,"Switch",0,"Novel42",1,"Novel12",0,1269,"eyescenter",-1,1,0,0,(May 02 2014 13:08:38),3,TRUE,FALSE,2,FALSE
"569","A17F803GEBD75P","May 02 2014","13:08:38",9,"No-Social","Three",2,0,"Same",1,"Novel46",1,"Novel46",1,1280,"eyescenter",-1,0,1,0,(May 02 2014 13:08:38),3,TRUE,TRUE,2,TRUE
"570","A17F803GEBD75P","May 02 2014","13:08:38",10,"No-Social","Three",2,1,"Switch",0,"Novel120",0,"Novel120",1,1716,"eyescenter",-1,0,1,0,(May 02 2014 13:08:38),3,TRUE,FALSE,2,TRUE
"571","A17F803GEBD75P","May 02 2014","13:08:38",11,"No-Social","Three",2,2,"Same",0,"Novel55",1,"Novel55",0,1051,"eyescenter",-1,0,1,0,(May 02 2014 13:08:38),3,TRUE,FALSE,2,TRUE
"572","A17F803GEBD75P","May 02 2014","13:08:38",12,"No-Social","Three",2,3,"Switch",0,"Novel5",0,"Novel12",0,904,"eyescenter",-1,0,1,0,(May 02 2014 13:08:38),3,TRUE,FALSE,2,FALSE
"573","A17F803GEBD75P","May 02 2014","13:08:38",13,"No-Social","Three",2,4,"Same",1,"Novel25",1,"Novel25",1,1324,"eyescenter",-1,1,0,0,(May 02 2014 13:08:38),3,TRUE,FALSE,2,TRUE
"574","A17F803GEBD75P","May 02 2014","13:08:38",14,"No-Social","Three",2,5,"Switch",1,"Novel98",1,"Novel1",0,1335,"eyescenter",-1,1,0,0,(May 02 2014 13:08:38),3,TRUE,FALSE,2,FALSE
"575","A17F803GEBD75P","May 02 2014","13:08:38",15,"No-Social","Three",2,6,"Same",0,"Novel66",0,"Novel66",0,1005,"eyescenter",-1,1,0,0,(May 02 2014 13:08:38),3,TRUE,FALSE,2,TRUE
"576","A17F803GEBD75P","May 02 2014","13:08:38",16,"No-Social","Three",2,7,"Switch",1,"Novel126",1,"Novel43",0,1251,"eyescenter",-1,1,0,0,(May 02 2014 13:08:38),3,TRUE,FALSE,2,FALSE
"577","A17F803GEBD75P","May 02 2014","13:08:38",17,"No-Social","Three",2,4,"Same",1,"Novel25",1,"Novel25",1,1478,"eyescenter",-1,0,1,0,(May 02 2014 13:08:38),3,TRUE,FALSE,2,TRUE
"578","A17F803GEBD75P","May 02 2014","13:08:38",18,"No-Social","Three",2,5,"Switch",1,"Novel87",1,"Novel1",0,1459,"eyescenter",-1,0,1,0,(May 02 2014 13:08:38),3,TRUE,FALSE,2,FALSE
"579","A17F803GEBD75P","May 02 2014","13:08:38",19,"No-Social","Three",2,6,"Same",0,"Novel66",1,"Novel66",0,966,"eyescenter",-1,0,1,0,(May 02 2014 13:08:38),3,TRUE,FALSE,2,TRUE
"580","A17F803GEBD75P","May 02 2014","13:08:38",20,"No-Social","Three",2,7,"Switch",1,"Novel68",1,"Novel43",0,930,"eyescenter",-1,0,1,0,(May 02 2014 13:08:38),3,TRUE,FALSE,2,FALSE
"581","A17T6TVHCLK3MH","May 02 2014","13:10:42",1,"No-Social","Three",2,0,"Switch",1,"squirrel",0,"",0,3625,"eyescenter",-1,0,0,1,(May 02 2014 13:10:42),3,TRUE,FALSE,2,FALSE
"582","A17T6TVHCLK3MH","May 02 2014","13:10:42",2,"No-Social","Three",2,0,"Switch",1,"squirrel",1,"",0,1824,"eyescenter",-1,0,0,1,(May 02 2014 13:10:42),3,TRUE,FALSE,2,FALSE
"583","A17T6TVHCLK3MH","May 02 2014","13:10:42",3,"No-Social","Three",2,0,"Switch",1,"tomato",0,"",0,1479,"eyescenter",-1,0,0,1,(May 02 2014 13:10:42),3,TRUE,FALSE,2,FALSE
"584","A17T6TVHCLK3MH","May 02 2014","13:10:42",4,"No-Social","Three",2,0,"Switch",1,"tomato",1,"",0,1626,"eyescenter",-1,0,0,1,(May 02 2014 13:10:42),3,TRUE,FALSE,2,FALSE
