"","subid","submit.time","trial.num","condition","interval","numPic","itemNum","trialType","samePos","chosen","chosenIdx","kept","keptIdx","rt","face","faceIdx","exposureTrial","testTrial","exampleTrial","intervalNum","include","first.trial","numPicN","correct"
"1","A10EEFN0OZB72L","12:46:43",1,"Social","One",6,0,"Switch",0,"squirrel",3,"",0,1826,"eyescenter",-1,0,0,1,1,TRUE,FALSE,6,FALSE
"2","A10EEFN0OZB72L","12:46:43",2,"Social","One",6,0,"Switch",0,"squirrel",1,"",0,1034,"eyescenter",-1,0,0,1,1,TRUE,FALSE,6,FALSE
"3","A10EEFN0OZB72L","12:46:43",3,"Social","One",6,0,"Switch",0,"tomato",4,"",0,1152,"eyescenter",-1,0,0,1,1,TRUE,FALSE,6,FALSE
"4","A10EEFN0OZB72L","12:46:43",4,"Social","One",6,0,"Switch",0,"tomato",0,"",0,1432,"eyescenter",-1,0,0,1,1,TRUE,FALSE,6,FALSE
"5","A10EEFN0OZB72L","12:46:43",5,"Social","One",6,0,"Switch",0,"Novel94",3,"Novel5",4,2779,"eyes_down_left",1,1,0,0,1,TRUE,FALSE,6,FALSE
"6","A10EEFN0OZB72L","12:46:43",6,"Social","One",6,1,"Same",1,"Novel123",4,"Novel123",4,1660,"eyes_down_right",2,1,0,0,1,TRUE,FALSE,6,TRUE
"7","A10EEFN0OZB72L","12:46:43",7,"Social","One",6,0,"Switch",0,"Novel48",2,"Novel5",4,4235,"eyescenter",-1,0,1,0,1,TRUE,TRUE,6,FALSE
"8","A10EEFN0OZB72L","12:46:43",8,"Social","One",6,1,"Same",1,"Novel123",4,"Novel123",4,1778,"eyescenter",-1,0,1,0,1,TRUE,FALSE,6,TRUE
"9","A10EEFN0OZB72L","12:46:43",9,"Social","One",6,2,"Switch",1,"Novel140",2,"Novel73",4,1359,"eyes_left",0,1,0,0,1,TRUE,FALSE,6,FALSE
"10","A10EEFN0OZB72L","12:46:43",10,"Social","One",6,3,"Same",1,"Novel61",1,"Novel61",1,1462,"eyes_right_90",5,1,0,0,1,TRUE,FALSE,6,TRUE
"11","A10EEFN0OZB72L","12:46:43",11,"Social","One",6,2,"Switch",1,"Novel53",0,"Novel73",4,1958,"eyescenter",-1,0,1,0,1,TRUE,FALSE,6,FALSE
"12","A10EEFN0OZB72L","12:46:43",12,"Social","One",6,3,"Same",1,"Novel61",1,"Novel61",1,1062,"eyescenter",-1,0,1,0,1,TRUE,FALSE,6,TRUE
"13","A10EEFN0OZB72L","12:46:43",13,"Social","One",6,4,"Switch",0,"Novel11",3,"Novel129",1,907,"eyes_down_left",1,1,0,0,1,TRUE,FALSE,6,FALSE
"14","A10EEFN0OZB72L","12:46:43",14,"Social","One",6,5,"Same",0,"Novel80",2,"Novel80",2,1476,"eyes_left",0,1,0,0,1,TRUE,FALSE,6,TRUE
"15","A10EEFN0OZB72L","12:46:43",15,"Social","One",6,4,"Switch",0,"Novel32",3,"Novel129",1,3257,"eyescenter",-1,0,1,0,1,TRUE,FALSE,6,FALSE
"16","A10EEFN0OZB72L","12:46:43",16,"Social","One",6,5,"Same",0,"Novel80",4,"Novel80",2,1276,"eyescenter",-1,0,1,0,1,TRUE,FALSE,6,TRUE
"17","A10EEFN0OZB72L","12:46:43",17,"Social","One",6,6,"Switch",1,"Novel24",4,"Novel85",5,857,"eyes_down_right",2,1,0,0,1,TRUE,FALSE,6,FALSE
"18","A10EEFN0OZB72L","12:46:43",18,"Social","One",6,7,"Same",0,"Novel58",2,"Novel58",2,1156,"eyes_left",0,1,0,0,1,TRUE,FALSE,6,TRUE
"19","A10EEFN0OZB72L","12:46:43",19,"Social","One",6,6,"Switch",1,"Novel137",4,"Novel85",5,1393,"eyescenter",-1,0,1,0,1,TRUE,FALSE,6,FALSE
"20","A10EEFN0OZB72L","12:46:43",20,"Social","One",6,7,"Same",0,"Novel58",0,"Novel58",2,2374,"eyescenter",-1,0,1,0,1,TRUE,FALSE,6,TRUE
"21","A11DPUCF844DPM","13:52:43",1,"Social","Zero",6,0,"Switch",1,"squirrel",3,"",0,1134,"eyescenter",-1,0,0,1,0,TRUE,FALSE,6,FALSE
"22","A11DPUCF844DPM","13:52:43",2,"Social","Zero",6,0,"Switch",1,"squirrel",1,"",0,1226,"eyescenter",-1,0,0,1,0,TRUE,FALSE,6,FALSE
"23","A11DPUCF844DPM","13:52:43",3,"Social","Zero",6,0,"Switch",1,"tomato",4,"",0,1281,"eyescenter",-1,0,0,1,0,TRUE,FALSE,6,FALSE
"24","A11DPUCF844DPM","13:52:43",4,"Social","Zero",6,0,"Switch",1,"tomato",0,"",0,3040,"eyescenter",-1,0,0,1,0,TRUE,FALSE,6,FALSE
"25","A11DPUCF844DPM","13:52:43",5,"Social","Zero",6,0,"Switch",1,"Novel102",4,"Novel119",1,2564,"eyes_down_right",2,1,0,0,0,TRUE,FALSE,6,FALSE
"26","A11DPUCF844DPM","13:52:43",6,"Social","Zero",6,0,"Switch",1,"Novel134",0,"Novel119",1,2820,"eyescenter",-1,0,1,0,0,TRUE,TRUE,6,FALSE
"27","A11DPUCF844DPM","13:52:43",7,"Social","Zero",6,1,"Same",0,"Novel8",5,"Novel8",5,2551,"eyes_right",3,1,0,0,0,TRUE,FALSE,6,TRUE
"28","A11DPUCF844DPM","13:52:43",8,"Social","Zero",6,1,"Same",0,"Novel8",4,"Novel8",5,833,"eyescenter",-1,0,1,0,0,TRUE,FALSE,6,TRUE
"29","A11DPUCF844DPM","13:52:43",9,"Social","Zero",6,2,"Switch",0,"Novel51",5,"Novel21",1,1135,"eyes_right",3,1,0,0,0,TRUE,FALSE,6,FALSE
"30","A11DPUCF844DPM","13:52:43",10,"Social","Zero",6,2,"Switch",0,"Novel30",1,"Novel21",1,5626,"eyescenter",-1,0,1,0,0,TRUE,FALSE,6,FALSE
"31","A11DPUCF844DPM","13:52:43",11,"Social","Zero",6,3,"Same",1,"Novel78",4,"Novel78",4,1734,"eyes_down_right",2,1,0,0,0,TRUE,FALSE,6,TRUE
"32","A11DPUCF844DPM","13:52:43",12,"Social","Zero",6,3,"Same",1,"Novel78",4,"Novel78",4,600,"eyescenter",-1,0,1,0,0,TRUE,FALSE,6,TRUE
"33","A11DPUCF844DPM","13:52:43",13,"Social","Zero",6,4,"Switch",0,"Novel111",0,"Novel94",3,1044,"eyes_left_90",4,1,0,0,0,TRUE,FALSE,6,FALSE
"34","A11DPUCF844DPM","13:52:43",14,"Social","Zero",6,4,"Switch",0,"Novel123",5,"Novel94",3,3489,"eyescenter",-1,0,1,0,0,TRUE,FALSE,6,FALSE
"35","A11DPUCF844DPM","13:52:43",15,"Social","Zero",6,5,"Same",1,"Novel67",1,"Novel67",1,1939,"eyes_right_90",5,1,0,0,0,TRUE,FALSE,6,TRUE
"36","A11DPUCF844DPM","13:52:43",16,"Social","Zero",6,5,"Same",1,"Novel67",1,"Novel67",1,538,"eyescenter",-1,0,1,0,0,TRUE,FALSE,6,TRUE
"37","A11DPUCF844DPM","13:52:43",17,"Social","Zero",6,6,"Switch",1,"Novel34",1,"Novel71",5,1668,"eyes_right_90",5,1,0,0,0,TRUE,FALSE,6,FALSE
"38","A11DPUCF844DPM","13:52:43",18,"Social","Zero",6,6,"Switch",1,"Novel93",2,"Novel71",5,983,"eyescenter",-1,0,1,0,0,TRUE,FALSE,6,FALSE
"39","A11DPUCF844DPM","13:52:43",19,"Social","Zero",6,7,"Same",0,"Novel80",1,"Novel80",1,805,"eyes_right_90",5,1,0,0,0,TRUE,FALSE,6,TRUE
"40","A11DPUCF844DPM","13:52:43",20,"Social","Zero",6,7,"Same",0,"Novel80",2,"Novel80",1,772,"eyescenter",-1,0,1,0,0,TRUE,FALSE,6,TRUE
"41","A11YOOX5ZN0Z9C","18:16:32",1,"Social","Zero",6,0,"Same",1,"squirrel",3,"",0,5334,"eyescenter",-1,0,0,1,0,TRUE,FALSE,6,FALSE
"42","A11YOOX5ZN0Z9C","18:16:32",2,"Social","Zero",6,0,"Same",1,"squirrel",1,"",0,7619,"eyescenter",-1,0,0,1,0,TRUE,FALSE,6,FALSE
"43","A11YOOX5ZN0Z9C","18:16:32",3,"Social","Zero",6,0,"Same",1,"tomato",4,"",0,1962,"eyescenter",-1,0,0,1,0,TRUE,FALSE,6,FALSE
"44","A11YOOX5ZN0Z9C","18:16:32",4,"Social","Zero",6,0,"Same",1,"tomato",0,"",0,1789,"eyescenter",-1,0,0,1,0,TRUE,FALSE,6,FALSE
"45","A11YOOX5ZN0Z9C","18:16:32",5,"Social","Zero",6,0,"Same",1,"Novel59",5,"Novel59",5,2789,"eyes_down_right",2,1,0,0,0,TRUE,FALSE,6,TRUE
"46","A11YOOX5ZN0Z9C","18:16:32",6,"Social","Zero",6,0,"Same",1,"Novel59",5,"Novel59",5,2064,"eyescenter",-1,0,1,0,0,TRUE,TRUE,6,TRUE
"47","A11YOOX5ZN0Z9C","18:16:32",7,"Social","Zero",6,1,"Switch",1,"Novel5",5,"Novel95",2,4293,"eyes_right",3,1,0,0,0,TRUE,FALSE,6,FALSE
"48","A11YOOX5ZN0Z9C","18:16:32",8,"Social","Zero",6,1,"Switch",1,"Novel95",2,"Novel95",2,6072,"eyescenter",-1,0,1,0,0,TRUE,FALSE,6,TRUE
"49","A11YOOX5ZN0Z9C","18:16:32",9,"Social","Zero",6,2,"Same",0,"Novel111",4,"Novel111",4,4217,"eyes_down_right",2,1,0,0,0,TRUE,FALSE,6,TRUE
"50","A11YOOX5ZN0Z9C","18:16:32",10,"Social","Zero",6,2,"Same",0,"Novel111",0,"Novel111",4,1668,"eyescenter",-1,0,1,0,0,TRUE,FALSE,6,TRUE
"51","A11YOOX5ZN0Z9C","18:16:32",11,"Social","Zero",6,3,"Switch",0,"Novel91",0,"Novel69",1,1583,"eyes_left_90",4,1,0,0,0,TRUE,FALSE,6,FALSE
"52","A11YOOX5ZN0Z9C","18:16:32",12,"Social","Zero",6,3,"Switch",0,"Novel128",4,"Novel69",1,3647,"eyescenter",-1,0,1,0,0,TRUE,FALSE,6,FALSE
"53","A11YOOX5ZN0Z9C","18:16:32",13,"Social","Zero",6,4,"Same",0,"Novel90",5,"Novel90",5,1859,"eyes_right",3,1,0,0,0,TRUE,FALSE,6,TRUE
"54","A11YOOX5ZN0Z9C","18:16:32",14,"Social","Zero",6,4,"Same",0,"Novel90",4,"Novel90",5,762,"eyescenter",-1,0,1,0,0,TRUE,FALSE,6,TRUE
"55","A11YOOX5ZN0Z9C","18:16:32",15,"Social","Zero",6,5,"Switch",1,"Novel7",2,"Novel17",5,2322,"eyes_left",0,1,0,0,0,TRUE,FALSE,6,FALSE
"56","A11YOOX5ZN0Z9C","18:16:32",16,"Social","Zero",6,5,"Switch",1,"Novel17",5,"Novel17",5,3881,"eyescenter",-1,0,1,0,0,TRUE,FALSE,6,TRUE
"57","A11YOOX5ZN0Z9C","18:16:32",17,"Social","Zero",6,6,"Same",1,"Novel6",0,"Novel6",0,1596,"eyes_left_90",4,1,0,0,0,TRUE,FALSE,6,TRUE
"58","A11YOOX5ZN0Z9C","18:16:32",18,"Social","Zero",6,6,"Same",1,"Novel6",0,"Novel6",0,471,"eyescenter",-1,0,1,0,0,TRUE,FALSE,6,TRUE
"59","A11YOOX5ZN0Z9C","18:16:32",19,"Social","Zero",6,7,"Switch",0,"Novel58",3,"Novel57",1,1606,"eyes_down_left",1,1,0,0,0,TRUE,FALSE,6,FALSE
"60","A11YOOX5ZN0Z9C","18:16:32",20,"Social","Zero",6,7,"Switch",0,"Novel135",5,"Novel57",1,3599,"eyescenter",-1,0,1,0,0,TRUE,FALSE,6,FALSE
"61","A123F7829DTAYZ","18:15:31",1,"Social","Seven",6,0,"Same",0,"squirrel",3,"",0,2472,"eyescenter",-1,0,0,1,7,TRUE,FALSE,6,FALSE
"62","A123F7829DTAYZ","18:15:31",2,"Social","Seven",6,0,"Same",0,"squirrel",1,"",0,1071,"eyescenter",-1,0,0,1,7,TRUE,FALSE,6,FALSE
"63","A123F7829DTAYZ","18:15:31",3,"Social","Seven",6,0,"Same",0,"tomato",4,"",0,1272,"eyescenter",-1,0,0,1,7,TRUE,FALSE,6,FALSE
"64","A123F7829DTAYZ","18:15:31",4,"Social","Seven",6,0,"Same",0,"tomato",0,"",0,1021,"eyescenter",-1,0,0,1,7,TRUE,FALSE,6,FALSE
"65","A123F7829DTAYZ","18:15:31",5,"Social","Seven",6,0,"Same",0,"Novel82",5,"Novel82",5,1924,"eyes_right",3,1,0,0,7,TRUE,FALSE,6,TRUE
"66","A123F7829DTAYZ","18:15:31",6,"Social","Seven",6,1,"Switch",1,"Novel89",5,"Novel138",0,1004,"eyes_right",3,1,0,0,7,TRUE,FALSE,6,FALSE
"67","A123F7829DTAYZ","18:15:31",7,"Social","Seven",6,2,"Same",1,"Novel9",1,"Novel9",1,926,"eyes_right_90",5,1,0,0,7,TRUE,FALSE,6,TRUE
"68","A123F7829DTAYZ","18:15:31",8,"Social","Seven",6,3,"Switch",1,"Novel77",2,"Novel99",0,1085,"eyes_left",0,1,0,0,7,TRUE,FALSE,6,FALSE
"69","A123F7829DTAYZ","18:15:31",9,"Social","Seven",6,4,"Same",1,"Novel35",1,"Novel35",1,611,"eyes_right_90",5,1,0,0,7,TRUE,FALSE,6,TRUE
"70","A123F7829DTAYZ","18:15:31",10,"Social","Seven",6,5,"Switch",0,"Novel66",4,"Novel136",2,560,"eyes_down_right",2,1,0,0,7,TRUE,FALSE,6,FALSE
"71","A123F7829DTAYZ","18:15:31",11,"Social","Seven",6,6,"Same",0,"Novel98",3,"Novel98",3,257,"eyes_down_left",1,1,0,0,7,TRUE,FALSE,6,TRUE
"72","A123F7829DTAYZ","18:15:31",12,"Social","Seven",6,7,"Switch",0,"Novel57",3,"Novel49",4,155,"eyes_down_left",1,1,0,0,7,TRUE,FALSE,6,FALSE
"73","A123F7829DTAYZ","18:15:31",13,"Social","Seven",6,0,"Same",0,"Novel82",3,"Novel82",5,1242,"eyescenter",-1,0,1,0,7,TRUE,TRUE,6,TRUE
"74","A123F7829DTAYZ","18:15:31",14,"Social","Seven",6,1,"Switch",1,"Novel17",3,"Novel138",0,3813,"eyescenter",-1,0,1,0,7,TRUE,FALSE,6,FALSE
"75","A123F7829DTAYZ","18:15:31",15,"Social","Seven",6,2,"Same",1,"Novel9",1,"Novel9",1,3459,"eyescenter",-1,0,1,0,7,TRUE,FALSE,6,TRUE
"76","A123F7829DTAYZ","18:15:31",16,"Social","Seven",6,3,"Switch",1,"Novel122",5,"Novel99",0,4737,"eyescenter",-1,0,1,0,7,TRUE,FALSE,6,FALSE
"77","A123F7829DTAYZ","18:15:31",17,"Social","Seven",6,4,"Same",1,"Novel106",2,"Novel35",1,3917,"eyescenter",-1,0,1,0,7,TRUE,FALSE,6,FALSE
"78","A123F7829DTAYZ","18:15:31",18,"Social","Seven",6,5,"Switch",0,"Novel15",2,"Novel136",2,2415,"eyescenter",-1,0,1,0,7,TRUE,FALSE,6,FALSE
"79","A123F7829DTAYZ","18:15:31",19,"Social","Seven",6,6,"Same",0,"Novel36",5,"Novel98",3,1932,"eyescenter",-1,0,1,0,7,TRUE,FALSE,6,FALSE
"80","A123F7829DTAYZ","18:15:31",20,"Social","Seven",6,7,"Switch",0,"Novel25",3,"Novel49",4,2262,"eyescenter",-1,0,1,0,7,TRUE,FALSE,6,FALSE
"81","A12C1M9UZ1DZ9H","21:55:12",1,"Social","Zero",6,0,"Switch",0,"squirrel",3,"",0,2568,"eyescenter",-1,0,0,1,0,TRUE,FALSE,6,FALSE
"82","A12C1M9UZ1DZ9H","21:55:12",2,"Social","Zero",6,0,"Switch",0,"squirrel",1,"",0,2461,"eyescenter",-1,0,0,1,0,TRUE,FALSE,6,FALSE
"83","A12C1M9UZ1DZ9H","21:55:12",3,"Social","Zero",6,0,"Switch",0,"tomato",4,"",0,3531,"eyescenter",-1,0,0,1,0,TRUE,FALSE,6,FALSE
"84","A12C1M9UZ1DZ9H","21:55:12",4,"Social","Zero",6,0,"Switch",0,"tomato",0,"",0,6032,"eyescenter",-1,0,0,1,0,TRUE,FALSE,6,FALSE
"85","A12C1M9UZ1DZ9H","21:55:12",5,"Social","Zero",6,0,"Switch",0,"Novel140",0,"Novel9",2,8300,"eyes_left_90",4,1,0,0,0,TRUE,FALSE,6,FALSE
"86","A12C1M9UZ1DZ9H","21:55:12",6,"Social","Zero",6,0,"Switch",0,"Novel62",5,"Novel9",2,7278,"eyescenter",-1,0,1,0,0,TRUE,TRUE,6,FALSE
"87","A12C1M9UZ1DZ9H","21:55:12",7,"Social","Zero",6,1,"Same",0,"Novel125",0,"Novel125",0,9421,"eyes_left_90",4,1,0,0,0,TRUE,FALSE,6,TRUE
"88","A12C1M9UZ1DZ9H","21:55:12",8,"Social","Zero",6,1,"Same",0,"Novel125",1,"Novel125",0,1398,"eyescenter",-1,0,1,0,0,TRUE,FALSE,6,TRUE
"89","A12C1M9UZ1DZ9H","21:55:12",9,"Social","Zero",6,2,"Switch",0,"Novel34",3,"Novel1",1,2601,"eyes_down_left",1,1,0,0,0,TRUE,FALSE,6,FALSE
"90","A12C1M9UZ1DZ9H","21:55:12",10,"Social","Zero",6,2,"Switch",0,"Novel124",1,"Novel1",1,9689,"eyescenter",-1,0,1,0,0,TRUE,FALSE,6,FALSE
"91","A12C1M9UZ1DZ9H","21:55:12",11,"Social","Zero",6,3,"Same",0,"Novel30",3,"Novel30",3,2522,"eyes_down_left",1,1,0,0,0,TRUE,FALSE,6,TRUE
"92","A12C1M9UZ1DZ9H","21:55:12",12,"Social","Zero",6,3,"Same",0,"Novel30",2,"Novel30",3,2031,"eyescenter",-1,0,1,0,0,TRUE,FALSE,6,TRUE
"93","A12C1M9UZ1DZ9H","21:55:12",13,"Social","Zero",6,4,"Switch",1,"Novel47",0,"Novel77",2,2247,"eyes_left_90",4,1,0,0,0,TRUE,FALSE,6,FALSE
"94","A12C1M9UZ1DZ9H","21:55:12",14,"Social","Zero",6,4,"Switch",1,"Novel89",1,"Novel77",2,8010,"eyescenter",-1,0,1,0,0,TRUE,FALSE,6,FALSE
"95","A12C1M9UZ1DZ9H","21:55:12",15,"Social","Zero",6,5,"Same",1,"Novel99",1,"Novel99",1,2049,"eyes_right_90",5,1,0,0,0,TRUE,FALSE,6,TRUE
"96","A12C1M9UZ1DZ9H","21:55:12",16,"Social","Zero",6,5,"Same",1,"Novel99",1,"Novel99",1,1048,"eyescenter",-1,0,1,0,0,TRUE,FALSE,6,TRUE
"97","A12C1M9UZ1DZ9H","21:55:12",17,"Social","Zero",6,6,"Switch",1,"Novel32",0,"Novel84",4,1735,"eyes_left_90",4,1,0,0,0,TRUE,FALSE,6,FALSE
"98","A12C1M9UZ1DZ9H","21:55:12",18,"Social","Zero",6,6,"Switch",1,"Novel23",1,"Novel84",4,1870,"eyescenter",-1,0,1,0,0,TRUE,FALSE,6,FALSE
"99","A12C1M9UZ1DZ9H","21:55:12",19,"Social","Zero",6,7,"Same",1,"Novel110",1,"Novel110",1,1568,"eyes_right_90",5,1,0,0,0,TRUE,FALSE,6,TRUE
"100","A12C1M9UZ1DZ9H","21:55:12",20,"Social","Zero",6,7,"Same",1,"Novel110",1,"Novel110",1,700,"eyescenter",-1,0,1,0,0,TRUE,FALSE,6,TRUE
"101","A12MSYRHI3XWDT","18:59:12",1,"Social","Three",6,0,"Same",1,"squirrel",3,"",0,2253,"eyescenter",-1,0,0,1,3,TRUE,FALSE,6,FALSE
"102","A12MSYRHI3XWDT","18:59:12",2,"Social","Three",6,0,"Same",1,"squirrel",1,"",0,1067,"eyescenter",-1,0,0,1,3,TRUE,FALSE,6,FALSE
"103","A12MSYRHI3XWDT","18:59:12",3,"Social","Three",6,0,"Same",1,"tomato",4,"",0,1631,"eyescenter",-1,0,0,1,3,TRUE,FALSE,6,FALSE
"104","A12MSYRHI3XWDT","18:59:12",4,"Social","Three",6,0,"Same",1,"tomato",0,"",0,1448,"eyescenter",-1,0,0,1,3,TRUE,FALSE,6,FALSE
"105","A12MSYRHI3XWDT","18:59:12",5,"Social","Three",6,0,"Same",1,"Novel7",3,"Novel7",3,4490,"eyes_down_left",1,1,0,0,3,TRUE,FALSE,6,TRUE
"106","A12MSYRHI3XWDT","18:59:12",6,"Social","Three",6,1,"Switch",1,"Novel34",3,"Novel133",0,2359,"eyes_down_left",1,1,0,0,3,TRUE,FALSE,6,FALSE
"107","A12MSYRHI3XWDT","18:59:12",7,"Social","Three",6,2,"Same",1,"Novel36",3,"Novel36",3,4212,"eyes_down_left",1,1,0,0,3,TRUE,FALSE,6,TRUE
"108","A12MSYRHI3XWDT","18:59:12",8,"Social","Three",6,3,"Switch",0,"Novel126",2,"Novel42",5,1574,"eyes_left",0,1,0,0,3,TRUE,FALSE,6,FALSE
"109","A12MSYRHI3XWDT","18:59:12",9,"Social","Three",6,0,"Same",1,"Novel7",3,"Novel7",3,1816,"eyescenter",-1,0,1,0,3,TRUE,TRUE,6,TRUE
"110","A12MSYRHI3XWDT","18:59:12",10,"Social","Three",6,1,"Switch",1,"Novel111",4,"Novel133",0,4387,"eyescenter",-1,0,1,0,3,TRUE,FALSE,6,FALSE
"111","A12MSYRHI3XWDT","18:59:12",11,"Social","Three",6,2,"Same",1,"Novel106",2,"Novel36",3,10261,"eyescenter",-1,0,1,0,3,TRUE,FALSE,6,FALSE
"112","A12MSYRHI3XWDT","18:59:12",12,"Social","Three",6,3,"Switch",0,"Novel24",4,"Novel42",5,3285,"eyescenter",-1,0,1,0,3,TRUE,FALSE,6,FALSE
"113","A12MSYRHI3XWDT","18:59:12",13,"Social","Three",6,4,"Same",0,"Novel70",4,"Novel70",4,1160,"eyes_down_right",2,1,0,0,3,TRUE,FALSE,6,TRUE
"114","A12MSYRHI3XWDT","18:59:12",14,"Social","Three",6,5,"Switch",0,"Novel84",0,"Novel123",5,437,"eyes_left_90",4,1,0,0,3,TRUE,FALSE,6,FALSE
"115","A12MSYRHI3XWDT","18:59:12",15,"Social","Three",6,6,"Same",0,"Novel3",2,"Novel3",2,1161,"eyes_left",0,1,0,0,3,TRUE,FALSE,6,TRUE
"116","A12MSYRHI3XWDT","18:59:12",16,"Social","Three",6,7,"Switch",1,"Novel40",1,"Novel121",2,1495,"eyes_right_90",5,1,0,0,3,TRUE,FALSE,6,FALSE
"117","A12MSYRHI3XWDT","18:59:12",17,"Social","Three",6,4,"Same",0,"Novel15",4,"Novel70",4,3674,"eyescenter",-1,0,1,0,3,TRUE,FALSE,6,FALSE
"118","A12MSYRHI3XWDT","18:59:12",18,"Social","Three",6,5,"Switch",0,"Novel25",3,"Novel123",5,2633,"eyescenter",-1,0,1,0,3,TRUE,FALSE,6,FALSE
"119","A12MSYRHI3XWDT","18:59:12",19,"Social","Three",6,6,"Same",0,"Novel3",0,"Novel3",2,4922,"eyescenter",-1,0,1,0,3,TRUE,FALSE,6,TRUE
"120","A12MSYRHI3XWDT","18:59:12",20,"Social","Three",6,7,"Switch",1,"Novel63",5,"Novel121",2,4820,"eyescenter",-1,0,1,0,3,TRUE,FALSE,6,FALSE
"121","A12ZPHBEIHN8U7","09:36:11",1,"No-Social","Zero",6,0,"Same",1,"squirrel",3,"",0,1346,"eyescenter",-1,0,0,1,0,TRUE,FALSE,6,FALSE
"122","A12ZPHBEIHN8U7","09:36:11",2,"No-Social","Zero",6,0,"Same",1,"squirrel",1,"",0,1123,"eyescenter",-1,0,0,1,0,TRUE,FALSE,6,FALSE
"123","A12ZPHBEIHN8U7","09:36:11",3,"No-Social","Zero",6,0,"Same",1,"tomato",4,"",0,961,"eyescenter",-1,0,0,1,0,TRUE,FALSE,6,FALSE
"124","A12ZPHBEIHN8U7","09:36:11",4,"No-Social","Zero",6,0,"Same",1,"tomato",0,"",0,969,"eyescenter",-1,0,0,1,0,TRUE,FALSE,6,FALSE
"125","A12ZPHBEIHN8U7","09:36:11",5,"No-Social","Zero",6,0,"Same",1,"Novel114",2,"Novel114",2,3852,"eyescenter",-1,1,0,0,0,TRUE,FALSE,6,TRUE
"126","A12ZPHBEIHN8U7","09:36:11",6,"No-Social","Zero",6,0,"Same",1,"Novel114",2,"Novel114",2,2186,"eyescenter",-1,0,1,0,0,TRUE,TRUE,6,TRUE
"127","A12ZPHBEIHN8U7","09:36:11",7,"No-Social","Zero",6,1,"Switch",0,"Novel87",3,"Novel126",0,5137,"eyescenter",-1,1,0,0,0,TRUE,FALSE,6,FALSE
"128","A12ZPHBEIHN8U7","09:36:11",8,"No-Social","Zero",6,1,"Switch",0,"Novel28",0,"Novel126",0,5514,"eyescenter",-1,0,1,0,0,TRUE,FALSE,6,FALSE
"129","A12ZPHBEIHN8U7","09:36:11",9,"No-Social","Zero",6,2,"Same",0,"Novel89",3,"Novel89",3,2988,"eyescenter",-1,1,0,0,0,TRUE,FALSE,6,TRUE
"130","A12ZPHBEIHN8U7","09:36:11",10,"No-Social","Zero",6,2,"Same",0,"Novel89",5,"Novel89",3,1572,"eyescenter",-1,0,1,0,0,TRUE,FALSE,6,TRUE
"131","A12ZPHBEIHN8U7","09:36:11",11,"No-Social","Zero",6,3,"Switch",1,"Novel92",3,"Novel111",0,3371,"eyescenter",-1,1,0,0,0,TRUE,FALSE,6,FALSE
"132","A12ZPHBEIHN8U7","09:36:11",12,"No-Social","Zero",6,3,"Switch",1,"Novel31",4,"Novel111",0,5085,"eyescenter",-1,0,1,0,0,TRUE,FALSE,6,FALSE
"133","A12ZPHBEIHN8U7","09:36:11",13,"No-Social","Zero",6,4,"Same",1,"Novel30",5,"Novel30",5,3001,"eyescenter",-1,1,0,0,0,TRUE,FALSE,6,TRUE
"134","A12ZPHBEIHN8U7","09:36:11",14,"No-Social","Zero",6,4,"Same",1,"Novel30",5,"Novel30",5,1459,"eyescenter",-1,0,1,0,0,TRUE,FALSE,6,TRUE
"135","A12ZPHBEIHN8U7","09:36:11",15,"No-Social","Zero",6,5,"Switch",0,"Novel134",3,"Novel40",2,4822,"eyescenter",-1,1,0,0,0,TRUE,FALSE,6,FALSE
"136","A12ZPHBEIHN8U7","09:36:11",16,"No-Social","Zero",6,5,"Switch",0,"Novel73",5,"Novel40",2,4179,"eyescenter",-1,0,1,0,0,TRUE,FALSE,6,FALSE
"137","A12ZPHBEIHN8U7","09:36:11",17,"No-Social","Zero",6,6,"Same",0,"Novel27",1,"Novel27",1,1817,"eyescenter",-1,1,0,0,0,TRUE,FALSE,6,TRUE
"138","A12ZPHBEIHN8U7","09:36:11",18,"No-Social","Zero",6,6,"Same",0,"Novel27",0,"Novel27",1,970,"eyescenter",-1,0,1,0,0,TRUE,FALSE,6,TRUE
"139","A12ZPHBEIHN8U7","09:36:11",19,"No-Social","Zero",6,7,"Switch",1,"Novel132",2,"Novel82",0,2835,"eyescenter",-1,1,0,0,0,TRUE,FALSE,6,FALSE
"140","A12ZPHBEIHN8U7","09:36:11",20,"No-Social","Zero",6,7,"Switch",1,"Novel82",0,"Novel82",0,2349,"eyescenter",-1,0,1,0,0,TRUE,FALSE,6,TRUE
"141","A13J6BEMIPNEH6","20:45:36",1,"Social","Three",6,0,"Switch",0,"squirrel",3,"",0,3430,"eyescenter",-1,0,0,1,3,TRUE,FALSE,6,FALSE
"142","A13J6BEMIPNEH6","20:45:36",2,"Social","Three",6,0,"Switch",0,"squirrel",1,"",0,1860,"eyescenter",-1,0,0,1,3,TRUE,FALSE,6,FALSE
"143","A13J6BEMIPNEH6","20:45:36",3,"Social","Three",6,0,"Switch",0,"tomato",4,"",0,2051,"eyescenter",-1,0,0,1,3,TRUE,FALSE,6,FALSE
"144","A13J6BEMIPNEH6","20:45:36",4,"Social","Three",6,0,"Switch",0,"tomato",0,"",0,1483,"eyescenter",-1,0,0,1,3,TRUE,FALSE,6,FALSE
"145","A13J6BEMIPNEH6","20:45:36",5,"Social","Three",6,0,"Switch",0,"Novel34",4,"Novel69",0,1460,"eyes_down_right",2,1,0,0,3,TRUE,FALSE,6,FALSE
"146","A13J6BEMIPNEH6","20:45:36",6,"Social","Three",6,1,"Same",0,"Novel88",3,"Novel88",3,1897,"eyes_down_left",1,1,0,0,3,TRUE,FALSE,6,TRUE
"147","A13J6BEMIPNEH6","20:45:36",7,"Social","Three",6,2,"Switch",1,"Novel124",2,"Novel21",1,1953,"eyes_left",0,1,0,0,3,TRUE,FALSE,6,FALSE
"148","A13J6BEMIPNEH6","20:45:36",8,"Social","Three",6,3,"Same",1,"Novel80",4,"Novel80",4,1968,"eyes_down_right",2,1,0,0,3,TRUE,FALSE,6,TRUE
"149","A13J6BEMIPNEH6","20:45:36",9,"Social","Three",6,0,"Switch",0,"Novel105",0,"Novel69",0,12706,"eyescenter",-1,0,1,0,3,TRUE,TRUE,6,FALSE
"150","A13J6BEMIPNEH6","20:45:36",10,"Social","Three",6,1,"Same",0,"Novel88",2,"Novel88",3,1496,"eyescenter",-1,0,1,0,3,TRUE,FALSE,6,TRUE
"151","A13J6BEMIPNEH6","20:45:36",11,"Social","Three",6,2,"Switch",1,"Novel21",1,"Novel21",1,4787,"eyescenter",-1,0,1,0,3,TRUE,FALSE,6,TRUE
"152","A13J6BEMIPNEH6","20:45:36",12,"Social","Three",6,3,"Same",1,"Novel80",4,"Novel80",4,982,"eyescenter",-1,0,1,0,3,TRUE,FALSE,6,TRUE
"153","A13J6BEMIPNEH6","20:45:36",13,"Social","Three",6,4,"Switch",0,"Novel90",2,"Novel126",1,2432,"eyes_left",0,1,0,0,3,TRUE,FALSE,6,FALSE
"154","A13J6BEMIPNEH6","20:45:36",14,"Social","Three",6,5,"Same",0,"Novel39",4,"Novel39",4,2230,"eyes_down_right",2,1,0,0,3,TRUE,FALSE,6,TRUE
"155","A13J6BEMIPNEH6","20:45:36",15,"Social","Three",6,6,"Switch",1,"Novel1",0,"Novel129",2,1655,"eyes_left_90",4,1,0,0,3,TRUE,FALSE,6,FALSE
"156","A13J6BEMIPNEH6","20:45:36",16,"Social","Three",6,7,"Same",1,"Novel58",4,"Novel58",4,1036,"eyes_down_right",2,1,0,0,3,TRUE,FALSE,6,TRUE
"157","A13J6BEMIPNEH6","20:45:36",17,"Social","Three",6,4,"Switch",0,"Novel52",2,"Novel126",1,1416,"eyescenter",-1,0,1,0,3,TRUE,FALSE,6,FALSE
"158","A13J6BEMIPNEH6","20:45:36",18,"Social","Three",6,5,"Same",0,"Novel39",0,"Novel39",4,2777,"eyescenter",-1,0,1,0,3,TRUE,FALSE,6,TRUE
"159","A13J6BEMIPNEH6","20:45:36",19,"Social","Three",6,6,"Switch",1,"Novel129",2,"Novel129",2,7323,"eyescenter",-1,0,1,0,3,TRUE,FALSE,6,TRUE
"160","A13J6BEMIPNEH6","20:45:36",20,"Social","Three",6,7,"Same",1,"Novel64",1,"Novel58",4,1681,"eyescenter",-1,0,1,0,3,TRUE,FALSE,6,FALSE
"161","A149MN8UN8O976","19:48:20",1,"Social","Zero",6,0,"Same",1,"squirrel",3,"",0,5930,"eyescenter",-1,0,0,1,0,TRUE,FALSE,6,FALSE
"162","A149MN8UN8O976","19:48:20",2,"Social","Zero",6,0,"Same",1,"squirrel",1,"",0,2081,"eyescenter",-1,0,0,1,0,TRUE,FALSE,6,FALSE
"163","A149MN8UN8O976","19:48:20",3,"Social","Zero",6,0,"Same",1,"tomato",4,"",0,1949,"eyescenter",-1,0,0,1,0,TRUE,FALSE,6,FALSE
"164","A149MN8UN8O976","19:48:20",4,"Social","Zero",6,0,"Same",1,"tomato",0,"",0,2147,"eyescenter",-1,0,0,1,0,TRUE,FALSE,6,FALSE
"165","A149MN8UN8O976","19:48:20",5,"Social","Zero",6,0,"Same",1,"Novel135",1,"Novel135",1,11132,"eyes_down_left",1,1,0,0,0,TRUE,FALSE,6,TRUE
"166","A149MN8UN8O976","19:48:20",6,"Social","Zero",6,0,"Same",1,"Novel135",1,"Novel135",1,2430,"eyescenter",-1,0,1,0,0,TRUE,TRUE,6,TRUE
"167","A149MN8UN8O976","19:48:20",7,"Social","Zero",6,1,"Switch",0,"Novel34",5,"Novel76",3,5343,"eyes_right_90",5,1,0,0,0,TRUE,FALSE,6,FALSE
"168","A149MN8UN8O976","19:48:20",8,"Social","Zero",6,1,"Switch",0,"Novel22",4,"Novel76",3,4483,"eyescenter",-1,0,1,0,0,TRUE,FALSE,6,FALSE
"169","A149MN8UN8O976","19:48:20",9,"Social","Zero",6,2,"Same",0,"Novel68",3,"Novel68",3,4899,"eyes_right_90",5,1,0,0,0,TRUE,FALSE,6,TRUE
"170","A149MN8UN8O976","19:48:20",10,"Social","Zero",6,2,"Same",0,"Novel68",2,"Novel68",3,887,"eyescenter",-1,0,1,0,0,TRUE,FALSE,6,TRUE
"171","A149MN8UN8O976","19:48:20",11,"Social","Zero",6,3,"Switch",0,"Novel63",1,"Novel85",5,9291,"eyes_right",3,1,0,0,0,TRUE,FALSE,6,FALSE
"172","A149MN8UN8O976","19:48:20",12,"Social","Zero",6,3,"Switch",0,"Novel72",1,"Novel85",5,3116,"eyescenter",-1,0,1,0,0,TRUE,FALSE,6,FALSE
"173","A149MN8UN8O976","19:48:20",13,"Social","Zero",6,4,"Same",0,"Novel84",1,"Novel84",1,5030,"eyes_left_90",4,1,0,0,0,TRUE,FALSE,6,TRUE
"174","A149MN8UN8O976","19:48:20",14,"Social","Zero",6,4,"Same",0,"Novel84",3,"Novel84",1,812,"eyescenter",-1,0,1,0,0,TRUE,FALSE,6,TRUE
"175","A149MN8UN8O976","19:48:20",15,"Social","Zero",6,5,"Switch",1,"Novel50",2,"Novel31",4,5577,"eyes_right_90",5,1,0,0,0,TRUE,FALSE,6,FALSE
"176","A149MN8UN8O976","19:48:20",16,"Social","Zero",6,5,"Switch",1,"Novel31",4,"Novel31",4,8029,"eyescenter",-1,0,1,0,0,TRUE,FALSE,6,TRUE
"177","A149MN8UN8O976","19:48:20",17,"Social","Zero",6,6,"Same",1,"Novel136",1,"Novel136",1,3399,"eyes_right",3,1,0,0,0,TRUE,FALSE,6,TRUE
"178","A149MN8UN8O976","19:48:20",18,"Social","Zero",6,6,"Same",1,"Novel136",1,"Novel136",1,1064,"eyescenter",-1,0,1,0,0,TRUE,FALSE,6,TRUE
"179","A149MN8UN8O976","19:48:20",19,"Social","Zero",6,7,"Switch",1,"Novel109",1,"Novel1",2,7197,"eyes_left_90",4,1,0,0,0,TRUE,FALSE,6,FALSE
"180","A149MN8UN8O976","19:48:20",20,"Social","Zero",6,7,"Switch",1,"Novel1",2,"Novel1",2,1862,"eyescenter",-1,0,1,0,0,TRUE,FALSE,6,TRUE
"181","A14BL06GWX2Y9L","17:59:04",1,"No-Social","Zero",6,0,"Same",0,"squirrel",3,"",0,2736,"eyescenter",-1,0,0,1,0,TRUE,FALSE,6,FALSE
"182","A14BL06GWX2Y9L","17:59:04",2,"No-Social","Zero",6,0,"Same",0,"squirrel",1,"",0,2296,"eyescenter",-1,0,0,1,0,TRUE,FALSE,6,FALSE
"183","A14BL06GWX2Y9L","17:59:04",3,"No-Social","Zero",6,0,"Same",0,"tomato",4,"",0,3850,"eyescenter",-1,0,0,1,0,TRUE,FALSE,6,FALSE
"184","A14BL06GWX2Y9L","17:59:04",4,"No-Social","Zero",6,0,"Same",0,"tomato",0,"",0,1233,"eyescenter",-1,0,0,1,0,TRUE,FALSE,6,FALSE
"185","A14BL06GWX2Y9L","17:59:04",5,"No-Social","Zero",6,0,"Same",0,"Novel62",4,"Novel62",4,8421,"eyescenter",-1,1,0,0,0,TRUE,FALSE,6,TRUE
"186","A14BL06GWX2Y9L","17:59:04",6,"No-Social","Zero",6,0,"Same",0,"Novel62",2,"Novel62",4,1890,"eyescenter",-1,0,1,0,0,TRUE,TRUE,6,TRUE
"187","A14BL06GWX2Y9L","17:59:04",7,"No-Social","Zero",6,1,"Switch",1,"Novel85",2,"Novel39",1,4906,"eyescenter",-1,1,0,0,0,TRUE,FALSE,6,FALSE
"188","A14BL06GWX2Y9L","17:59:04",8,"No-Social","Zero",6,1,"Switch",1,"Novel68",0,"Novel39",1,4361,"eyescenter",-1,0,1,0,0,TRUE,FALSE,6,FALSE
"189","A14BL06GWX2Y9L","17:59:04",9,"No-Social","Zero",6,2,"Same",1,"Novel134",1,"Novel134",1,9972,"eyescenter",-1,1,0,0,0,TRUE,FALSE,6,TRUE
"190","A14BL06GWX2Y9L","17:59:04",10,"No-Social","Zero",6,2,"Same",1,"Novel134",1,"Novel134",1,974,"eyescenter",-1,0,1,0,0,TRUE,FALSE,6,TRUE
"191","A14BL06GWX2Y9L","17:59:04",11,"No-Social","Zero",6,3,"Switch",0,"Novel81",2,"Novel57",5,4239,"eyescenter",-1,1,0,0,0,TRUE,FALSE,6,FALSE
"192","A14BL06GWX2Y9L","17:59:04",12,"No-Social","Zero",6,3,"Switch",0,"Novel57",2,"Novel57",5,5585,"eyescenter",-1,0,1,0,0,TRUE,FALSE,6,TRUE
"193","A14BL06GWX2Y9L","17:59:04",13,"No-Social","Zero",6,4,"Same",0,"Novel27",4,"Novel27",4,11522,"eyescenter",-1,1,0,0,0,TRUE,FALSE,6,TRUE
"194","A14BL06GWX2Y9L","17:59:04",14,"No-Social","Zero",6,4,"Same",0,"Novel27",5,"Novel27",4,1177,"eyescenter",-1,0,1,0,0,TRUE,FALSE,6,TRUE
"195","A14BL06GWX2Y9L","17:59:04",15,"No-Social","Zero",6,5,"Switch",1,"Novel101",0,"Novel131",4,1835,"eyescenter",-1,1,0,0,0,TRUE,FALSE,6,FALSE
"196","A14BL06GWX2Y9L","17:59:04",16,"No-Social","Zero",6,5,"Switch",1,"Novel80",2,"Novel131",4,1500,"eyescenter",-1,0,1,0,0,TRUE,FALSE,6,FALSE
"197","A14BL06GWX2Y9L","17:59:04",17,"No-Social","Zero",6,6,"Same",1,"Novel124",4,"Novel124",4,2139,"eyescenter",-1,1,0,0,0,TRUE,FALSE,6,TRUE
"198","A14BL06GWX2Y9L","17:59:04",18,"No-Social","Zero",6,6,"Same",1,"Novel124",4,"Novel124",4,1008,"eyescenter",-1,0,1,0,0,TRUE,FALSE,6,TRUE
"199","A14BL06GWX2Y9L","17:59:04",19,"No-Social","Zero",6,7,"Switch",0,"Novel16",0,"Novel15",2,1986,"eyescenter",-1,1,0,0,0,TRUE,FALSE,6,FALSE
"200","A14BL06GWX2Y9L","17:59:04",20,"No-Social","Zero",6,7,"Switch",0,"Novel56",4,"Novel15",2,1794,"eyescenter",-1,0,1,0,0,TRUE,FALSE,6,FALSE
"201","A14BVED75ZFI4O","08:12:28",1,"Social","Seven",6,0,"Switch",1,"squirrel",3,"",0,5640,"eyescenter",-1,0,0,1,7,TRUE,FALSE,6,FALSE
"202","A14BVED75ZFI4O","08:12:28",2,"Social","Seven",6,0,"Switch",1,"squirrel",1,"",0,2526,"eyescenter",-1,0,0,1,7,TRUE,FALSE,6,FALSE
"203","A14BVED75ZFI4O","08:12:28",3,"Social","Seven",6,0,"Switch",1,"tomato",4,"",0,1735,"eyescenter",-1,0,0,1,7,TRUE,FALSE,6,FALSE
"204","A14BVED75ZFI4O","08:12:28",4,"Social","Seven",6,0,"Switch",1,"tomato",0,"",0,1098,"eyescenter",-1,0,0,1,7,TRUE,FALSE,6,FALSE
"205","A14BVED75ZFI4O","08:12:28",5,"Social","Seven",6,0,"Switch",1,"Novel85",1,"Novel56",3,2684,"eyes_right",3,1,0,0,7,TRUE,FALSE,6,FALSE
"206","A14BVED75ZFI4O","08:12:28",6,"Social","Seven",6,1,"Same",1,"Novel127",2,"Novel127",2,1972,"eyes_left",0,1,0,0,7,TRUE,FALSE,6,TRUE
"207","A14BVED75ZFI4O","08:12:28",7,"Social","Seven",6,2,"Switch",1,"Novel3",2,"Novel96",5,1158,"eyes_left",0,1,0,0,7,TRUE,FALSE,6,FALSE
"208","A14BVED75ZFI4O","08:12:28",8,"Social","Seven",6,3,"Same",0,"Novel49",3,"Novel49",3,1785,"eyes_down_left",1,1,0,0,7,TRUE,FALSE,6,TRUE
"209","A14BVED75ZFI4O","08:12:28",9,"Social","Seven",6,4,"Switch",0,"Novel51",1,"Novel12",3,1475,"eyes_right_90",5,1,0,0,7,TRUE,FALSE,6,FALSE
"210","A14BVED75ZFI4O","08:12:28",10,"Social","Seven",6,5,"Same",1,"Novel72",3,"Novel72",3,1520,"eyes_down_left",1,1,0,0,7,TRUE,FALSE,6,TRUE
"211","A14BVED75ZFI4O","08:12:28",11,"Social","Seven",6,6,"Switch",0,"Novel22",1,"Novel47",4,983,"eyes_right_90",5,1,0,0,7,TRUE,FALSE,6,FALSE
"212","A14BVED75ZFI4O","08:12:28",12,"Social","Seven",6,7,"Same",0,"Novel126",5,"Novel126",5,1143,"eyes_right",3,1,0,0,7,TRUE,FALSE,6,TRUE
"213","A14BVED75ZFI4O","08:12:28",13,"Social","Seven",6,0,"Switch",1,"Novel9",0,"Novel56",3,3589,"eyescenter",-1,0,1,0,7,TRUE,TRUE,6,FALSE
"214","A14BVED75ZFI4O","08:12:28",14,"Social","Seven",6,1,"Same",1,"Novel127",2,"Novel127",2,3498,"eyescenter",-1,0,1,0,7,TRUE,FALSE,6,TRUE
"215","A14BVED75ZFI4O","08:12:28",15,"Social","Seven",6,2,"Switch",1,"Novel80",2,"Novel96",5,4673,"eyescenter",-1,0,1,0,7,TRUE,FALSE,6,FALSE
"216","A14BVED75ZFI4O","08:12:28",16,"Social","Seven",6,3,"Same",0,"Novel49",0,"Novel49",3,2497,"eyescenter",-1,0,1,0,7,TRUE,FALSE,6,TRUE
"217","A14BVED75ZFI4O","08:12:28",17,"Social","Seven",6,4,"Switch",0,"Novel41",1,"Novel12",3,4592,"eyescenter",-1,0,1,0,7,TRUE,FALSE,6,FALSE
"218","A14BVED75ZFI4O","08:12:28",18,"Social","Seven",6,5,"Same",1,"Novel72",3,"Novel72",3,1400,"eyescenter",-1,0,1,0,7,TRUE,FALSE,6,TRUE
"219","A14BVED75ZFI4O","08:12:28",19,"Social","Seven",6,6,"Switch",0,"Novel64",3,"Novel47",4,5010,"eyescenter",-1,0,1,0,7,TRUE,FALSE,6,FALSE
"220","A14BVED75ZFI4O","08:12:28",20,"Social","Seven",6,7,"Same",0,"Novel126",4,"Novel126",5,2081,"eyescenter",-1,0,1,0,7,TRUE,FALSE,6,TRUE
"221","A14IR7TO5YHC6J","04:06:22",1,"No-Social","Three",6,0,"Same",1,"squirrel",3,"",0,8738,"eyescenter",-1,0,0,1,3,TRUE,FALSE,6,FALSE
"222","A14IR7TO5YHC6J","04:06:22",2,"No-Social","Three",6,0,"Same",1,"squirrel",1,"",0,1541,"eyescenter",-1,0,0,1,3,TRUE,FALSE,6,FALSE
"223","A14IR7TO5YHC6J","04:06:22",3,"No-Social","Three",6,0,"Same",1,"tomato",4,"",0,2577,"eyescenter",-1,0,0,1,3,TRUE,FALSE,6,FALSE
"224","A14IR7TO5YHC6J","04:06:22",4,"No-Social","Three",6,0,"Same",1,"tomato",0,"",0,1367,"eyescenter",-1,0,0,1,3,TRUE,FALSE,6,FALSE
"225","A14IR7TO5YHC6J","04:06:22",5,"No-Social","Three",6,0,"Same",1,"Novel115",4,"Novel115",4,10776,"eyescenter",-1,1,0,0,3,TRUE,FALSE,6,TRUE
"226","A14IR7TO5YHC6J","04:06:22",6,"No-Social","Three",6,1,"Switch",0,"Novel133",4,"Novel44",5,3721,"eyescenter",-1,1,0,0,3,TRUE,FALSE,6,FALSE
"227","A14IR7TO5YHC6J","04:06:22",7,"No-Social","Three",6,2,"Same",0,"Novel40",4,"Novel40",4,4229,"eyescenter",-1,1,0,0,3,TRUE,FALSE,6,TRUE
"228","A14IR7TO5YHC6J","04:06:22",8,"No-Social","Three",6,3,"Switch",0,"Novel140",3,"Novel25",0,1899,"eyescenter",-1,1,0,0,3,TRUE,FALSE,6,FALSE
"229","A14IR7TO5YHC6J","04:06:22",9,"No-Social","Three",6,0,"Same",1,"Novel115",4,"Novel115",4,2446,"eyescenter",-1,0,1,0,3,TRUE,TRUE,6,TRUE
"230","A14IR7TO5YHC6J","04:06:22",10,"No-Social","Three",6,1,"Switch",0,"Novel90",3,"Novel44",5,4676,"eyescenter",-1,0,1,0,3,TRUE,FALSE,6,FALSE
"231","A14IR7TO5YHC6J","04:06:22",11,"No-Social","Three",6,2,"Same",0,"Novel107",4,"Novel40",4,2147,"eyescenter",-1,0,1,0,3,TRUE,FALSE,6,FALSE
"232","A14IR7TO5YHC6J","04:06:22",12,"No-Social","Three",6,3,"Switch",0,"Novel25",3,"Novel25",0,2483,"eyescenter",-1,0,1,0,3,TRUE,FALSE,6,TRUE
"233","A14IR7TO5YHC6J","04:06:22",13,"No-Social","Three",6,4,"Same",1,"Novel79",4,"Novel79",4,4116,"eyescenter",-1,1,0,0,3,TRUE,FALSE,6,TRUE
"234","A14IR7TO5YHC6J","04:06:22",14,"No-Social","Three",6,5,"Switch",1,"Novel105",3,"Novel73",1,2377,"eyescenter",-1,1,0,0,3,TRUE,FALSE,6,FALSE
"235","A14IR7TO5YHC6J","04:06:22",15,"No-Social","Three",6,6,"Same",0,"Novel78",4,"Novel78",4,1940,"eyescenter",-1,1,0,0,3,TRUE,FALSE,6,TRUE
"236","A14IR7TO5YHC6J","04:06:22",16,"No-Social","Three",6,7,"Switch",1,"Novel23",3,"Novel58",5,2178,"eyescenter",-1,1,0,0,3,TRUE,FALSE,6,FALSE
"237","A14IR7TO5YHC6J","04:06:22",17,"No-Social","Three",6,4,"Same",1,"Novel79",4,"Novel79",4,2061,"eyescenter",-1,0,1,0,3,TRUE,FALSE,6,TRUE
"238","A14IR7TO5YHC6J","04:06:22",18,"No-Social","Three",6,5,"Switch",1,"Novel70",3,"Novel73",1,1889,"eyescenter",-1,0,1,0,3,TRUE,FALSE,6,FALSE
"239","A14IR7TO5YHC6J","04:06:22",19,"No-Social","Three",6,6,"Same",0,"Novel38",4,"Novel78",4,2440,"eyescenter",-1,0,1,0,3,TRUE,FALSE,6,FALSE
"240","A14IR7TO5YHC6J","04:06:22",20,"No-Social","Three",6,7,"Switch",1,"Novel42",3,"Novel58",5,1533,"eyescenter",-1,0,1,0,3,TRUE,FALSE,6,FALSE
"241","A14JJ37XCACZCZ","21:27:27",1,"No-Social","Seven",6,0,"Switch",1,"squirrel",3,"",0,1918,"eyescenter",-1,0,0,1,7,TRUE,FALSE,6,FALSE
"242","A14JJ37XCACZCZ","21:27:27",2,"No-Social","Seven",6,0,"Switch",1,"squirrel",1,"",0,1416,"eyescenter",-1,0,0,1,7,TRUE,FALSE,6,FALSE
"243","A14JJ37XCACZCZ","21:27:27",3,"No-Social","Seven",6,0,"Switch",1,"tomato",4,"",0,1058,"eyescenter",-1,0,0,1,7,TRUE,FALSE,6,FALSE
"244","A14JJ37XCACZCZ","21:27:27",4,"No-Social","Seven",6,0,"Switch",1,"tomato",0,"",0,915,"eyescenter",-1,0,0,1,7,TRUE,FALSE,6,FALSE
"245","A14JJ37XCACZCZ","21:27:27",5,"No-Social","Seven",6,0,"Switch",1,"Novel136",3,"Novel14",1,3663,"eyescenter",-1,1,0,0,7,TRUE,FALSE,6,FALSE
"246","A14JJ37XCACZCZ","21:27:27",6,"No-Social","Seven",6,1,"Same",0,"Novel112",3,"Novel112",3,4002,"eyescenter",-1,1,0,0,7,TRUE,FALSE,6,TRUE
"247","A14JJ37XCACZCZ","21:27:27",7,"No-Social","Seven",6,2,"Switch",0,"Novel79",3,"Novel80",4,3595,"eyescenter",-1,1,0,0,7,TRUE,FALSE,6,FALSE
"248","A14JJ37XCACZCZ","21:27:27",8,"No-Social","Seven",6,3,"Same",1,"Novel131",4,"Novel131",4,3251,"eyescenter",-1,1,0,0,7,TRUE,FALSE,6,TRUE
"249","A14JJ37XCACZCZ","21:27:27",9,"No-Social","Seven",6,4,"Switch",0,"Novel13",5,"Novel74",0,3229,"eyescenter",-1,1,0,0,7,TRUE,FALSE,6,FALSE
"250","A14JJ37XCACZCZ","21:27:27",10,"No-Social","Seven",6,5,"Same",1,"Novel52",3,"Novel52",3,4120,"eyescenter",-1,1,0,0,7,TRUE,FALSE,6,TRUE
"251","A14JJ37XCACZCZ","21:27:27",11,"No-Social","Seven",6,6,"Switch",1,"Novel27",0,"Novel84",5,3698,"eyescenter",-1,1,0,0,7,TRUE,FALSE,6,FALSE
"252","A14JJ37XCACZCZ","21:27:27",12,"No-Social","Seven",6,7,"Same",0,"Novel86",4,"Novel86",4,3315,"eyescenter",-1,1,0,0,7,TRUE,FALSE,6,TRUE
"253","A14JJ37XCACZCZ","21:27:27",13,"No-Social","Seven",6,0,"Switch",1,"Novel115",3,"Novel14",1,3946,"eyescenter",-1,0,1,0,7,TRUE,TRUE,6,FALSE
"254","A14JJ37XCACZCZ","21:27:27",14,"No-Social","Seven",6,1,"Same",0,"Novel65",3,"Novel112",3,3739,"eyescenter",-1,0,1,0,7,TRUE,FALSE,6,FALSE
"255","A14JJ37XCACZCZ","21:27:27",15,"No-Social","Seven",6,2,"Switch",0,"Novel10",5,"Novel80",4,3255,"eyescenter",-1,0,1,0,7,TRUE,FALSE,6,FALSE
"256","A14JJ37XCACZCZ","21:27:27",16,"No-Social","Seven",6,3,"Same",1,"Novel131",4,"Novel131",4,3418,"eyescenter",-1,0,1,0,7,TRUE,FALSE,6,TRUE
"257","A14JJ37XCACZCZ","21:27:27",17,"No-Social","Seven",6,4,"Switch",0,"Novel71",2,"Novel74",0,2843,"eyescenter",-1,0,1,0,7,TRUE,FALSE,6,FALSE
"258","A14JJ37XCACZCZ","21:27:27",18,"No-Social","Seven",6,5,"Same",1,"Novel106",1,"Novel52",3,4748,"eyescenter",-1,0,1,0,7,TRUE,FALSE,6,FALSE
"259","A14JJ37XCACZCZ","21:27:27",19,"No-Social","Seven",6,6,"Switch",1,"Novel84",5,"Novel84",5,3413,"eyescenter",-1,0,1,0,7,TRUE,FALSE,6,TRUE
"260","A14JJ37XCACZCZ","21:27:27",20,"No-Social","Seven",6,7,"Same",0,"Novel86",1,"Novel86",4,4159,"eyescenter",-1,0,1,0,7,TRUE,FALSE,6,TRUE
"261","A14R0P1LBYF8AL","23:56:37",1,"Social","Three",6,0,"Same",0,"squirrel",3,"",0,3101,"eyescenter",-1,0,0,1,3,TRUE,FALSE,6,FALSE
"262","A14R0P1LBYF8AL","23:56:37",2,"Social","Three",6,0,"Same",0,"squirrel",1,"",0,1456,"eyescenter",-1,0,0,1,3,TRUE,FALSE,6,FALSE
"263","A14R0P1LBYF8AL","23:56:37",3,"Social","Three",6,0,"Same",0,"tomato",4,"",0,7123,"eyescenter",-1,0,0,1,3,TRUE,FALSE,6,FALSE
"264","A14R0P1LBYF8AL","23:56:37",4,"Social","Three",6,0,"Same",0,"tomato",0,"",0,1292,"eyescenter",-1,0,0,1,3,TRUE,FALSE,6,FALSE
"265","A14R0P1LBYF8AL","23:56:37",5,"Social","Three",6,0,"Same",0,"Novel28",5,"Novel28",5,3983,"eyes_left_90",4,1,0,0,3,TRUE,FALSE,6,TRUE
"266","A14R0P1LBYF8AL","23:56:37",6,"Social","Three",6,1,"Switch",0,"Novel97",4,"Novel91",2,2602,"eyes_down_right",2,1,0,0,3,TRUE,FALSE,6,FALSE
"267","A14R0P1LBYF8AL","23:56:37",7,"Social","Three",6,2,"Same",1,"Novel82",3,"Novel82",3,2506,"eyes_down_right",2,1,0,0,3,TRUE,FALSE,6,TRUE
"268","A14R0P1LBYF8AL","23:56:37",8,"Social","Three",6,3,"Switch",0,"Novel20",2,"Novel31",3,2948,"eyes_left",0,1,0,0,3,TRUE,FALSE,6,FALSE
"269","A14R0P1LBYF8AL","23:56:37",9,"Social","Three",6,0,"Same",0,"Novel28",1,"Novel28",5,4968,"eyescenter",-1,0,1,0,3,TRUE,TRUE,6,TRUE
"270","A14R0P1LBYF8AL","23:56:37",10,"Social","Three",6,1,"Switch",0,"Novel70",3,"Novel91",2,2855,"eyescenter",-1,0,1,0,3,TRUE,FALSE,6,FALSE
"271","A14R0P1LBYF8AL","23:56:37",11,"Social","Three",6,2,"Same",1,"Novel82",3,"Novel82",3,2394,"eyescenter",-1,0,1,0,3,TRUE,FALSE,6,TRUE
"272","A14R0P1LBYF8AL","23:56:37",12,"Social","Three",6,3,"Switch",0,"Novel31",5,"Novel31",3,14813,"eyescenter",-1,0,1,0,3,TRUE,FALSE,6,TRUE
"273","A14R0P1LBYF8AL","23:56:37",13,"Social","Three",6,4,"Same",0,"Novel25",3,"Novel25",3,2374,"eyes_left_90",4,1,0,0,3,TRUE,FALSE,6,TRUE
"274","A14R0P1LBYF8AL","23:56:37",14,"Social","Three",6,5,"Switch",1,"Novel107",0,"Novel73",1,12312,"eyes_down_left",1,1,0,0,3,TRUE,FALSE,6,FALSE
"275","A14R0P1LBYF8AL","23:56:37",15,"Social","Three",6,6,"Same",1,"Novel66",1,"Novel66",1,4054,"eyes_right",3,1,0,0,3,TRUE,FALSE,6,TRUE
"276","A14R0P1LBYF8AL","23:56:37",16,"Social","Three",6,7,"Switch",1,"Novel106",5,"Novel100",2,3720,"eyes_down_right",2,1,0,0,3,TRUE,FALSE,6,FALSE
"277","A14R0P1LBYF8AL","23:56:37",17,"Social","Three",6,4,"Same",0,"Novel25",1,"Novel25",3,3858,"eyescenter",-1,0,1,0,3,TRUE,FALSE,6,TRUE
"278","A14R0P1LBYF8AL","23:56:37",18,"Social","Three",6,5,"Switch",1,"Novel73",1,"Novel73",1,6186,"eyescenter",-1,0,1,0,3,TRUE,FALSE,6,TRUE
"279","A14R0P1LBYF8AL","23:56:37",19,"Social","Three",6,6,"Same",1,"Novel66",1,"Novel66",1,3957,"eyescenter",-1,0,1,0,3,TRUE,FALSE,6,TRUE
"280","A14R0P1LBYF8AL","23:56:37",20,"Social","Three",6,7,"Switch",1,"Novel100",2,"Novel100",2,10148,"eyescenter",-1,0,1,0,3,TRUE,FALSE,6,TRUE
"281","A15W0YY71Z9XWV","18:34:32",1,"No-Social","Three",6,0,"Switch",1,"squirrel",3,"",0,7268,"eyescenter",-1,0,0,1,3,TRUE,FALSE,6,FALSE
"282","A15W0YY71Z9XWV","18:34:32",2,"No-Social","Three",6,0,"Switch",1,"squirrel",1,"",0,2121,"eyescenter",-1,0,0,1,3,TRUE,FALSE,6,FALSE
"283","A15W0YY71Z9XWV","18:34:32",3,"No-Social","Three",6,0,"Switch",1,"tomato",4,"",0,3076,"eyescenter",-1,0,0,1,3,TRUE,FALSE,6,FALSE
"284","A15W0YY71Z9XWV","18:34:32",4,"No-Social","Three",6,0,"Switch",1,"tomato",0,"",0,6615,"eyescenter",-1,0,0,1,3,TRUE,FALSE,6,FALSE
"285","A15W0YY71Z9XWV","18:34:32",5,"No-Social","Three",6,0,"Switch",1,"Novel76",2,"Novel31",3,13307,"eyescenter",-1,1,0,0,3,TRUE,FALSE,6,FALSE
"286","A15W0YY71Z9XWV","18:34:32",6,"No-Social","Three",6,1,"Same",0,"Novel37",4,"Novel37",4,5385,"eyescenter",-1,1,0,0,3,TRUE,FALSE,6,TRUE
"287","A15W0YY71Z9XWV","18:34:32",7,"No-Social","Three",6,2,"Switch",1,"Novel5",1,"Novel132",0,9757,"eyescenter",-1,1,0,0,3,TRUE,FALSE,6,FALSE
"288","A15W0YY71Z9XWV","18:34:32",8,"No-Social","Three",6,3,"Same",0,"Novel33",2,"Novel33",2,3566,"eyescenter",-1,1,0,0,3,TRUE,FALSE,6,TRUE
"289","A15W0YY71Z9XWV","18:34:32",9,"No-Social","Three",6,0,"Switch",1,"Novel31",3,"Novel31",3,8080,"eyescenter",-1,0,1,0,3,TRUE,TRUE,6,TRUE
"290","A15W0YY71Z9XWV","18:34:32",10,"No-Social","Three",6,1,"Same",0,"Novel37",3,"Novel37",4,3809,"eyescenter",-1,0,1,0,3,TRUE,FALSE,6,TRUE
"291","A15W0YY71Z9XWV","18:34:32",11,"No-Social","Three",6,2,"Switch",1,"Novel6",1,"Novel132",0,4051,"eyescenter",-1,0,1,0,3,TRUE,FALSE,6,FALSE
"292","A15W0YY71Z9XWV","18:34:32",12,"No-Social","Three",6,3,"Same",0,"Novel33",1,"Novel33",2,1468,"eyescenter",-1,0,1,0,3,TRUE,FALSE,6,TRUE
"293","A15W0YY71Z9XWV","18:34:32",13,"No-Social","Three",6,4,"Switch",0,"Novel24",4,"Novel60",1,3445,"eyescenter",-1,1,0,0,3,TRUE,FALSE,6,FALSE
"294","A15W0YY71Z9XWV","18:34:32",14,"No-Social","Three",6,5,"Same",1,"Novel10",2,"Novel10",2,3100,"eyescenter",-1,1,0,0,3,TRUE,FALSE,6,TRUE
"295","A15W0YY71Z9XWV","18:34:32",15,"No-Social","Three",6,6,"Switch",0,"Novel110",1,"Novel79",2,3154,"eyescenter",-1,1,0,0,3,TRUE,FALSE,6,FALSE
"296","A15W0YY71Z9XWV","18:34:32",16,"No-Social","Three",6,7,"Same",1,"Novel105",5,"Novel105",5,2407,"eyescenter",-1,1,0,0,3,TRUE,FALSE,6,TRUE
"297","A15W0YY71Z9XWV","18:34:32",17,"No-Social","Three",6,4,"Switch",0,"Novel116",4,"Novel60",1,6019,"eyescenter",-1,0,1,0,3,TRUE,FALSE,6,FALSE
"298","A15W0YY71Z9XWV","18:34:32",18,"No-Social","Three",6,5,"Same",1,"Novel10",2,"Novel10",2,2369,"eyescenter",-1,0,1,0,3,TRUE,FALSE,6,TRUE
"299","A15W0YY71Z9XWV","18:34:32",19,"No-Social","Three",6,6,"Switch",0,"Novel66",4,"Novel79",2,4858,"eyescenter",-1,0,1,0,3,TRUE,FALSE,6,FALSE
"300","A15W0YY71Z9XWV","18:34:32",20,"No-Social","Three",6,7,"Same",1,"Novel105",5,"Novel105",5,2205,"eyescenter",-1,0,1,0,3,TRUE,FALSE,6,TRUE
"301","A163J5TEJBO43B","20:02:42",1,"Social","Seven",6,0,"Switch",0,"squirrel",3,"",0,4636,"eyescenter",-1,0,0,1,7,TRUE,FALSE,6,FALSE
"302","A163J5TEJBO43B","20:02:42",2,"Social","Seven",6,0,"Switch",0,"squirrel",1,"",0,6226,"eyescenter",-1,0,0,1,7,TRUE,FALSE,6,FALSE
"303","A163J5TEJBO43B","20:02:42",3,"Social","Seven",6,0,"Switch",0,"tomato",4,"",0,2774,"eyescenter",-1,0,0,1,7,TRUE,FALSE,6,FALSE
"304","A163J5TEJBO43B","20:02:42",4,"Social","Seven",6,0,"Switch",0,"tomato",0,"",0,2731,"eyescenter",-1,0,0,1,7,TRUE,FALSE,6,FALSE
"305","A163J5TEJBO43B","20:02:42",5,"Social","Seven",6,0,"Switch",0,"Novel9",5,"Novel20",0,10177,"eyes_right",3,1,0,0,7,TRUE,FALSE,6,FALSE
"306","A163J5TEJBO43B","20:02:42",6,"Social","Seven",6,1,"Same",1,"Novel14",0,"Novel14",0,15757,"eyes_left_90",4,1,0,0,7,TRUE,FALSE,6,TRUE
"307","A163J5TEJBO43B","20:02:42",7,"Social","Seven",6,2,"Switch",0,"Novel6",5,"Novel94",3,11776,"eyes_down_right",2,1,0,0,7,TRUE,FALSE,6,FALSE
"308","A163J5TEJBO43B","20:02:42",8,"Social","Seven",6,3,"Same",0,"Novel67",3,"Novel67",3,8553,"eyes_right",3,1,0,0,7,TRUE,FALSE,6,TRUE
"309","A163J5TEJBO43B","20:02:42",9,"Social","Seven",6,4,"Switch",1,"Novel115",3,"Novel38",2,8409,"eyes_down_left",1,1,0,0,7,TRUE,FALSE,6,FALSE
"310","A163J5TEJBO43B","20:02:42",10,"Social","Seven",6,5,"Same",1,"Novel34",3,"Novel34",3,8142,"eyes_left_90",4,1,0,0,7,TRUE,FALSE,6,TRUE
"311","A163J5TEJBO43B","20:02:42",11,"Social","Seven",6,6,"Switch",1,"Novel110",2,"Novel129",1,6761,"eyes_right_90",5,1,0,0,7,TRUE,FALSE,6,FALSE
"312","A163J5TEJBO43B","20:02:42",12,"Social","Seven",6,7,"Same",0,"Novel72",3,"Novel72",3,8405,"eyes_left",0,1,0,0,7,TRUE,FALSE,6,TRUE
"313","A163J5TEJBO43B","20:02:42",13,"Social","Seven",6,0,"Switch",0,"Novel20",3,"Novel20",0,11588,"eyescenter",-1,0,1,0,7,TRUE,TRUE,6,TRUE
"314","A163J5TEJBO43B","20:02:42",14,"Social","Seven",6,1,"Same",1,"Novel12",2,"Novel14",0,4494,"eyescenter",-1,0,1,0,7,TRUE,FALSE,6,FALSE
"315","A163J5TEJBO43B","20:02:42",15,"Social","Seven",6,2,"Switch",0,"Novel94",0,"Novel94",3,7768,"eyescenter",-1,0,1,0,7,TRUE,FALSE,6,TRUE
"316","A163J5TEJBO43B","20:02:42",16,"Social","Seven",6,3,"Same",0,"Novel67",4,"Novel67",3,7745,"eyescenter",-1,0,1,0,7,TRUE,FALSE,6,TRUE
"317","A163J5TEJBO43B","20:02:42",17,"Social","Seven",6,4,"Switch",1,"Novel38",2,"Novel38",2,11851,"eyescenter",-1,0,1,0,7,TRUE,FALSE,6,TRUE
"318","A163J5TEJBO43B","20:02:42",18,"Social","Seven",6,5,"Same",1,"Novel34",3,"Novel34",3,4061,"eyescenter",-1,0,1,0,7,TRUE,FALSE,6,TRUE
"319","A163J5TEJBO43B","20:02:42",19,"Social","Seven",6,6,"Switch",1,"Novel57",0,"Novel129",1,9996,"eyescenter",-1,0,1,0,7,TRUE,FALSE,6,FALSE
"320","A163J5TEJBO43B","20:02:42",20,"Social","Seven",6,7,"Same",0,"Novel72",2,"Novel72",3,3678,"eyescenter",-1,0,1,0,7,TRUE,FALSE,6,TRUE
"321","A16JTWUXDDQ7IG","19:00:28",1,"No-Social","Three",6,0,"Same",0,"squirrel",3,"",0,3084,"eyescenter",-1,0,0,1,3,TRUE,FALSE,6,FALSE
"322","A16JTWUXDDQ7IG","19:00:28",2,"No-Social","Three",6,0,"Same",0,"squirrel",1,"",0,2716,"eyescenter",-1,0,0,1,3,TRUE,FALSE,6,FALSE
"323","A16JTWUXDDQ7IG","19:00:28",3,"No-Social","Three",6,0,"Same",0,"tomato",4,"",0,2077,"eyescenter",-1,0,0,1,3,TRUE,FALSE,6,FALSE
"324","A16JTWUXDDQ7IG","19:00:28",4,"No-Social","Three",6,0,"Same",0,"tomato",0,"",0,2908,"eyescenter",-1,0,0,1,3,TRUE,FALSE,6,FALSE
"325","A16JTWUXDDQ7IG","19:00:28",5,"No-Social","Three",6,0,"Same",0,"Novel55",0,"Novel55",0,12367,"eyescenter",-1,1,0,0,3,TRUE,FALSE,6,TRUE
"326","A16JTWUXDDQ7IG","19:00:28",6,"No-Social","Three",6,1,"Switch",1,"Novel56",0,"Novel139",5,6037,"eyescenter",-1,1,0,0,3,TRUE,FALSE,6,FALSE
"327","A16JTWUXDDQ7IG","19:00:28",7,"No-Social","Three",6,2,"Same",1,"Novel120",4,"Novel120",4,8288,"eyescenter",-1,1,0,0,3,TRUE,FALSE,6,TRUE
"328","A16JTWUXDDQ7IG","19:00:28",8,"No-Social","Three",6,3,"Switch",0,"Novel16",1,"Novel82",4,2964,"eyescenter",-1,1,0,0,3,TRUE,FALSE,6,FALSE
"329","A16JTWUXDDQ7IG","19:00:28",9,"No-Social","Three",6,0,"Same",0,"Novel55",5,"Novel55",0,4107,"eyescenter",-1,0,1,0,3,TRUE,TRUE,6,TRUE
"330","A16JTWUXDDQ7IG","19:00:28",10,"No-Social","Three",6,1,"Switch",1,"Novel76",4,"Novel139",5,3199,"eyescenter",-1,0,1,0,3,TRUE,FALSE,6,FALSE
"331","A16JTWUXDDQ7IG","19:00:28",11,"No-Social","Three",6,2,"Same",1,"Novel120",4,"Novel120",4,3205,"eyescenter",-1,0,1,0,3,TRUE,FALSE,6,TRUE
"332","A16JTWUXDDQ7IG","19:00:28",12,"No-Social","Three",6,3,"Switch",0,"Novel86",3,"Novel82",4,3694,"eyescenter",-1,0,1,0,3,TRUE,FALSE,6,FALSE
"333","A16JTWUXDDQ7IG","19:00:28",13,"No-Social","Three",6,4,"Same",1,"Novel24",0,"Novel24",0,3012,"eyescenter",-1,1,0,0,3,TRUE,FALSE,6,TRUE
"334","A16JTWUXDDQ7IG","19:00:28",14,"No-Social","Three",6,5,"Switch",1,"Novel49",2,"Novel23",3,4655,"eyescenter",-1,1,0,0,3,TRUE,FALSE,6,FALSE
"335","A16JTWUXDDQ7IG","19:00:28",15,"No-Social","Three",6,6,"Same",0,"Novel63",4,"Novel63",4,2647,"eyescenter",-1,1,0,0,3,TRUE,FALSE,6,TRUE
"336","A16JTWUXDDQ7IG","19:00:28",16,"No-Social","Three",6,7,"Switch",0,"Novel27",2,"Novel112",4,2657,"eyescenter",-1,1,0,0,3,TRUE,FALSE,6,FALSE
"337","A16JTWUXDDQ7IG","19:00:28",17,"No-Social","Three",6,4,"Same",1,"Novel24",0,"Novel24",0,3274,"eyescenter",-1,0,1,0,3,TRUE,FALSE,6,TRUE
"338","A16JTWUXDDQ7IG","19:00:28",18,"No-Social","Three",6,5,"Switch",1,"Novel72",5,"Novel23",3,3377,"eyescenter",-1,0,1,0,3,TRUE,FALSE,6,FALSE
"339","A16JTWUXDDQ7IG","19:00:28",19,"No-Social","Three",6,6,"Same",0,"Novel63",5,"Novel63",4,1652,"eyescenter",-1,0,1,0,3,TRUE,FALSE,6,TRUE
"340","A16JTWUXDDQ7IG","19:00:28",20,"No-Social","Three",6,7,"Switch",0,"Novel89",4,"Novel112",4,3707,"eyescenter",-1,0,1,0,3,TRUE,FALSE,6,FALSE
"341","A1757KKX3H7G80","17:20:03",1,"Social","Seven",6,0,"Same",1,"squirrel",3,"",0,2983,"eyescenter",-1,0,0,1,7,TRUE,FALSE,6,FALSE
"342","A1757KKX3H7G80","17:20:03",2,"Social","Seven",6,0,"Same",1,"squirrel",1,"",0,2175,"eyescenter",-1,0,0,1,7,TRUE,FALSE,6,FALSE
"343","A1757KKX3H7G80","17:20:03",3,"Social","Seven",6,0,"Same",1,"tomato",4,"",0,1879,"eyescenter",-1,0,0,1,7,TRUE,FALSE,6,FALSE
"344","A1757KKX3H7G80","17:20:03",4,"Social","Seven",6,0,"Same",1,"tomato",0,"",0,1506,"eyescenter",-1,0,0,1,7,TRUE,FALSE,6,FALSE
"345","A1757KKX3H7G80","17:20:03",5,"Social","Seven",6,0,"Same",1,"Novel3",1,"Novel3",1,7483,"eyes_right_90",5,1,0,0,7,TRUE,FALSE,6,TRUE
"346","A1757KKX3H7G80","17:20:03",6,"Social","Seven",6,1,"Switch",1,"Novel9",3,"Novel112",1,1631,"eyes_down_left",1,1,0,0,7,TRUE,FALSE,6,FALSE
"347","A1757KKX3H7G80","17:20:03",7,"Social","Seven",6,2,"Same",0,"Novel108",4,"Novel108",4,1030,"eyes_down_right",2,1,0,0,7,TRUE,FALSE,6,TRUE
"348","A1757KKX3H7G80","17:20:03",8,"Social","Seven",6,3,"Switch",1,"Novel95",1,"Novel81",2,911,"eyes_right_90",5,1,0,0,7,TRUE,FALSE,6,FALSE
"349","A1757KKX3H7G80","17:20:03",9,"Social","Seven",6,4,"Same",0,"Novel86",0,"Novel86",0,787,"eyes_left_90",4,1,0,0,7,TRUE,FALSE,6,TRUE
"350","A1757KKX3H7G80","17:20:03",10,"Social","Seven",6,5,"Switch",0,"Novel136",2,"Novel111",5,1177,"eyes_left",0,1,0,0,7,TRUE,FALSE,6,FALSE
"351","A1757KKX3H7G80","17:20:03",11,"Social","Seven",6,6,"Same",1,"Novel132",4,"Novel132",4,1145,"eyes_down_right",2,1,0,0,7,TRUE,FALSE,6,TRUE
"352","A1757KKX3H7G80","17:20:03",12,"Social","Seven",6,7,"Switch",0,"Novel69",4,"Novel5",3,922,"eyes_down_right",2,1,0,0,7,TRUE,FALSE,6,FALSE
"353","A1757KKX3H7G80","17:20:03",13,"Social","Seven",6,0,"Same",1,"Novel3",1,"Novel3",1,3816,"eyescenter",-1,0,1,0,7,TRUE,TRUE,6,TRUE
"354","A1757KKX3H7G80","17:20:03",14,"Social","Seven",6,1,"Switch",1,"Novel19",3,"Novel112",1,2331,"eyescenter",-1,0,1,0,7,TRUE,FALSE,6,FALSE
"355","A1757KKX3H7G80","17:20:03",15,"Social","Seven",6,2,"Same",0,"Novel65",0,"Novel108",4,2427,"eyescenter",-1,0,1,0,7,TRUE,FALSE,6,FALSE
"356","A1757KKX3H7G80","17:20:03",16,"Social","Seven",6,3,"Switch",1,"Novel81",2,"Novel81",2,5272,"eyescenter",-1,0,1,0,7,TRUE,FALSE,6,TRUE
"357","A1757KKX3H7G80","17:20:03",17,"Social","Seven",6,4,"Same",0,"Novel126",5,"Novel86",0,1545,"eyescenter",-1,0,1,0,7,TRUE,FALSE,6,FALSE
"358","A1757KKX3H7G80","17:20:03",18,"Social","Seven",6,5,"Switch",0,"Novel135",4,"Novel111",5,1509,"eyescenter",-1,0,1,0,7,TRUE,FALSE,6,FALSE
"359","A1757KKX3H7G80","17:20:03",19,"Social","Seven",6,6,"Same",1,"Novel132",4,"Novel132",4,1585,"eyescenter",-1,0,1,0,7,TRUE,FALSE,6,TRUE
"360","A1757KKX3H7G80","17:20:03",20,"Social","Seven",6,7,"Switch",0,"Novel114",1,"Novel5",3,2866,"eyescenter",-1,0,1,0,7,TRUE,FALSE,6,FALSE
"361","A177A6JVMGZ5AL","16:31:46",1,"Social","Seven",6,0,"Switch",1,"squirrel",3,"",0,3528,"eyescenter",-1,0,0,1,7,TRUE,FALSE,6,FALSE
"362","A177A6JVMGZ5AL","16:31:46",2,"Social","Seven",6,0,"Switch",1,"squirrel",1,"",0,1408,"eyescenter",-1,0,0,1,7,TRUE,FALSE,6,FALSE
"363","A177A6JVMGZ5AL","16:31:46",3,"Social","Seven",6,0,"Switch",1,"tomato",4,"",0,1979,"eyescenter",-1,0,0,1,7,TRUE,FALSE,6,FALSE
"364","A177A6JVMGZ5AL","16:31:46",4,"Social","Seven",6,0,"Switch",1,"tomato",0,"",0,2542,"eyescenter",-1,0,0,1,7,TRUE,FALSE,6,FALSE
"365","A177A6JVMGZ5AL","16:31:46",5,"Social","Seven",6,0,"Switch",1,"Novel6",5,"Novel20",3,3870,"eyes_right",3,1,0,0,7,TRUE,FALSE,6,FALSE
"366","A177A6JVMGZ5AL","16:31:46",6,"Social","Seven",6,1,"Same",0,"Novel103",5,"Novel103",5,2041,"eyes_right",3,1,0,0,7,TRUE,FALSE,6,TRUE
"367","A177A6JVMGZ5AL","16:31:46",7,"Social","Seven",6,2,"Switch",0,"Novel8",0,"Novel78",3,972,"eyes_left_90",4,1,0,0,7,TRUE,FALSE,6,FALSE
"368","A177A6JVMGZ5AL","16:31:46",8,"Social","Seven",6,3,"Same",0,"Novel4",4,"Novel4",4,898,"eyes_down_right",2,1,0,0,7,TRUE,FALSE,6,TRUE
"369","A177A6JVMGZ5AL","16:31:46",9,"Social","Seven",6,4,"Switch",0,"Novel86",3,"Novel129",4,1194,"eyes_down_left",1,1,0,0,7,TRUE,FALSE,6,FALSE
"370","A177A6JVMGZ5AL","16:31:46",10,"Social","Seven",6,5,"Same",1,"Novel88",2,"Novel88",2,1473,"eyes_left",0,1,0,0,7,TRUE,FALSE,6,TRUE
"371","A177A6JVMGZ5AL","16:31:46",11,"Social","Seven",6,6,"Switch",1,"Novel35",3,"Novel87",5,1397,"eyes_down_left",1,1,0,0,7,TRUE,FALSE,6,FALSE
"372","A177A6JVMGZ5AL","16:31:46",12,"Social","Seven",6,7,"Same",1,"Novel70",3,"Novel70",3,990,"eyes_down_left",1,1,0,0,7,TRUE,FALSE,6,TRUE
"373","A177A6JVMGZ5AL","16:31:46",13,"Social","Seven",6,0,"Switch",1,"Novel20",3,"Novel20",3,4288,"eyescenter",-1,0,1,0,7,TRUE,TRUE,6,TRUE
"374","A177A6JVMGZ5AL","16:31:46",14,"Social","Seven",6,1,"Same",0,"Novel74",4,"Novel103",5,3363,"eyescenter",-1,0,1,0,7,TRUE,FALSE,6,FALSE
"375","A177A6JVMGZ5AL","16:31:46",15,"Social","Seven",6,2,"Switch",0,"Novel104",5,"Novel78",3,2975,"eyescenter",-1,0,1,0,7,TRUE,FALSE,6,FALSE
"376","A177A6JVMGZ5AL","16:31:46",16,"Social","Seven",6,3,"Same",0,"Novel4",5,"Novel4",4,3116,"eyescenter",-1,0,1,0,7,TRUE,FALSE,6,TRUE
"377","A177A6JVMGZ5AL","16:31:46",17,"Social","Seven",6,4,"Switch",0,"Novel9",2,"Novel129",4,6648,"eyescenter",-1,0,1,0,7,TRUE,FALSE,6,FALSE
"378","A177A6JVMGZ5AL","16:31:46",18,"Social","Seven",6,5,"Same",1,"Novel88",2,"Novel88",2,1248,"eyescenter",-1,0,1,0,7,TRUE,FALSE,6,TRUE
"379","A177A6JVMGZ5AL","16:31:46",19,"Social","Seven",6,6,"Switch",1,"Novel87",5,"Novel87",5,1804,"eyescenter",-1,0,1,0,7,TRUE,FALSE,6,TRUE
"380","A177A6JVMGZ5AL","16:31:46",20,"Social","Seven",6,7,"Same",1,"Novel70",3,"Novel70",3,2719,"eyescenter",-1,0,1,0,7,TRUE,FALSE,6,TRUE
"381","A179OX1482SRXK","15:48:48",1,"Social","One",6,0,"Switch",0,"squirrel",3,"",0,1499,"eyescenter",-1,0,0,1,1,TRUE,FALSE,6,FALSE
"382","A179OX1482SRXK","15:48:48",2,"Social","One",6,0,"Switch",0,"squirrel",1,"",0,1145,"eyescenter",-1,0,0,1,1,TRUE,FALSE,6,FALSE
"383","A179OX1482SRXK","15:48:48",3,"Social","One",6,0,"Switch",0,"tomato",4,"",0,1593,"eyescenter",-1,0,0,1,1,TRUE,FALSE,6,FALSE
"384","A179OX1482SRXK","15:48:48",4,"Social","One",6,0,"Switch",0,"tomato",0,"",0,1068,"eyescenter",-1,0,0,1,1,TRUE,FALSE,6,FALSE
"385","A179OX1482SRXK","15:48:48",5,"Social","One",6,0,"Switch",0,"Novel74",5,"Novel128",2,1868,"eyes_right",3,1,0,0,1,TRUE,FALSE,6,FALSE
"386","A179OX1482SRXK","15:48:48",6,"Social","One",6,1,"Same",1,"Novel134",4,"Novel134",4,2595,"eyes_down_right",2,1,0,0,1,TRUE,FALSE,6,TRUE
"387","A179OX1482SRXK","15:48:48",7,"Social","One",6,0,"Switch",0,"Novel128",0,"Novel128",2,5445,"eyescenter",-1,0,1,0,1,TRUE,TRUE,6,TRUE
"388","A179OX1482SRXK","15:48:48",8,"Social","One",6,1,"Same",1,"Novel134",4,"Novel134",4,1853,"eyescenter",-1,0,1,0,1,TRUE,FALSE,6,TRUE
"389","A179OX1482SRXK","15:48:48",9,"Social","One",6,2,"Switch",1,"Novel92",5,"Novel111",2,1268,"eyes_right",3,1,0,0,1,TRUE,FALSE,6,FALSE
"390","A179OX1482SRXK","15:48:48",10,"Social","One",6,3,"Same",0,"Novel117",3,"Novel117",3,1268,"eyes_down_left",1,1,0,0,1,TRUE,FALSE,6,TRUE
"391","A179OX1482SRXK","15:48:48",11,"Social","One",6,2,"Switch",1,"Novel78",1,"Novel111",2,3090,"eyescenter",-1,0,1,0,1,TRUE,FALSE,6,FALSE
"392","A179OX1482SRXK","15:48:48",12,"Social","One",6,3,"Same",0,"Novel117",0,"Novel117",3,2045,"eyescenter",-1,0,1,0,1,TRUE,FALSE,6,TRUE
"393","A179OX1482SRXK","15:48:48",13,"Social","One",6,4,"Switch",1,"Novel5",1,"Novel126",4,1228,"eyes_right_90",5,1,0,0,1,TRUE,FALSE,6,FALSE
"394","A179OX1482SRXK","15:48:48",14,"Social","One",6,5,"Same",1,"Novel116",5,"Novel116",5,1259,"eyes_right",3,1,0,0,1,TRUE,FALSE,6,TRUE
"395","A179OX1482SRXK","15:48:48",15,"Social","One",6,4,"Switch",1,"Novel126",4,"Novel126",4,5502,"eyescenter",-1,0,1,0,1,TRUE,FALSE,6,TRUE
"396","A179OX1482SRXK","15:48:48",16,"Social","One",6,5,"Same",1,"Novel116",5,"Novel116",5,2395,"eyescenter",-1,0,1,0,1,TRUE,FALSE,6,TRUE
"397","A179OX1482SRXK","15:48:48",17,"Social","One",6,6,"Switch",0,"Novel61",3,"Novel46",1,1246,"eyes_down_left",1,1,0,0,1,TRUE,FALSE,6,FALSE
"398","A179OX1482SRXK","15:48:48",18,"Social","One",6,7,"Same",0,"Novel89",2,"Novel89",2,1548,"eyes_left",0,1,0,0,1,TRUE,FALSE,6,TRUE
"399","A179OX1482SRXK","15:48:48",19,"Social","One",6,6,"Switch",0,"Novel46",5,"Novel46",1,5279,"eyescenter",-1,0,1,0,1,TRUE,FALSE,6,TRUE
"400","A179OX1482SRXK","15:48:48",20,"Social","One",6,7,"Same",0,"Novel89",1,"Novel89",2,4083,"eyescenter",-1,0,1,0,1,TRUE,FALSE,6,TRUE
"401","A17ETOGOC5JF4I","13:26:12",1,"No-Social","Zero",6,0,"Same",1,"squirrel",3,"",0,2656,"eyescenter",-1,0,0,1,0,TRUE,FALSE,6,FALSE
"402","A17ETOGOC5JF4I","13:26:12",2,"No-Social","Zero",6,0,"Same",1,"squirrel",1,"",0,2324,"eyescenter",-1,0,0,1,0,TRUE,FALSE,6,FALSE
"403","A17ETOGOC5JF4I","13:26:12",3,"No-Social","Zero",6,0,"Same",1,"tomato",4,"",0,1258,"eyescenter",-1,0,0,1,0,TRUE,FALSE,6,FALSE
"404","A17ETOGOC5JF4I","13:26:12",4,"No-Social","Zero",6,0,"Same",1,"tomato",0,"",0,955,"eyescenter",-1,0,0,1,0,TRUE,FALSE,6,FALSE
"405","A17ETOGOC5JF4I","13:26:12",5,"No-Social","Zero",6,0,"Same",1,"Novel66",3,"Novel66",3,3101,"eyescenter",-1,1,0,0,0,TRUE,FALSE,6,TRUE
"406","A17ETOGOC5JF4I","13:26:12",6,"No-Social","Zero",6,0,"Same",1,"Novel66",3,"Novel66",3,5476,"eyescenter",-1,0,1,0,0,TRUE,TRUE,6,TRUE
"407","A17ETOGOC5JF4I","13:26:12",7,"No-Social","Zero",6,1,"Switch",0,"Novel105",0,"Novel54",4,2713,"eyescenter",-1,1,0,0,0,TRUE,FALSE,6,FALSE
"408","A17ETOGOC5JF4I","13:26:12",8,"No-Social","Zero",6,1,"Switch",0,"Novel133",5,"Novel54",4,2710,"eyescenter",-1,0,1,0,0,TRUE,FALSE,6,FALSE
"409","A17ETOGOC5JF4I","13:26:12",9,"No-Social","Zero",6,2,"Same",0,"Novel104",4,"Novel104",4,2042,"eyescenter",-1,1,0,0,0,TRUE,FALSE,6,TRUE
"410","A17ETOGOC5JF4I","13:26:12",10,"No-Social","Zero",6,2,"Same",0,"Novel104",3,"Novel104",4,3052,"eyescenter",-1,0,1,0,0,TRUE,FALSE,6,TRUE
"411","A17ETOGOC5JF4I","13:26:12",11,"No-Social","Zero",6,3,"Switch",0,"Novel31",4,"Novel107",2,1123,"eyescenter",-1,1,0,0,0,TRUE,FALSE,6,FALSE
"412","A17ETOGOC5JF4I","13:26:12",12,"No-Social","Zero",6,3,"Switch",0,"Novel106",3,"Novel107",2,2862,"eyescenter",-1,0,1,0,0,TRUE,FALSE,6,FALSE
"413","A17ETOGOC5JF4I","13:26:12",13,"No-Social","Zero",6,4,"Same",1,"Novel70",2,"Novel70",2,1293,"eyescenter",-1,1,0,0,0,TRUE,FALSE,6,TRUE
"414","A17ETOGOC5JF4I","13:26:12",14,"No-Social","Zero",6,4,"Same",1,"Novel9",5,"Novel70",2,906,"eyescenter",-1,0,1,0,0,TRUE,FALSE,6,FALSE
"415","A17ETOGOC5JF4I","13:26:12",15,"No-Social","Zero",6,5,"Switch",1,"Novel136",5,"Novel132",0,1280,"eyescenter",-1,1,0,0,0,TRUE,FALSE,6,FALSE
"416","A17ETOGOC5JF4I","13:26:12",16,"No-Social","Zero",6,5,"Switch",1,"Novel60",3,"Novel132",0,2269,"eyescenter",-1,0,1,0,0,TRUE,FALSE,6,FALSE
"417","A17ETOGOC5JF4I","13:26:12",17,"No-Social","Zero",6,6,"Same",0,"Novel30",4,"Novel30",4,879,"eyescenter",-1,1,0,0,0,TRUE,FALSE,6,TRUE
"418","A17ETOGOC5JF4I","13:26:12",18,"No-Social","Zero",6,6,"Same",0,"Novel30",2,"Novel30",4,437,"eyescenter",-1,0,1,0,0,TRUE,FALSE,6,TRUE
"419","A17ETOGOC5JF4I","13:26:12",19,"No-Social","Zero",6,7,"Switch",1,"Novel29",3,"Novel52",0,1935,"eyescenter",-1,1,0,0,0,TRUE,FALSE,6,FALSE
"420","A17ETOGOC5JF4I","13:26:12",20,"No-Social","Zero",6,7,"Switch",1,"Novel52",0,"Novel52",0,672,"eyescenter",-1,0,1,0,0,TRUE,FALSE,6,TRUE
"421","A1815O0GXEZUC","21:46:10",1,"No-Social","Three",6,0,"Switch",1,"squirrel",3,"",0,1660,"eyescenter",-1,0,0,1,3,TRUE,FALSE,6,FALSE
"422","A1815O0GXEZUC","21:46:10",2,"No-Social","Three",6,0,"Switch",1,"squirrel",1,"",0,1876,"eyescenter",-1,0,0,1,3,TRUE,FALSE,6,FALSE
"423","A1815O0GXEZUC","21:46:10",3,"No-Social","Three",6,0,"Switch",1,"tomato",4,"",0,1571,"eyescenter",-1,0,0,1,3,TRUE,FALSE,6,FALSE
"424","A1815O0GXEZUC","21:46:10",4,"No-Social","Three",6,0,"Switch",1,"tomato",0,"",0,937,"eyescenter",-1,0,0,1,3,TRUE,FALSE,6,FALSE
"425","A1815O0GXEZUC","21:46:10",5,"No-Social","Three",6,0,"Switch",1,"Novel53",3,"Novel25",4,8611,"eyescenter",-1,1,0,0,3,TRUE,FALSE,6,FALSE
"426","A1815O0GXEZUC","21:46:10",6,"No-Social","Three",6,1,"Same",0,"Novel128",5,"Novel128",5,4283,"eyescenter",-1,1,0,0,3,TRUE,FALSE,6,TRUE
"427","A1815O0GXEZUC","21:46:10",7,"No-Social","Three",6,2,"Switch",0,"Novel45",4,"Novel44",2,3811,"eyescenter",-1,1,0,0,3,TRUE,FALSE,6,FALSE
"428","A1815O0GXEZUC","21:46:10",8,"No-Social","Three",6,3,"Same",1,"Novel60",0,"Novel60",0,10869,"eyescenter",-1,1,0,0,3,TRUE,FALSE,6,TRUE
"429","A1815O0GXEZUC","21:46:10",9,"No-Social","Three",6,0,"Switch",1,"Novel25",4,"Novel25",4,10716,"eyescenter",-1,0,1,0,3,TRUE,TRUE,6,TRUE
"430","A1815O0GXEZUC","21:46:10",10,"No-Social","Three",6,1,"Same",0,"Novel128",4,"Novel128",5,5195,"eyescenter",-1,0,1,0,3,TRUE,FALSE,6,TRUE
"431","A1815O0GXEZUC","21:46:10",11,"No-Social","Three",6,2,"Switch",0,"Novel44",5,"Novel44",2,3285,"eyescenter",-1,0,1,0,3,TRUE,FALSE,6,TRUE
"432","A1815O0GXEZUC","21:46:10",12,"No-Social","Three",6,3,"Same",1,"Novel60",0,"Novel60",0,2020,"eyescenter",-1,0,1,0,3,TRUE,FALSE,6,TRUE
"433","A1815O0GXEZUC","21:46:10",13,"No-Social","Three",6,4,"Switch",0,"Novel120",2,"Novel119",3,6850,"eyescenter",-1,1,0,0,3,TRUE,FALSE,6,FALSE
"434","A1815O0GXEZUC","21:46:10",14,"No-Social","Three",6,5,"Same",0,"Novel93",1,"Novel93",1,5691,"eyescenter",-1,1,0,0,3,TRUE,FALSE,6,TRUE
"435","A1815O0GXEZUC","21:46:10",15,"No-Social","Three",6,6,"Switch",1,"Novel36",1,"Novel133",5,6917,"eyescenter",-1,1,0,0,3,TRUE,FALSE,6,FALSE
"436","A1815O0GXEZUC","21:46:10",16,"No-Social","Three",6,7,"Same",1,"Novel82",3,"Novel82",3,4389,"eyescenter",-1,1,0,0,3,TRUE,FALSE,6,TRUE
"437","A1815O0GXEZUC","21:46:10",17,"No-Social","Three",6,4,"Switch",0,"Novel119",4,"Novel119",3,4404,"eyescenter",-1,0,1,0,3,TRUE,FALSE,6,TRUE
"438","A1815O0GXEZUC","21:46:10",18,"No-Social","Three",6,5,"Same",0,"Novel93",4,"Novel93",1,5300,"eyescenter",-1,0,1,0,3,TRUE,FALSE,6,TRUE
"439","A1815O0GXEZUC","21:46:10",19,"No-Social","Three",6,6,"Switch",1,"Novel133",5,"Novel133",5,4178,"eyescenter",-1,0,1,0,3,TRUE,FALSE,6,TRUE
"440","A1815O0GXEZUC","21:46:10",20,"No-Social","Three",6,7,"Same",1,"Novel82",3,"Novel82",3,4892,"eyescenter",-1,0,1,0,3,TRUE,FALSE,6,TRUE
"441","A18O7OUFOB63SO","18:52:53",1,"Social","One",6,0,"Switch",1,"squirrel",3,"",0,1415,"eyescenter",-1,0,0,1,1,TRUE,FALSE,6,FALSE
"442","A18O7OUFOB63SO","18:52:53",2,"Social","One",6,0,"Switch",1,"squirrel",1,"",0,1724,"eyescenter",-1,0,0,1,1,TRUE,FALSE,6,FALSE
"443","A18O7OUFOB63SO","18:52:53",3,"Social","One",6,0,"Switch",1,"tomato",4,"",0,1306,"eyescenter",-1,0,0,1,1,TRUE,FALSE,6,FALSE
"444","A18O7OUFOB63SO","18:52:53",4,"Social","One",6,0,"Switch",1,"tomato",0,"",0,1072,"eyescenter",-1,0,0,1,1,TRUE,FALSE,6,FALSE
"445","A18O7OUFOB63SO","18:52:53",5,"Social","One",6,0,"Switch",1,"Novel36",2,"Novel126",1,3896,"eyes_down_left",1,1,0,0,1,TRUE,FALSE,6,FALSE
"446","A18O7OUFOB63SO","18:52:53",6,"Social","One",6,1,"Same",1,"Novel72",5,"Novel72",5,4512,"eyes_right",3,1,0,0,1,TRUE,FALSE,6,TRUE
"447","A18O7OUFOB63SO","18:52:53",7,"Social","One",6,0,"Switch",1,"Novel27",2,"Novel126",1,6805,"eyescenter",-1,0,1,0,1,TRUE,TRUE,6,FALSE
"448","A18O7OUFOB63SO","18:52:53",8,"Social","One",6,1,"Same",1,"Novel72",5,"Novel72",5,2553,"eyescenter",-1,0,1,0,1,TRUE,FALSE,6,TRUE
"449","A18O7OUFOB63SO","18:52:53",9,"Social","One",6,2,"Switch",0,"Novel83",3,"Novel63",2,3394,"eyes_down_left",1,1,0,0,1,TRUE,FALSE,6,FALSE
"450","A18O7OUFOB63SO","18:52:53",10,"Social","One",6,3,"Same",0,"Novel76",2,"Novel76",2,3015,"eyes_left",0,1,0,0,1,TRUE,FALSE,6,TRUE
"451","A18O7OUFOB63SO","18:52:53",11,"Social","One",6,2,"Switch",0,"Novel86",2,"Novel63",2,10286,"eyescenter",-1,0,1,0,1,TRUE,FALSE,6,FALSE
"452","A18O7OUFOB63SO","18:52:53",12,"Social","One",6,3,"Same",0,"Novel76",1,"Novel76",2,1095,"eyescenter",-1,0,1,0,1,TRUE,FALSE,6,TRUE
"453","A18O7OUFOB63SO","18:52:53",13,"Social","One",6,4,"Switch",1,"Novel79",5,"Novel119",3,2564,"eyes_right",3,1,0,0,1,TRUE,FALSE,6,FALSE
"454","A18O7OUFOB63SO","18:52:53",14,"Social","One",6,5,"Same",1,"Novel8",0,"Novel8",0,1295,"eyes_left_90",4,1,0,0,1,TRUE,FALSE,6,TRUE
"455","A18O7OUFOB63SO","18:52:53",15,"Social","One",6,4,"Switch",1,"Novel119",3,"Novel119",3,3025,"eyescenter",-1,0,1,0,1,TRUE,FALSE,6,TRUE
"456","A18O7OUFOB63SO","18:52:53",16,"Social","One",6,5,"Same",1,"Novel8",0,"Novel8",0,837,"eyescenter",-1,0,1,0,1,TRUE,FALSE,6,TRUE
"457","A18O7OUFOB63SO","18:52:53",17,"Social","One",6,6,"Switch",0,"Novel73",3,"Novel38",2,1795,"eyes_down_left",1,1,0,0,1,TRUE,FALSE,6,FALSE
"458","A18O7OUFOB63SO","18:52:53",18,"Social","One",6,7,"Same",0,"Novel42",3,"Novel42",3,2163,"eyes_down_left",1,1,0,0,1,TRUE,FALSE,6,TRUE
"459","A18O7OUFOB63SO","18:52:53",19,"Social","One",6,6,"Switch",0,"Novel133",1,"Novel38",2,11227,"eyescenter",-1,0,1,0,1,TRUE,FALSE,6,FALSE
"460","A18O7OUFOB63SO","18:52:53",20,"Social","One",6,7,"Same",0,"Novel42",2,"Novel42",3,726,"eyescenter",-1,0,1,0,1,TRUE,FALSE,6,TRUE
"461","A18PQMGPELCZ7P","16:54:09",1,"No-Social","One",6,0,"Switch",1,"squirrel",3,"",0,10892,"eyescenter",-1,0,0,1,1,TRUE,FALSE,6,FALSE
"462","A18PQMGPELCZ7P","16:54:09",2,"No-Social","One",6,0,"Switch",1,"squirrel",1,"",0,3345,"eyescenter",-1,0,0,1,1,TRUE,FALSE,6,FALSE
"463","A18PQMGPELCZ7P","16:54:09",3,"No-Social","One",6,0,"Switch",1,"tomato",4,"",0,3198,"eyescenter",-1,0,0,1,1,TRUE,FALSE,6,FALSE
"464","A18PQMGPELCZ7P","16:54:09",4,"No-Social","One",6,0,"Switch",1,"tomato",0,"",0,1562,"eyescenter",-1,0,0,1,1,TRUE,FALSE,6,FALSE
"465","A18PQMGPELCZ7P","16:54:09",5,"No-Social","One",6,0,"Switch",1,"Novel63",3,"Novel106",0,6848,"eyescenter",-1,1,0,0,1,TRUE,FALSE,6,FALSE
"466","A18PQMGPELCZ7P","16:54:09",6,"No-Social","One",6,1,"Same",1,"Novel111",2,"Novel111",2,4100,"eyescenter",-1,1,0,0,1,TRUE,FALSE,6,TRUE
"467","A18PQMGPELCZ7P","16:54:09",7,"No-Social","One",6,0,"Switch",1,"Novel107",4,"Novel106",0,1445,"eyescenter",-1,0,1,0,1,TRUE,TRUE,6,FALSE
"468","A18PQMGPELCZ7P","16:54:09",8,"No-Social","One",6,1,"Same",1,"Novel14",1,"Novel111",2,1871,"eyescenter",-1,0,1,0,1,TRUE,FALSE,6,FALSE
"469","A18PQMGPELCZ7P","16:54:09",9,"No-Social","One",6,2,"Switch",0,"Novel100",2,"Novel123",0,1451,"eyescenter",-1,1,0,0,1,TRUE,FALSE,6,FALSE
"470","A18PQMGPELCZ7P","16:54:09",10,"No-Social","One",6,3,"Same",1,"Novel135",4,"Novel135",4,2674,"eyescenter",-1,1,0,0,1,TRUE,FALSE,6,TRUE
"471","A18PQMGPELCZ7P","16:54:09",11,"No-Social","One",6,2,"Switch",0,"Novel2",0,"Novel123",0,2793,"eyescenter",-1,0,1,0,1,TRUE,FALSE,6,FALSE
"472","A18PQMGPELCZ7P","16:54:09",12,"No-Social","One",6,3,"Same",1,"Novel5",3,"Novel135",4,2257,"eyescenter",-1,0,1,0,1,TRUE,FALSE,6,FALSE
"473","A18PQMGPELCZ7P","16:54:09",13,"No-Social","One",6,4,"Switch",0,"Novel70",4,"Novel93",5,3937,"eyescenter",-1,1,0,0,1,TRUE,FALSE,6,FALSE
"474","A18PQMGPELCZ7P","16:54:09",14,"No-Social","One",6,5,"Same",0,"Novel97",1,"Novel97",1,1463,"eyescenter",-1,1,0,0,1,TRUE,FALSE,6,TRUE
"475","A18PQMGPELCZ7P","16:54:09",15,"No-Social","One",6,4,"Switch",0,"Novel138",2,"Novel93",5,2120,"eyescenter",-1,0,1,0,1,TRUE,FALSE,6,FALSE
"476","A18PQMGPELCZ7P","16:54:09",16,"No-Social","One",6,5,"Same",0,"Novel137",5,"Novel97",1,3400,"eyescenter",-1,0,1,0,1,TRUE,FALSE,6,FALSE
"477","A18PQMGPELCZ7P","16:54:09",17,"No-Social","One",6,6,"Switch",1,"Novel81",1,"Novel90",4,1336,"eyescenter",-1,1,0,0,1,TRUE,FALSE,6,FALSE
"478","A18PQMGPELCZ7P","16:54:09",18,"No-Social","One",6,7,"Same",0,"Novel73",3,"Novel73",3,243,"eyescenter",-1,1,0,0,1,TRUE,FALSE,6,TRUE
"479","A18PQMGPELCZ7P","16:54:09",19,"No-Social","One",6,6,"Switch",1,"Novel42",5,"Novel90",4,1687,"eyescenter",-1,0,1,0,1,TRUE,FALSE,6,FALSE
"480","A18PQMGPELCZ7P","16:54:09",20,"No-Social","One",6,7,"Same",0,"Novel73",4,"Novel73",3,3820,"eyescenter",-1,0,1,0,1,TRUE,FALSE,6,TRUE
"481","A18T7E73TNGOKP","11:19:17",1,"No-Social","One",6,0,"Switch",1,"squirrel",3,"",0,2926,"eyescenter",-1,0,0,1,1,TRUE,FALSE,6,FALSE
"482","A18T7E73TNGOKP","11:19:17",2,"No-Social","One",6,0,"Switch",1,"squirrel",1,"",0,971,"eyescenter",-1,0,0,1,1,TRUE,FALSE,6,FALSE
"483","A18T7E73TNGOKP","11:19:17",3,"No-Social","One",6,0,"Switch",1,"tomato",4,"",0,896,"eyescenter",-1,0,0,1,1,TRUE,FALSE,6,FALSE
"484","A18T7E73TNGOKP","11:19:17",4,"No-Social","One",6,0,"Switch",1,"tomato",0,"",0,550,"eyescenter",-1,0,0,1,1,TRUE,FALSE,6,FALSE
"485","A18T7E73TNGOKP","11:19:17",5,"No-Social","One",6,0,"Switch",1,"Novel57",5,"Novel5",3,1029,"eyescenter",-1,1,0,0,1,TRUE,FALSE,6,FALSE
"486","A18T7E73TNGOKP","11:19:17",6,"No-Social","One",6,1,"Same",1,"Novel22",4,"Novel22",4,925,"eyescenter",-1,1,0,0,1,TRUE,FALSE,6,TRUE
"487","A18T7E73TNGOKP","11:19:17",7,"No-Social","One",6,0,"Switch",1,"Novel41",4,"Novel5",3,1026,"eyescenter",-1,0,1,0,1,TRUE,TRUE,6,FALSE
"488","A18T7E73TNGOKP","11:19:17",8,"No-Social","One",6,1,"Same",1,"Novel71",1,"Novel22",4,1441,"eyescenter",-1,0,1,0,1,TRUE,FALSE,6,FALSE
"489","A18T7E73TNGOKP","11:19:17",9,"No-Social","One",6,2,"Switch",0,"Novel78",0,"Novel10",5,1285,"eyescenter",-1,1,0,0,1,TRUE,FALSE,6,FALSE
"490","A18T7E73TNGOKP","11:19:17",10,"No-Social","One",6,3,"Same",0,"Novel56",4,"Novel56",4,1373,"eyescenter",-1,1,0,0,1,TRUE,FALSE,6,TRUE
"491","A18T7E73TNGOKP","11:19:17",11,"No-Social","One",6,2,"Switch",0,"Novel19",4,"Novel10",5,1053,"eyescenter",-1,0,1,0,1,TRUE,FALSE,6,FALSE
"492","A18T7E73TNGOKP","11:19:17",12,"No-Social","One",6,3,"Same",0,"Novel59",2,"Novel56",4,1104,"eyescenter",-1,0,1,0,1,TRUE,FALSE,6,FALSE
"493","A18T7E73TNGOKP","11:19:17",13,"No-Social","One",6,4,"Switch",0,"Novel124",4,"Novel38",0,1029,"eyescenter",-1,1,0,0,1,TRUE,FALSE,6,FALSE
"494","A18T7E73TNGOKP","11:19:17",14,"No-Social","One",6,5,"Same",1,"Novel83",5,"Novel83",5,1120,"eyescenter",-1,1,0,0,1,TRUE,FALSE,6,TRUE
"495","A18T7E73TNGOKP","11:19:17",15,"No-Social","One",6,4,"Switch",0,"Novel9",4,"Novel38",0,1879,"eyescenter",-1,0,1,0,1,TRUE,FALSE,6,FALSE
"496","A18T7E73TNGOKP","11:19:17",16,"No-Social","One",6,5,"Same",1,"Novel80",1,"Novel83",5,691,"eyescenter",-1,0,1,0,1,TRUE,FALSE,6,FALSE
"497","A18T7E73TNGOKP","11:19:17",17,"No-Social","One",6,6,"Switch",1,"Novel47",3,"Novel20",5,942,"eyescenter",-1,1,0,0,1,TRUE,FALSE,6,FALSE
"498","A18T7E73TNGOKP","11:19:17",18,"No-Social","One",6,7,"Same",0,"Novel91",1,"Novel91",1,1544,"eyescenter",-1,1,0,0,1,TRUE,FALSE,6,TRUE
"499","A18T7E73TNGOKP","11:19:17",19,"No-Social","One",6,6,"Switch",1,"Novel128",0,"Novel20",5,863,"eyescenter",-1,0,1,0,1,TRUE,FALSE,6,FALSE
"500","A18T7E73TNGOKP","11:19:17",20,"No-Social","One",6,7,"Same",0,"Novel102",3,"Novel91",1,1263,"eyescenter",-1,0,1,0,1,TRUE,FALSE,6,FALSE
"501","A18TXM6GMU1411","04:43:17",1,"Social","One",6,0,"Switch",0,"squirrel",3,"",0,1500,"eyescenter",-1,0,0,1,1,TRUE,FALSE,6,FALSE
"502","A18TXM6GMU1411","04:43:17",2,"Social","One",6,0,"Switch",0,"squirrel",1,"",0,3737,"eyescenter",-1,0,0,1,1,TRUE,FALSE,6,FALSE
"503","A18TXM6GMU1411","04:43:17",3,"Social","One",6,0,"Switch",0,"tomato",4,"",0,1300,"eyescenter",-1,0,0,1,1,TRUE,FALSE,6,FALSE
"504","A18TXM6GMU1411","04:43:17",4,"Social","One",6,0,"Switch",0,"tomato",0,"",0,1008,"eyescenter",-1,0,0,1,1,TRUE,FALSE,6,FALSE
"505","A18TXM6GMU1411","04:43:17",5,"Social","One",6,0,"Switch",0,"Novel43",3,"Novel52",4,5053,"eyes_down_left",1,1,0,0,1,TRUE,FALSE,6,FALSE
"506","A18TXM6GMU1411","04:43:17",6,"Social","One",6,1,"Same",1,"Novel93",2,"Novel93",2,2337,"eyes_left",0,1,0,0,1,TRUE,FALSE,6,TRUE
"507","A18TXM6GMU1411","04:43:17",7,"Social","One",6,0,"Switch",0,"Novel137",4,"Novel52",4,4585,"eyescenter",-1,0,1,0,1,TRUE,TRUE,6,FALSE
"508","A18TXM6GMU1411","04:43:17",8,"Social","One",6,1,"Same",1,"Novel93",2,"Novel93",2,3374,"eyescenter",-1,0,1,0,1,TRUE,FALSE,6,TRUE
"509","A18TXM6GMU1411","04:43:17",9,"Social","One",6,2,"Switch",1,"Novel105",2,"Novel90",4,896,"eyes_left",0,1,0,0,1,TRUE,FALSE,6,FALSE
"510","A18TXM6GMU1411","04:43:17",10,"Social","One",6,3,"Same",1,"Novel45",1,"Novel45",1,1343,"eyes_right_90",5,1,0,0,1,TRUE,FALSE,6,TRUE
"511","A18TXM6GMU1411","04:43:17",11,"Social","One",6,2,"Switch",1,"Novel100",5,"Novel90",4,2183,"eyescenter",-1,0,1,0,1,TRUE,FALSE,6,FALSE
"512","A18TXM6GMU1411","04:43:17",12,"Social","One",6,3,"Same",1,"Novel45",1,"Novel45",1,1005,"eyescenter",-1,0,1,0,1,TRUE,FALSE,6,TRUE
"513","A18TXM6GMU1411","04:43:17",13,"Social","One",6,4,"Switch",0,"Novel64",2,"Novel41",1,771,"eyes_left",0,1,0,0,1,TRUE,FALSE,6,FALSE
"514","A18TXM6GMU1411","04:43:17",14,"Social","One",6,5,"Same",0,"Novel117",0,"Novel117",0,619,"eyes_left_90",4,1,0,0,1,TRUE,FALSE,6,TRUE
"515","A18TXM6GMU1411","04:43:17",15,"Social","One",6,4,"Switch",0,"Novel123",5,"Novel41",1,3349,"eyescenter",-1,0,1,0,1,TRUE,FALSE,6,FALSE
"516","A18TXM6GMU1411","04:43:17",16,"Social","One",6,5,"Same",0,"Novel13",1,"Novel117",0,1273,"eyescenter",-1,0,1,0,1,TRUE,FALSE,6,FALSE
"517","A18TXM6GMU1411","04:43:17",17,"Social","One",6,6,"Switch",1,"Novel39",5,"Novel98",0,1020,"eyes_down_right",2,1,0,0,1,TRUE,FALSE,6,FALSE
"518","A18TXM6GMU1411","04:43:17",18,"Social","One",6,7,"Same",0,"Novel107",2,"Novel107",2,2014,"eyes_left",0,1,0,0,1,TRUE,FALSE,6,TRUE
"519","A18TXM6GMU1411","04:43:17",19,"Social","One",6,6,"Switch",1,"Novel60",1,"Novel98",0,2387,"eyescenter",-1,0,1,0,1,TRUE,FALSE,6,FALSE
"520","A18TXM6GMU1411","04:43:17",20,"Social","One",6,7,"Same",0,"Novel109",4,"Novel107",2,1690,"eyescenter",-1,0,1,0,1,TRUE,FALSE,6,FALSE
"521","A197CFEJALDG44","15:41:05",1,"No-Social","One",6,0,"Same",0,"squirrel",3,"",0,5253,"eyescenter",-1,0,0,1,1,TRUE,FALSE,6,FALSE
"522","A197CFEJALDG44","15:41:05",2,"No-Social","One",6,0,"Same",0,"squirrel",1,"",0,1711,"eyescenter",-1,0,0,1,1,TRUE,FALSE,6,FALSE
"523","A197CFEJALDG44","15:41:05",3,"No-Social","One",6,0,"Same",0,"tomato",4,"",0,1481,"eyescenter",-1,0,0,1,1,TRUE,FALSE,6,FALSE
"524","A197CFEJALDG44","15:41:05",4,"No-Social","One",6,0,"Same",0,"tomato",0,"",0,996,"eyescenter",-1,0,0,1,1,TRUE,FALSE,6,FALSE
"525","A197CFEJALDG44","15:41:05",5,"No-Social","One",6,0,"Same",0,"Novel5",0,"Novel5",0,15473,"eyescenter",-1,1,0,0,1,TRUE,FALSE,6,TRUE
"526","A197CFEJALDG44","15:41:05",6,"No-Social","One",6,1,"Switch",1,"Novel12",4,"Novel29",5,8099,"eyescenter",-1,1,0,0,1,TRUE,FALSE,6,FALSE
"527","A197CFEJALDG44","15:41:05",7,"No-Social","One",6,0,"Same",0,"Novel5",4,"Novel5",0,1795,"eyescenter",-1,0,1,0,1,TRUE,TRUE,6,TRUE
"528","A197CFEJALDG44","15:41:05",8,"No-Social","One",6,1,"Switch",1,"Novel29",5,"Novel29",5,5561,"eyescenter",-1,0,1,0,1,TRUE,FALSE,6,TRUE
"529","A197CFEJALDG44","15:41:05",9,"No-Social","One",6,2,"Same",1,"Novel71",2,"Novel71",2,5547,"eyescenter",-1,1,0,0,1,TRUE,FALSE,6,TRUE
"530","A197CFEJALDG44","15:41:05",10,"No-Social","One",6,3,"Switch",0,"Novel104",3,"Novel131",2,6267,"eyescenter",-1,1,0,0,1,TRUE,FALSE,6,FALSE
"531","A197CFEJALDG44","15:41:05",11,"No-Social","One",6,2,"Same",1,"Novel71",2,"Novel71",2,1133,"eyescenter",-1,0,1,0,1,TRUE,FALSE,6,TRUE
"532","A197CFEJALDG44","15:41:05",12,"No-Social","One",6,3,"Switch",0,"Novel131",5,"Novel131",2,4281,"eyescenter",-1,0,1,0,1,TRUE,FALSE,6,TRUE
"533","A197CFEJALDG44","15:41:05",13,"No-Social","One",6,4,"Same",1,"Novel19",1,"Novel19",1,3448,"eyescenter",-1,1,0,0,1,TRUE,FALSE,6,TRUE
"534","A197CFEJALDG44","15:41:05",14,"No-Social","One",6,5,"Switch",0,"Novel28",3,"Novel1",5,1879,"eyescenter",-1,1,0,0,1,TRUE,FALSE,6,FALSE
"535","A197CFEJALDG44","15:41:05",15,"No-Social","One",6,4,"Same",1,"Novel19",1,"Novel19",1,3766,"eyescenter",-1,0,1,0,1,TRUE,FALSE,6,TRUE
"536","A197CFEJALDG44","15:41:05",16,"No-Social","One",6,5,"Switch",0,"Novel116",2,"Novel1",5,3024,"eyescenter",-1,0,1,0,1,TRUE,FALSE,6,FALSE
"537","A197CFEJALDG44","15:41:05",17,"No-Social","One",6,6,"Same",0,"Novel76",4,"Novel76",4,3041,"eyescenter",-1,1,0,0,1,TRUE,FALSE,6,TRUE
"538","A197CFEJALDG44","15:41:05",18,"No-Social","One",6,7,"Switch",1,"Novel46",1,"Novel42",3,6604,"eyescenter",-1,1,0,0,1,TRUE,FALSE,6,FALSE
"539","A197CFEJALDG44","15:41:05",19,"No-Social","One",6,6,"Same",0,"Novel76",5,"Novel76",4,2057,"eyescenter",-1,0,1,0,1,TRUE,FALSE,6,TRUE
"540","A197CFEJALDG44","15:41:05",20,"No-Social","One",6,7,"Switch",1,"Novel42",3,"Novel42",3,7267,"eyescenter",-1,0,1,0,1,TRUE,FALSE,6,TRUE
"541","A198BXTQJZ7YYT","16:41:25",1,"Social","One",6,0,"Same",0,"squirrel",3,"",0,2605,"eyescenter",-1,0,0,1,1,TRUE,FALSE,6,FALSE
"542","A198BXTQJZ7YYT","16:41:25",2,"Social","One",6,0,"Same",0,"squirrel",1,"",0,1598,"eyescenter",-1,0,0,1,1,TRUE,FALSE,6,FALSE
"543","A198BXTQJZ7YYT","16:41:25",3,"Social","One",6,0,"Same",0,"tomato",4,"",0,4227,"eyescenter",-1,0,0,1,1,TRUE,FALSE,6,FALSE
"544","A198BXTQJZ7YYT","16:41:25",4,"Social","One",6,0,"Same",0,"tomato",0,"",0,2273,"eyescenter",-1,0,0,1,1,TRUE,FALSE,6,FALSE
"545","A198BXTQJZ7YYT","16:41:25",5,"Social","One",6,0,"Same",0,"Novel112",4,"Novel112",4,5186,"eyes_down_right",2,1,0,0,1,TRUE,FALSE,6,TRUE
"546","A198BXTQJZ7YYT","16:41:25",6,"Social","One",6,1,"Switch",1,"Novel93",3,"Novel12",2,2190,"eyes_down_left",1,1,0,0,1,TRUE,FALSE,6,FALSE
"547","A198BXTQJZ7YYT","16:41:25",7,"Social","One",6,0,"Same",0,"Novel112",2,"Novel112",4,1479,"eyescenter",-1,0,1,0,1,TRUE,TRUE,6,TRUE
"548","A198BXTQJZ7YYT","16:41:25",8,"Social","One",6,1,"Switch",1,"Novel12",2,"Novel12",2,2053,"eyescenter",-1,0,1,0,1,TRUE,FALSE,6,TRUE
"549","A198BXTQJZ7YYT","16:41:25",9,"Social","One",6,2,"Same",1,"Novel73",0,"Novel73",0,1245,"eyes_left_90",4,1,0,0,1,TRUE,FALSE,6,TRUE
"550","A198BXTQJZ7YYT","16:41:25",10,"Social","One",6,3,"Switch",1,"Novel90",1,"Novel25",5,2141,"eyes_right_90",5,1,0,0,1,TRUE,FALSE,6,FALSE
"551","A198BXTQJZ7YYT","16:41:25",11,"Social","One",6,2,"Same",1,"Novel73",0,"Novel73",0,1112,"eyescenter",-1,0,1,0,1,TRUE,FALSE,6,TRUE
"552","A198BXTQJZ7YYT","16:41:25",12,"Social","One",6,3,"Switch",1,"Novel123",1,"Novel25",5,4150,"eyescenter",-1,0,1,0,1,TRUE,FALSE,6,FALSE
"553","A198BXTQJZ7YYT","16:41:25",13,"Social","One",6,4,"Same",0,"Novel41",5,"Novel41",5,1890,"eyes_right",3,1,0,0,1,TRUE,FALSE,6,TRUE
"554","A198BXTQJZ7YYT","16:41:25",14,"Social","One",6,5,"Switch",0,"Novel55",5,"Novel84",4,1160,"eyes_right",3,1,0,0,1,TRUE,FALSE,6,FALSE
"555","A198BXTQJZ7YYT","16:41:25",15,"Social","One",6,4,"Same",0,"Novel41",0,"Novel41",5,2610,"eyescenter",-1,0,1,0,1,TRUE,FALSE,6,TRUE
"556","A198BXTQJZ7YYT","16:41:25",16,"Social","One",6,5,"Switch",0,"Novel98",5,"Novel84",4,5778,"eyescenter",-1,0,1,0,1,TRUE,FALSE,6,FALSE
"557","A198BXTQJZ7YYT","16:41:25",17,"Social","One",6,6,"Same",1,"Novel130",3,"Novel130",3,1548,"eyes_down_left",1,1,0,0,1,TRUE,FALSE,6,TRUE
"558","A198BXTQJZ7YYT","16:41:25",18,"Social","One",6,7,"Switch",0,"Novel87",1,"Novel136",0,1915,"eyes_right_90",5,1,0,0,1,TRUE,FALSE,6,FALSE
"559","A198BXTQJZ7YYT","16:41:25",19,"Social","One",6,6,"Same",1,"Novel130",3,"Novel130",3,3710,"eyescenter",-1,0,1,0,1,TRUE,FALSE,6,TRUE
"560","A198BXTQJZ7YYT","16:41:25",20,"Social","One",6,7,"Switch",0,"Novel138",3,"Novel136",0,9452,"eyescenter",-1,0,1,0,1,TRUE,FALSE,6,FALSE
"561","A199AEJ0AU85KA","12:00:20",1,"Social","One",6,0,"Same",0,"squirrel",3,"",0,2319,"eyescenter",-1,0,0,1,1,TRUE,FALSE,6,FALSE
"562","A199AEJ0AU85KA","12:00:20",2,"Social","One",6,0,"Same",0,"squirrel",1,"",0,1545,"eyescenter",-1,0,0,1,1,TRUE,FALSE,6,FALSE
"563","A199AEJ0AU85KA","12:00:20",3,"Social","One",6,0,"Same",0,"tomato",4,"",0,1122,"eyescenter",-1,0,0,1,1,TRUE,FALSE,6,FALSE
"564","A199AEJ0AU85KA","12:00:20",4,"Social","One",6,0,"Same",0,"tomato",0,"",0,895,"eyescenter",-1,0,0,1,1,TRUE,FALSE,6,FALSE
"565","A199AEJ0AU85KA","12:00:20",5,"Social","One",6,0,"Same",0,"Novel46",4,"Novel46",4,2099,"eyes_down_right",2,1,0,0,1,TRUE,FALSE,6,TRUE
"566","A199AEJ0AU85KA","12:00:20",6,"Social","One",6,1,"Switch",0,"Novel108",4,"Novel78",0,3330,"eyes_down_right",2,1,0,0,1,TRUE,FALSE,6,FALSE
"567","A199AEJ0AU85KA","12:00:20",7,"Social","One",6,0,"Same",0,"Novel46",2,"Novel46",4,2209,"eyescenter",-1,0,1,0,1,TRUE,TRUE,6,TRUE
"568","A199AEJ0AU85KA","12:00:20",8,"Social","One",6,1,"Switch",0,"Novel117",3,"Novel78",0,4081,"eyescenter",-1,0,1,0,1,TRUE,FALSE,6,FALSE
"569","A199AEJ0AU85KA","12:00:20",9,"Social","One",6,2,"Same",0,"Novel79",0,"Novel79",0,1216,"eyes_left_90",4,1,0,0,1,TRUE,FALSE,6,TRUE
"570","A199AEJ0AU85KA","12:00:20",10,"Social","One",6,3,"Switch",1,"Novel104",0,"Novel116",2,1689,"eyes_left_90",4,1,0,0,1,TRUE,FALSE,6,FALSE
"571","A199AEJ0AU85KA","12:00:20",11,"Social","One",6,2,"Same",0,"Novel79",4,"Novel79",0,937,"eyescenter",-1,0,1,0,1,TRUE,FALSE,6,TRUE
"572","A199AEJ0AU85KA","12:00:20",12,"Social","One",6,3,"Switch",1,"Novel80",1,"Novel116",2,4873,"eyescenter",-1,0,1,0,1,TRUE,FALSE,6,FALSE
"573","A199AEJ0AU85KA","12:00:20",13,"Social","One",6,4,"Same",1,"Novel3",1,"Novel3",1,1292,"eyes_right_90",5,1,0,0,1,TRUE,FALSE,6,TRUE
"574","A199AEJ0AU85KA","12:00:20",14,"Social","One",6,5,"Switch",1,"Novel64",2,"Novel58",5,1726,"eyes_left",0,1,0,0,1,TRUE,FALSE,6,FALSE
"575","A199AEJ0AU85KA","12:00:20",15,"Social","One",6,4,"Same",1,"Novel3",1,"Novel3",1,854,"eyescenter",-1,0,1,0,1,TRUE,FALSE,6,TRUE
"576","A199AEJ0AU85KA","12:00:20",16,"Social","One",6,5,"Switch",1,"Novel54",0,"Novel58",5,5903,"eyescenter",-1,0,1,0,1,TRUE,FALSE,6,FALSE
"577","A199AEJ0AU85KA","12:00:20",17,"Social","One",6,6,"Same",1,"Novel2",3,"Novel2",3,1903,"eyes_down_left",1,1,0,0,1,TRUE,FALSE,6,TRUE
"578","A199AEJ0AU85KA","12:00:20",18,"Social","One",6,7,"Switch",0,"Novel4",3,"Novel119",5,1256,"eyes_down_left",1,1,0,0,1,TRUE,FALSE,6,FALSE
"579","A199AEJ0AU85KA","12:00:20",19,"Social","One",6,6,"Same",1,"Novel2",3,"Novel2",3,3045,"eyescenter",-1,0,1,0,1,TRUE,FALSE,6,TRUE
"580","A199AEJ0AU85KA","12:00:20",20,"Social","One",6,7,"Switch",0,"Novel48",4,"Novel119",5,2935,"eyescenter",-1,0,1,0,1,TRUE,FALSE,6,FALSE
"581","A19F85WDB2IBQZ","19:10:58",1,"Social","Three",6,0,"Same",1,"squirrel",3,"",0,2050,"eyescenter",-1,0,0,1,3,TRUE,FALSE,6,FALSE
"582","A19F85WDB2IBQZ","19:10:58",2,"Social","Three",6,0,"Same",1,"squirrel",1,"",0,1403,"eyescenter",-1,0,0,1,3,TRUE,FALSE,6,FALSE
"583","A19F85WDB2IBQZ","19:10:58",3,"Social","Three",6,0,"Same",1,"tomato",4,"",0,1518,"eyescenter",-1,0,0,1,3,TRUE,FALSE,6,FALSE
"584","A19F85WDB2IBQZ","19:10:58",4,"Social","Three",6,0,"Same",1,"tomato",0,"",0,1023,"eyescenter",-1,0,0,1,3,TRUE,FALSE,6,FALSE
"585","A19F85WDB2IBQZ","19:10:58",5,"Social","Three",6,0,"Same",1,"Novel88",5,"Novel88",5,3011,"eyes_right",3,1,0,0,3,TRUE,FALSE,6,TRUE
"586","A19F85WDB2IBQZ","19:10:58",6,"Social","Three",6,1,"Switch",0,"Novel29",2,"Novel66",5,3399,"eyes_left",0,1,0,0,3,TRUE,FALSE,6,FALSE
"587","A19F85WDB2IBQZ","19:10:58",7,"Social","Three",6,2,"Same",0,"Novel58",3,"Novel58",3,2288,"eyes_down_left",1,1,0,0,3,TRUE,FALSE,6,TRUE
"588","A19F85WDB2IBQZ","19:10:58",8,"Social","Three",6,3,"Switch",0,"Novel127",1,"Novel43",0,4759,"eyes_right_90",5,1,0,0,3,TRUE,FALSE,6,FALSE
"589","A19F85WDB2IBQZ","19:10:58",9,"Social","Three",6,0,"Same",1,"Novel88",5,"Novel88",5,1149,"eyescenter",-1,0,1,0,3,TRUE,TRUE,6,TRUE
"590","A19F85WDB2IBQZ","19:10:58",10,"Social","Three",6,1,"Switch",0,"Novel66",2,"Novel66",5,14495,"eyescenter",-1,0,1,0,3,TRUE,FALSE,6,TRUE
"591","A19F85WDB2IBQZ","19:10:58",11,"Social","Three",6,2,"Same",0,"Novel58",1,"Novel58",3,1340,"eyescenter",-1,0,1,0,3,TRUE,FALSE,6,TRUE
"592","A19F85WDB2IBQZ","19:10:58",12,"Social","Three",6,3,"Switch",0,"Novel61",1,"Novel43",0,8780,"eyescenter",-1,0,1,0,3,TRUE,FALSE,6,FALSE
"593","A19F85WDB2IBQZ","19:10:58",13,"Social","Three",6,4,"Same",0,"Novel117",0,"Novel117",0,3387,"eyes_left_90",4,1,0,0,3,TRUE,FALSE,6,TRUE
"594","A19F85WDB2IBQZ","19:10:58",14,"Social","Three",6,5,"Switch",1,"Novel28",1,"Novel52",3,1465,"eyes_right_90",5,1,0,0,3,TRUE,FALSE,6,FALSE
"595","A19F85WDB2IBQZ","19:10:58",15,"Social","Three",6,6,"Same",1,"Novel32",2,"Novel32",2,1244,"eyes_left",0,1,0,0,3,TRUE,FALSE,6,TRUE
"596","A19F85WDB2IBQZ","19:10:58",16,"Social","Three",6,7,"Switch",1,"Novel120",1,"Novel31",4,973,"eyes_right_90",5,1,0,0,3,TRUE,FALSE,6,FALSE
"597","A19F85WDB2IBQZ","19:10:58",17,"Social","Three",6,4,"Same",0,"Novel117",3,"Novel117",0,3584,"eyescenter",-1,0,1,0,3,TRUE,FALSE,6,TRUE
"598","A19F85WDB2IBQZ","19:10:58",18,"Social","Three",6,5,"Switch",1,"Novel24",1,"Novel52",3,2550,"eyescenter",-1,0,1,0,3,TRUE,FALSE,6,FALSE
"599","A19F85WDB2IBQZ","19:10:58",19,"Social","Three",6,6,"Same",1,"Novel3",1,"Novel32",2,4622,"eyescenter",-1,0,1,0,3,TRUE,FALSE,6,FALSE
"600","A19F85WDB2IBQZ","19:10:58",20,"Social","Three",6,7,"Switch",1,"Novel40",3,"Novel31",4,4321,"eyescenter",-1,0,1,0,3,TRUE,FALSE,6,FALSE
"601","A19RQWEFUEB1QU","18:37:25",1,"No-Social","Seven",6,0,"Same",0,"squirrel",3,"",0,4431,"eyescenter",-1,0,0,1,7,TRUE,FALSE,6,FALSE
"602","A19RQWEFUEB1QU","18:37:25",2,"No-Social","Seven",6,0,"Same",0,"squirrel",1,"",0,765,"eyescenter",-1,0,0,1,7,TRUE,FALSE,6,FALSE
"603","A19RQWEFUEB1QU","18:37:25",3,"No-Social","Seven",6,0,"Same",0,"tomato",4,"",0,1030,"eyescenter",-1,0,0,1,7,TRUE,FALSE,6,FALSE
"604","A19RQWEFUEB1QU","18:37:25",4,"No-Social","Seven",6,0,"Same",0,"tomato",0,"",0,484,"eyescenter",-1,0,0,1,7,TRUE,FALSE,6,FALSE
"605","A19RQWEFUEB1QU","18:37:25",5,"No-Social","Seven",6,0,"Same",0,"Novel45",4,"Novel45",4,3042,"eyescenter",-1,1,0,0,7,TRUE,FALSE,6,TRUE
"606","A19RQWEFUEB1QU","18:37:25",6,"No-Social","Seven",6,1,"Switch",0,"Novel32",3,"Novel28",0,1576,"eyescenter",-1,1,0,0,7,TRUE,FALSE,6,FALSE
"607","A19RQWEFUEB1QU","18:37:25",7,"No-Social","Seven",6,2,"Same",0,"Novel34",3,"Novel34",3,1638,"eyescenter",-1,1,0,0,7,TRUE,FALSE,6,TRUE
"608","A19RQWEFUEB1QU","18:37:25",8,"No-Social","Seven",6,3,"Switch",1,"Novel4",2,"Novel61",5,1904,"eyescenter",-1,1,0,0,7,TRUE,FALSE,6,FALSE
"609","A19RQWEFUEB1QU","18:37:25",9,"No-Social","Seven",6,4,"Same",1,"Novel23",1,"Novel23",1,1467,"eyescenter",-1,1,0,0,7,TRUE,FALSE,6,TRUE
"610","A19RQWEFUEB1QU","18:37:25",10,"No-Social","Seven",6,5,"Switch",0,"Novel122",4,"Novel16",3,1810,"eyescenter",-1,1,0,0,7,TRUE,FALSE,6,FALSE
"611","A19RQWEFUEB1QU","18:37:25",11,"No-Social","Seven",6,6,"Same",1,"Novel73",4,"Novel73",4,1607,"eyescenter",-1,1,0,0,7,TRUE,FALSE,6,TRUE
"612","A19RQWEFUEB1QU","18:37:25",12,"No-Social","Seven",6,7,"Switch",1,"Novel128",0,"Novel79",3,1466,"eyescenter",-1,1,0,0,7,TRUE,FALSE,6,FALSE
"613","A19RQWEFUEB1QU","18:37:25",13,"No-Social","Seven",6,0,"Same",0,"Novel45",1,"Novel45",4,3182,"eyescenter",-1,0,1,0,7,TRUE,TRUE,6,TRUE
"614","A19RQWEFUEB1QU","18:37:25",14,"No-Social","Seven",6,1,"Switch",0,"Novel108",3,"Novel28",0,2153,"eyescenter",-1,0,1,0,7,TRUE,FALSE,6,FALSE
"615","A19RQWEFUEB1QU","18:37:25",15,"No-Social","Seven",6,2,"Same",0,"Novel34",2,"Novel34",3,2293,"eyescenter",-1,0,1,0,7,TRUE,FALSE,6,TRUE
"616","A19RQWEFUEB1QU","18:37:25",16,"No-Social","Seven",6,3,"Switch",1,"Novel139",1,"Novel61",5,1747,"eyescenter",-1,0,1,0,7,TRUE,FALSE,6,FALSE
"617","A19RQWEFUEB1QU","18:37:25",17,"No-Social","Seven",6,4,"Same",1,"Novel23",1,"Novel23",1,1716,"eyescenter",-1,0,1,0,7,TRUE,FALSE,6,TRUE
"618","A19RQWEFUEB1QU","18:37:25",18,"No-Social","Seven",6,5,"Switch",0,"Novel66",3,"Novel16",3,2012,"eyescenter",-1,0,1,0,7,TRUE,FALSE,6,FALSE
"619","A19RQWEFUEB1QU","18:37:25",19,"No-Social","Seven",6,6,"Same",1,"Novel106",3,"Novel73",4,1809,"eyescenter",-1,0,1,0,7,TRUE,FALSE,6,FALSE
"620","A19RQWEFUEB1QU","18:37:25",20,"No-Social","Seven",6,7,"Switch",1,"Novel98",5,"Novel79",3,2013,"eyescenter",-1,0,1,0,7,TRUE,FALSE,6,FALSE
"621","A19SHNJ3X99G2Y","19:59:50",1,"Social","Seven",6,0,"Same",1,"squirrel",3,"",0,1747,"eyescenter",-1,0,0,1,7,TRUE,FALSE,6,FALSE
"622","A19SHNJ3X99G2Y","19:59:50",2,"Social","Seven",6,0,"Same",1,"squirrel",1,"",0,1553,"eyescenter",-1,0,0,1,7,TRUE,FALSE,6,FALSE
"623","A19SHNJ3X99G2Y","19:59:50",3,"Social","Seven",6,0,"Same",1,"tomato",4,"",0,1886,"eyescenter",-1,0,0,1,7,TRUE,FALSE,6,FALSE
"624","A19SHNJ3X99G2Y","19:59:50",4,"Social","Seven",6,0,"Same",1,"tomato",0,"",0,9838,"eyescenter",-1,0,0,1,7,TRUE,FALSE,6,FALSE
"625","A19SHNJ3X99G2Y","19:59:50",5,"Social","Seven",6,0,"Same",1,"Novel55",1,"Novel55",1,18222,"eyes_right_90",5,1,0,0,7,TRUE,FALSE,6,TRUE
"626","A19SHNJ3X99G2Y","19:59:50",6,"Social","Seven",6,1,"Switch",1,"Novel125",1,"Novel116",3,3505,"eyes_right_90",5,1,0,0,7,TRUE,FALSE,6,FALSE
"627","A19SHNJ3X99G2Y","19:59:50",7,"Social","Seven",6,2,"Same",0,"Novel7",4,"Novel7",4,1922,"eyes_down_right",2,1,0,0,7,TRUE,FALSE,6,TRUE
"628","A19SHNJ3X99G2Y","19:59:50",8,"Social","Seven",6,3,"Switch",1,"Novel122",3,"Novel34",1,1570,"eyes_down_left",1,1,0,0,7,TRUE,FALSE,6,FALSE
"629","A19SHNJ3X99G2Y","19:59:50",9,"Social","Seven",6,4,"Same",1,"Novel109",5,"Novel109",5,1424,"eyes_right",3,1,0,0,7,TRUE,FALSE,6,TRUE
"630","A19SHNJ3X99G2Y","19:59:50",10,"Social","Seven",6,5,"Switch",0,"Novel58",0,"Novel139",5,1229,"eyes_left_90",4,1,0,0,7,TRUE,FALSE,6,FALSE
"631","A19SHNJ3X99G2Y","19:59:50",11,"Social","Seven",6,6,"Same",0,"Novel88",0,"Novel88",0,1264,"eyes_left_90",4,1,0,0,7,TRUE,FALSE,6,TRUE
"632","A19SHNJ3X99G2Y","19:59:50",12,"Social","Seven",6,7,"Switch",0,"Novel83",4,"Novel8",3,1791,"eyes_down_right",2,1,0,0,7,TRUE,FALSE,6,FALSE
"633","A19SHNJ3X99G2Y","19:59:50",13,"Social","Seven",6,0,"Same",1,"Novel48",3,"Novel55",1,5319,"eyescenter",-1,0,1,0,7,TRUE,TRUE,6,FALSE
"634","A19SHNJ3X99G2Y","19:59:50",14,"Social","Seven",6,1,"Switch",1,"Novel138",0,"Novel116",3,5437,"eyescenter",-1,0,1,0,7,TRUE,FALSE,6,FALSE
"635","A19SHNJ3X99G2Y","19:59:50",15,"Social","Seven",6,2,"Same",0,"Novel7",5,"Novel7",4,2470,"eyescenter",-1,0,1,0,7,TRUE,FALSE,6,TRUE
"636","A19SHNJ3X99G2Y","19:59:50",16,"Social","Seven",6,3,"Switch",1,"Novel11",0,"Novel34",1,5477,"eyescenter",-1,0,1,0,7,TRUE,FALSE,6,FALSE
"637","A19SHNJ3X99G2Y","19:59:50",17,"Social","Seven",6,4,"Same",1,"Novel130",4,"Novel109",5,3219,"eyescenter",-1,0,1,0,7,TRUE,FALSE,6,FALSE
"638","A19SHNJ3X99G2Y","19:59:50",18,"Social","Seven",6,5,"Switch",0,"Novel24",2,"Novel139",5,3383,"eyescenter",-1,0,1,0,7,TRUE,FALSE,6,FALSE
"639","A19SHNJ3X99G2Y","19:59:50",19,"Social","Seven",6,6,"Same",0,"Novel88",4,"Novel88",0,4363,"eyescenter",-1,0,1,0,7,TRUE,FALSE,6,TRUE
"640","A19SHNJ3X99G2Y","19:59:50",20,"Social","Seven",6,7,"Switch",0,"Novel128",2,"Novel8",3,3238,"eyescenter",-1,0,1,0,7,TRUE,FALSE,6,FALSE
"641","A1A6QWWGNGUGEN","04:43:33",1,"Social","One",6,0,"Switch",0,"squirrel",3,"",0,2880,"eyescenter",-1,0,0,1,1,TRUE,FALSE,6,FALSE
"642","A1A6QWWGNGUGEN","04:43:33",2,"Social","One",6,0,"Switch",0,"squirrel",1,"",0,2344,"eyescenter",-1,0,0,1,1,TRUE,FALSE,6,FALSE
"643","A1A6QWWGNGUGEN","04:43:33",3,"Social","One",6,0,"Switch",0,"tomato",4,"",0,1779,"eyescenter",-1,0,0,1,1,TRUE,FALSE,6,FALSE
"644","A1A6QWWGNGUGEN","04:43:33",4,"Social","One",6,0,"Switch",0,"tomato",0,"",0,1184,"eyescenter",-1,0,0,1,1,TRUE,FALSE,6,FALSE
"645","A1A6QWWGNGUGEN","04:43:33",5,"Social","One",6,0,"Switch",0,"Novel18",1,"Novel133",0,6143,"eyes_right_90",5,1,0,0,1,TRUE,FALSE,6,FALSE
"646","A1A6QWWGNGUGEN","04:43:33",6,"Social","One",6,1,"Same",0,"Novel24",0,"Novel24",0,3075,"eyes_down_right",2,1,0,0,1,TRUE,FALSE,6,TRUE
"647","A1A6QWWGNGUGEN","04:43:33",7,"Social","One",6,0,"Switch",0,"Novel133",2,"Novel133",0,9820,"eyescenter",-1,0,1,0,1,TRUE,TRUE,6,TRUE
"648","A1A6QWWGNGUGEN","04:43:33",8,"Social","One",6,1,"Same",0,"Novel24",5,"Novel24",0,3028,"eyescenter",-1,0,1,0,1,TRUE,FALSE,6,TRUE
"649","A1A6QWWGNGUGEN","04:43:33",9,"Social","One",6,2,"Switch",0,"Novel134",5,"Novel26",1,2436,"eyes_left",0,1,0,0,1,TRUE,FALSE,6,FALSE
"650","A1A6QWWGNGUGEN","04:43:33",10,"Social","One",6,3,"Same",0,"Novel63",0,"Novel63",0,2313,"eyes_left_90",4,1,0,0,1,TRUE,FALSE,6,TRUE
"651","A1A6QWWGNGUGEN","04:43:33",11,"Social","One",6,2,"Switch",0,"Novel38",1,"Novel26",1,9599,"eyescenter",-1,0,1,0,1,TRUE,FALSE,6,FALSE
"652","A1A6QWWGNGUGEN","04:43:33",12,"Social","One",6,3,"Same",0,"Novel63",5,"Novel63",0,3467,"eyescenter",-1,0,1,0,1,TRUE,FALSE,6,TRUE
"653","A1A6QWWGNGUGEN","04:43:33",13,"Social","One",6,4,"Switch",1,"Novel22",0,"Novel41",5,2883,"eyes_left_90",4,1,0,0,1,TRUE,FALSE,6,FALSE
"654","A1A6QWWGNGUGEN","04:43:33",14,"Social","One",6,5,"Same",1,"Novel99",1,"Novel99",1,1913,"eyes_right_90",5,1,0,0,1,TRUE,FALSE,6,TRUE
"655","A1A6QWWGNGUGEN","04:43:33",15,"Social","One",6,4,"Switch",1,"Novel41",5,"Novel41",5,7598,"eyescenter",-1,0,1,0,1,TRUE,FALSE,6,TRUE
"656","A1A6QWWGNGUGEN","04:43:33",16,"Social","One",6,5,"Same",1,"Novel99",1,"Novel99",1,1322,"eyescenter",-1,0,1,0,1,TRUE,FALSE,6,TRUE
"657","A1A6QWWGNGUGEN","04:43:33",17,"Social","One",6,6,"Switch",1,"Novel17",0,"Novel6",5,5561,"eyes_left_90",4,1,0,0,1,TRUE,FALSE,6,FALSE
"658","A1A6QWWGNGUGEN","04:43:33",18,"Social","One",6,7,"Same",1,"Novel55",2,"Novel55",2,2643,"eyes_left",0,1,0,0,1,TRUE,FALSE,6,TRUE
"659","A1A6QWWGNGUGEN","04:43:33",19,"Social","One",6,6,"Switch",1,"Novel6",5,"Novel6",5,4273,"eyescenter",-1,0,1,0,1,TRUE,FALSE,6,TRUE
"660","A1A6QWWGNGUGEN","04:43:33",20,"Social","One",6,7,"Same",1,"Novel55",2,"Novel55",2,4736,"eyescenter",-1,0,1,0,1,TRUE,FALSE,6,TRUE
"661","A1A9MUU7XM4LHX","16:51:38",1,"Social","Three",6,0,"Switch",1,"squirrel",3,"",0,5188,"eyescenter",-1,0,0,1,3,TRUE,FALSE,6,FALSE
"662","A1A9MUU7XM4LHX","16:51:38",2,"Social","Three",6,0,"Switch",1,"squirrel",1,"",0,2811,"eyescenter",-1,0,0,1,3,TRUE,FALSE,6,FALSE
"663","A1A9MUU7XM4LHX","16:51:38",3,"Social","Three",6,0,"Switch",1,"tomato",4,"",0,1753,"eyescenter",-1,0,0,1,3,TRUE,FALSE,6,FALSE
"664","A1A9MUU7XM4LHX","16:51:38",4,"Social","Three",6,0,"Switch",1,"tomato",0,"",0,1200,"eyescenter",-1,0,0,1,3,TRUE,FALSE,6,FALSE
"665","A1A9MUU7XM4LHX","16:51:38",5,"Social","Three",6,0,"Switch",1,"Novel104",5,"Novel91",0,2147,"eyes_right",3,1,0,0,3,TRUE,FALSE,6,FALSE
"666","A1A9MUU7XM4LHX","16:51:38",6,"Social","Three",6,1,"Same",1,"Novel77",4,"Novel77",4,2137,"eyes_down_right",2,1,0,0,3,TRUE,FALSE,6,TRUE
"667","A1A9MUU7XM4LHX","16:51:38",7,"Social","Three",6,2,"Switch",0,"Novel53",5,"Novel68",1,2231,"eyes_right",3,1,0,0,3,TRUE,FALSE,6,FALSE
"668","A1A9MUU7XM4LHX","16:51:38",8,"Social","Three",6,3,"Same",0,"Novel28",2,"Novel28",2,2105,"eyes_left",0,1,0,0,3,TRUE,FALSE,6,TRUE
"669","A1A9MUU7XM4LHX","16:51:38",9,"Social","Three",6,0,"Switch",1,"Novel91",0,"Novel91",0,6221,"eyescenter",-1,0,1,0,3,TRUE,TRUE,6,TRUE
"670","A1A9MUU7XM4LHX","16:51:38",10,"Social","Three",6,1,"Same",1,"Novel77",4,"Novel77",4,2131,"eyescenter",-1,0,1,0,3,TRUE,FALSE,6,TRUE
"671","A1A9MUU7XM4LHX","16:51:38",11,"Social","Three",6,2,"Switch",0,"Novel68",3,"Novel68",1,7734,"eyescenter",-1,0,1,0,3,TRUE,FALSE,6,TRUE
"672","A1A9MUU7XM4LHX","16:51:38",12,"Social","Three",6,3,"Same",0,"Novel28",0,"Novel28",2,4710,"eyescenter",-1,0,1,0,3,TRUE,FALSE,6,TRUE
"673","A1A9MUU7XM4LHX","16:51:38",13,"Social","Three",6,4,"Switch",0,"Novel6",0,"Novel113",5,2215,"eyes_left_90",4,1,0,0,3,TRUE,FALSE,6,FALSE
"674","A1A9MUU7XM4LHX","16:51:38",14,"Social","Three",6,5,"Same",1,"Novel99",4,"Novel99",4,1632,"eyes_down_right",2,1,0,0,3,TRUE,FALSE,6,TRUE
"675","A1A9MUU7XM4LHX","16:51:38",15,"Social","Three",6,6,"Switch",1,"Novel5",0,"Novel116",5,1741,"eyes_left_90",4,1,0,0,3,TRUE,FALSE,6,FALSE
"676","A1A9MUU7XM4LHX","16:51:38",16,"Social","Three",6,7,"Same",0,"Novel79",1,"Novel79",1,1830,"eyes_right_90",5,1,0,0,3,TRUE,FALSE,6,TRUE
"677","A1A9MUU7XM4LHX","16:51:38",17,"Social","Three",6,4,"Switch",0,"Novel113",2,"Novel113",5,13023,"eyescenter",-1,0,1,0,3,TRUE,FALSE,6,TRUE
"678","A1A9MUU7XM4LHX","16:51:38",18,"Social","Three",6,5,"Same",1,"Novel99",4,"Novel99",4,1482,"eyescenter",-1,0,1,0,3,TRUE,FALSE,6,TRUE
"679","A1A9MUU7XM4LHX","16:51:38",19,"Social","Three",6,6,"Switch",1,"Novel35",4,"Novel116",5,11068,"eyescenter",-1,0,1,0,3,TRUE,FALSE,6,FALSE
"680","A1A9MUU7XM4LHX","16:51:38",20,"Social","Three",6,7,"Same",0,"Novel79",4,"Novel79",1,2127,"eyescenter",-1,0,1,0,3,TRUE,FALSE,6,TRUE
"681","A1AE70ZU52X5JA","19:06:39",1,"Social","Zero",6,0,"Same",1,"squirrel",3,"",0,1778,"eyescenter",-1,0,0,1,0,TRUE,FALSE,6,FALSE
"682","A1AE70ZU52X5JA","19:06:39",2,"Social","Zero",6,0,"Same",1,"squirrel",1,"",0,1253,"eyescenter",-1,0,0,1,0,TRUE,FALSE,6,FALSE
"683","A1AE70ZU52X5JA","19:06:39",3,"Social","Zero",6,0,"Same",1,"tomato",4,"",0,1258,"eyescenter",-1,0,0,1,0,TRUE,FALSE,6,FALSE
"684","A1AE70ZU52X5JA","19:06:39",4,"Social","Zero",6,0,"Same",1,"tomato",0,"",0,687,"eyescenter",-1,0,0,1,0,TRUE,FALSE,6,FALSE
"685","A1AE70ZU52X5JA","19:06:39",5,"Social","Zero",6,0,"Same",1,"Novel120",3,"Novel120",3,2930,"eyes_right",3,1,0,0,0,TRUE,FALSE,6,TRUE
"686","A1AE70ZU52X5JA","19:06:39",6,"Social","Zero",6,0,"Same",1,"Novel120",3,"Novel120",3,1123,"eyescenter",-1,0,1,0,0,TRUE,TRUE,6,TRUE
"687","A1AE70ZU52X5JA","19:06:39",7,"Social","Zero",6,1,"Switch",1,"Novel99",2,"Novel134",0,1483,"eyes_left",0,1,0,0,0,TRUE,FALSE,6,FALSE
"688","A1AE70ZU52X5JA","19:06:39",8,"Social","Zero",6,1,"Switch",1,"Novel111",2,"Novel134",0,2185,"eyescenter",-1,0,1,0,0,TRUE,FALSE,6,FALSE
"689","A1AE70ZU52X5JA","19:06:39",9,"Social","Zero",6,2,"Same",1,"Novel23",3,"Novel23",3,1989,"eyes_left",0,1,0,0,0,TRUE,FALSE,6,TRUE
"690","A1AE70ZU52X5JA","19:06:39",10,"Social","Zero",6,2,"Same",1,"Novel23",3,"Novel23",3,863,"eyescenter",-1,0,1,0,0,TRUE,FALSE,6,TRUE
"691","A1AE70ZU52X5JA","19:06:39",11,"Social","Zero",6,3,"Switch",0,"Novel105",3,"Novel59",4,1532,"eyes_down_left",1,1,0,0,0,TRUE,FALSE,6,FALSE
"692","A1AE70ZU52X5JA","19:06:39",12,"Social","Zero",6,3,"Switch",0,"Novel67",2,"Novel59",4,2632,"eyescenter",-1,0,1,0,0,TRUE,FALSE,6,FALSE
"693","A1AE70ZU52X5JA","19:06:39",13,"Social","Zero",6,4,"Same",0,"Novel139",2,"Novel139",2,1834,"eyes_left",0,1,0,0,0,TRUE,FALSE,6,TRUE
"694","A1AE70ZU52X5JA","19:06:39",14,"Social","Zero",6,4,"Same",0,"Novel139",1,"Novel139",2,657,"eyescenter",-1,0,1,0,0,TRUE,FALSE,6,TRUE
"695","A1AE70ZU52X5JA","19:06:39",15,"Social","Zero",6,5,"Switch",0,"Novel29",5,"Novel6",3,578,"eyes_right",3,1,0,0,0,TRUE,FALSE,6,FALSE
"696","A1AE70ZU52X5JA","19:06:39",16,"Social","Zero",6,5,"Switch",0,"Novel56",4,"Novel6",3,1348,"eyescenter",-1,0,1,0,0,TRUE,FALSE,6,FALSE
"697","A1AE70ZU52X5JA","19:06:39",17,"Social","Zero",6,6,"Same",0,"Novel79",0,"Novel79",0,1775,"eyes_left_90",4,1,0,0,0,TRUE,FALSE,6,TRUE
"698","A1AE70ZU52X5JA","19:06:39",18,"Social","Zero",6,6,"Same",0,"Novel79",5,"Novel79",0,462,"eyescenter",-1,0,1,0,0,TRUE,FALSE,6,TRUE
"699","A1AE70ZU52X5JA","19:06:39",19,"Social","Zero",6,7,"Switch",1,"Novel104",3,"Novel93",2,1628,"eyes_down_left",1,1,0,0,0,TRUE,FALSE,6,FALSE
"700","A1AE70ZU52X5JA","19:06:39",20,"Social","Zero",6,7,"Switch",1,"Novel100",4,"Novel93",2,782,"eyescenter",-1,0,1,0,0,TRUE,FALSE,6,FALSE
"701","A1AE9DNJGYX0Q7","18:39:11",1,"No-Social","Seven",6,0,"Switch",0,"squirrel",3,"",0,1884,"eyescenter",-1,0,0,1,7,TRUE,FALSE,6,FALSE
"702","A1AE9DNJGYX0Q7","18:39:11",2,"No-Social","Seven",6,0,"Switch",0,"squirrel",1,"",0,1404,"eyescenter",-1,0,0,1,7,TRUE,FALSE,6,FALSE
"703","A1AE9DNJGYX0Q7","18:39:11",3,"No-Social","Seven",6,0,"Switch",0,"tomato",4,"",0,1446,"eyescenter",-1,0,0,1,7,TRUE,FALSE,6,FALSE
"704","A1AE9DNJGYX0Q7","18:39:11",4,"No-Social","Seven",6,0,"Switch",0,"tomato",0,"",0,1200,"eyescenter",-1,0,0,1,7,TRUE,FALSE,6,FALSE
"705","A1AE9DNJGYX0Q7","18:39:11",5,"No-Social","Seven",6,0,"Switch",0,"Novel97",1,"Novel93",0,9026,"eyescenter",-1,1,0,0,7,TRUE,FALSE,6,FALSE
"706","A1AE9DNJGYX0Q7","18:39:11",6,"No-Social","Seven",6,1,"Same",0,"Novel22",3,"Novel22",3,8381,"eyescenter",-1,1,0,0,7,TRUE,FALSE,6,TRUE
"707","A1AE9DNJGYX0Q7","18:39:11",7,"No-Social","Seven",6,2,"Switch",1,"Novel87",3,"Novel85",5,9440,"eyescenter",-1,1,0,0,7,TRUE,FALSE,6,FALSE
"708","A1AE9DNJGYX0Q7","18:39:11",8,"No-Social","Seven",6,3,"Same",0,"Novel65",4,"Novel65",4,3493,"eyescenter",-1,1,0,0,7,TRUE,FALSE,6,TRUE
"709","A1AE9DNJGYX0Q7","18:39:11",9,"No-Social","Seven",6,4,"Switch",1,"Novel84",5,"Novel53",1,2661,"eyescenter",-1,1,0,0,7,TRUE,FALSE,6,FALSE
"710","A1AE9DNJGYX0Q7","18:39:11",10,"No-Social","Seven",6,5,"Same",1,"Novel62",4,"Novel62",4,6097,"eyescenter",-1,1,0,0,7,TRUE,FALSE,6,TRUE
"711","A1AE9DNJGYX0Q7","18:39:11",11,"No-Social","Seven",6,6,"Switch",0,"Novel94",2,"Novel26",1,3577,"eyescenter",-1,1,0,0,7,TRUE,FALSE,6,FALSE
"712","A1AE9DNJGYX0Q7","18:39:11",12,"No-Social","Seven",6,7,"Same",1,"Novel112",4,"Novel112",4,12834,"eyescenter",-1,1,0,0,7,TRUE,FALSE,6,TRUE
"713","A1AE9DNJGYX0Q7","18:39:11",13,"No-Social","Seven",6,0,"Switch",0,"Novel93",3,"Novel93",0,4383,"eyescenter",-1,0,1,0,7,TRUE,TRUE,6,TRUE
"714","A1AE9DNJGYX0Q7","18:39:11",14,"No-Social","Seven",6,1,"Same",0,"Novel22",0,"Novel22",3,2341,"eyescenter",-1,0,1,0,7,TRUE,FALSE,6,TRUE
"715","A1AE9DNJGYX0Q7","18:39:11",15,"No-Social","Seven",6,2,"Switch",1,"Novel85",5,"Novel85",5,3495,"eyescenter",-1,0,1,0,7,TRUE,FALSE,6,TRUE
"716","A1AE9DNJGYX0Q7","18:39:11",16,"No-Social","Seven",6,3,"Same",0,"Novel65",5,"Novel65",4,2283,"eyescenter",-1,0,1,0,7,TRUE,FALSE,6,TRUE
"717","A1AE9DNJGYX0Q7","18:39:11",17,"No-Social","Seven",6,4,"Switch",1,"Novel132",0,"Novel53",1,4988,"eyescenter",-1,0,1,0,7,TRUE,FALSE,6,FALSE
"718","A1AE9DNJGYX0Q7","18:39:11",18,"No-Social","Seven",6,5,"Same",1,"Novel62",4,"Novel62",4,3372,"eyescenter",-1,0,1,0,7,TRUE,FALSE,6,TRUE
"719","A1AE9DNJGYX0Q7","18:39:11",19,"No-Social","Seven",6,6,"Switch",0,"Novel26",4,"Novel26",1,5150,"eyescenter",-1,0,1,0,7,TRUE,FALSE,6,TRUE
"720","A1AE9DNJGYX0Q7","18:39:11",20,"No-Social","Seven",6,7,"Same",1,"Novel112",4,"Novel112",4,1804,"eyescenter",-1,0,1,0,7,TRUE,FALSE,6,TRUE
