"","X.1","X","subid","submit.time","trial.num","condition","interval","numPic","itemNum","trialType","samePos","chosen","chosenIdx","kept","keptIdx","rt","face","faceIdx","exposureTrial","testTrial","exampleTrial","intervalNum","include","first.trial","numPicN","correct","dataset"
"7681",7681,76811,"A0607295133OZ2DIJW5P8","02:37:40",1,"Social","Seven",4,0,"Same",0,"squirrel",0,"",0,2327,"eyescenter",-1,0,0,1,7,TRUE,FALSE,4,FALSE,"km"
"7682",7682,76821,"A0607295133OZ2DIJW5P8","02:37:40",2,"Social","Seven",4,0,"Same",0,"squirrel",0,"",0,2320,"eyescenter",-1,0,0,1,7,TRUE,FALSE,4,FALSE,"km"
"7683",7683,76831,"A0607295133OZ2DIJW5P8","02:37:40",3,"Social","Seven",4,0,"Same",0,"tomato",1,"",0,3361,"eyescenter",-1,0,0,1,7,TRUE,FALSE,4,FALSE,"km"
"7684",7684,76841,"A0607295133OZ2DIJW5P8","02:37:40",4,"Social","Seven",4,0,"Same",0,"tomato",2,"",0,1254,"eyescenter",-1,0,0,1,7,TRUE,FALSE,4,FALSE,"km"
"7685",7685,76851,"A0607295133OZ2DIJW5P8","02:37:40",5,"Social","Seven",4,0,"Same",0,"Novel5",2,"Novel5",2,6364,"eyes_down_right",2,1,0,0,7,TRUE,FALSE,4,TRUE,"km"
"7686",7686,76861,"A0607295133OZ2DIJW5P8","02:37:40",6,"Social","Seven",4,1,"Switch",0,"Novel7",1,"Novel70",2,2782,"eyes_down_left",1,1,0,0,7,TRUE,FALSE,4,FALSE,"km"
"7687",7687,76871,"A0607295133OZ2DIJW5P8","02:37:40",7,"Social","Seven",4,2,"Same",1,"Novel51",2,"Novel51",2,2000,"eyes_down_right",2,1,0,0,7,TRUE,FALSE,4,TRUE,"km"
"7688",7688,76881,"A0607295133OZ2DIJW5P8","02:37:40",8,"Social","Seven",4,3,"Switch",1,"Novel3",2,"Novel133",1,1166,"eyes_down_right",2,1,0,0,7,TRUE,FALSE,4,FALSE,"km"
"7689",7689,76891,"A0607295133OZ2DIJW5P8","02:37:40",9,"Social","Seven",4,4,"Same",1,"Novel49",2,"Novel49",2,1051,"eyes_down_right",2,1,0,0,7,TRUE,FALSE,4,TRUE,"km"
"7690",7690,76901,"A0607295133OZ2DIJW5P8","02:37:40",10,"Social","Seven",4,5,"Switch",0,"Novel9",3,"Novel52",1,1672,"eyes_right",3,1,0,0,7,TRUE,FALSE,4,FALSE,"km"
"7691",7691,76911,"A0607295133OZ2DIJW5P8","02:37:40",11,"Social","Seven",4,6,"Same",0,"Novel62",3,"Novel62",3,973,"eyes_right",3,1,0,0,7,TRUE,FALSE,4,TRUE,"km"
"7692",7692,76921,"A0607295133OZ2DIJW5P8","02:37:40",12,"Social","Seven",4,7,"Switch",1,"Novel34",0,"Novel88",2,1107,"eyes_left",0,1,0,0,7,TRUE,FALSE,4,FALSE,"km"
"7693",7693,76931,"A0607295133OZ2DIJW5P8","02:37:40",13,"Social","Seven",4,0,"Same",0,"Novel5",3,"Novel5",2,5021,"eyescenter",-1,0,1,0,7,TRUE,TRUE,4,TRUE,"km"
"7694",7694,76941,"A0607295133OZ2DIJW5P8","02:37:40",14,"Social","Seven",4,1,"Switch",0,"Novel130",2,"Novel70",2,3456,"eyescenter",-1,0,1,0,7,TRUE,FALSE,4,FALSE,"km"
"7695",7695,76951,"A0607295133OZ2DIJW5P8","02:37:40",15,"Social","Seven",4,2,"Same",1,"Novel101",1,"Novel51",2,2721,"eyescenter",-1,0,1,0,7,TRUE,FALSE,4,FALSE,"km"
"7696",7696,76961,"A0607295133OZ2DIJW5P8","02:37:40",16,"Social","Seven",4,3,"Switch",1,"Novel122",2,"Novel133",1,2339,"eyescenter",-1,0,1,0,7,TRUE,FALSE,4,FALSE,"km"
"7697",7697,76971,"A0607295133OZ2DIJW5P8","02:37:40",17,"Social","Seven",4,4,"Same",1,"Novel16",1,"Novel49",2,2697,"eyescenter",-1,0,1,0,7,TRUE,FALSE,4,FALSE,"km"
"7698",7698,76981,"A0607295133OZ2DIJW5P8","02:37:40",18,"Social","Seven",4,5,"Switch",0,"Novel54",3,"Novel52",1,2409,"eyescenter",-1,0,1,0,7,TRUE,FALSE,4,FALSE,"km"
"7699",7699,76991,"A0607295133OZ2DIJW5P8","02:37:40",19,"Social","Seven",4,6,"Same",0,"Novel50",2,"Novel62",3,1387,"eyescenter",-1,0,1,0,7,TRUE,FALSE,4,FALSE,"km"
"7700",7700,77001,"A0607295133OZ2DIJW5P8","02:37:40",20,"Social","Seven",4,7,"Switch",1,"Novel119",3,"Novel88",2,1441,"eyescenter",-1,0,1,0,7,TRUE,FALSE,4,FALSE,"km"
"17849",17849,1,"A0877319FSQMNZX627BU","15:22:08",1,"Social","Seven",4,0,"Same",1,"squirrel",0,"",0,1935,"eyescenter",-1,0,0,1,7,TRUE,FALSE,4,FALSE,"km-batch2"
"17850",17850,2,"A0877319FSQMNZX627BU","15:22:08",2,"Social","Seven",4,0,"Same",1,"squirrel",0,"",0,1877,"eyescenter",-1,0,0,1,7,TRUE,FALSE,4,FALSE,"km-batch2"
"17851",17851,3,"A0877319FSQMNZX627BU","15:22:08",3,"Social","Seven",4,0,"Same",1,"tomato",1,"",0,1316,"eyescenter",-1,0,0,1,7,TRUE,FALSE,4,FALSE,"km-batch2"
"17852",17852,4,"A0877319FSQMNZX627BU","15:22:08",4,"Social","Seven",4,0,"Same",1,"tomato",2,"",0,1122,"eyescenter",-1,0,0,1,7,TRUE,FALSE,4,FALSE,"km-batch2"
"17853",17853,5,"A0877319FSQMNZX627BU","15:22:08",5,"Social","Seven",4,0,"Same",1,"Novel40",1,"Novel40",1,4417,"eyes_down_right",2,1,0,0,7,TRUE,FALSE,4,TRUE,"km-batch2"
"17854",17854,6,"A0877319FSQMNZX627BU","15:22:08",6,"Social","Seven",4,1,"Switch",1,"Novel3",0,"Novel97",1,4449,"eyes_down_left",1,1,0,0,7,TRUE,FALSE,4,FALSE,"km-batch2"
"17855",17855,7,"A0877319FSQMNZX627BU","15:22:08",7,"Social","Seven",4,2,"Same",1,"Novel32",0,"Novel32",0,6247,"eyes_down_right",2,1,0,0,7,TRUE,FALSE,4,TRUE,"km-batch2"
"17856",17856,8,"A0877319FSQMNZX627BU","15:22:08",8,"Social","Seven",4,3,"Switch",1,"Novel65",2,"Novel27",3,5355,"eyes_down_left",1,1,0,0,7,TRUE,FALSE,4,FALSE,"km-batch2"
"17857",17857,9,"A0877319FSQMNZX627BU","15:22:08",9,"Social","Seven",4,4,"Same",0,"Novel131",0,"Novel131",0,3157,"eyes_down_right",2,1,0,0,7,TRUE,FALSE,4,TRUE,"km-batch2"
"17858",17858,10,"A0877319FSQMNZX627BU","15:22:08",10,"Social","Seven",4,5,"Switch",0,"Novel2",1,"Novel105",2,3754,"eyes_down_right",2,1,0,0,7,TRUE,FALSE,4,FALSE,"km-batch2"
"17859",17859,11,"A0877319FSQMNZX627BU","15:22:08",11,"Social","Seven",4,6,"Same",0,"Novel109",2,"Novel109",2,4593,"eyes_down_right",2,1,0,0,7,TRUE,FALSE,4,TRUE,"km-batch2"
"17860",17860,12,"A0877319FSQMNZX627BU","15:22:08",12,"Social","Seven",4,7,"Switch",0,"Novel81",0,"Novel134",3,4090,"eyes_down_left",1,1,0,0,7,TRUE,FALSE,4,FALSE,"km-batch2"
"17861",17861,13,"A0877319FSQMNZX627BU","15:22:08",13,"Social","Seven",4,0,"Same",1,"Novel40",1,"Novel40",1,3597,"eyescenter",-1,0,1,0,7,TRUE,TRUE,4,TRUE,"km-batch2"
"17862",17862,14,"A0877319FSQMNZX627BU","15:22:08",14,"Social","Seven",4,1,"Switch",1,"Novel97",1,"Novel97",1,6379,"eyescenter",-1,0,1,0,7,TRUE,FALSE,4,TRUE,"km-batch2"
"17863",17863,15,"A0877319FSQMNZX627BU","15:22:08",15,"Social","Seven",4,2,"Same",1,"Novel32",0,"Novel32",0,2520,"eyescenter",-1,0,1,0,7,TRUE,FALSE,4,TRUE,"km-batch2"
"17864",17864,16,"A0877319FSQMNZX627BU","15:22:08",16,"Social","Seven",4,3,"Switch",1,"Novel27",3,"Novel27",3,4651,"eyescenter",-1,0,1,0,7,TRUE,FALSE,4,TRUE,"km-batch2"
"17865",17865,17,"A0877319FSQMNZX627BU","15:22:08",17,"Social","Seven",4,4,"Same",0,"Novel131",2,"Novel131",0,1570,"eyescenter",-1,0,1,0,7,TRUE,FALSE,4,TRUE,"km-batch2"
"17866",17866,18,"A0877319FSQMNZX627BU","15:22:08",18,"Social","Seven",4,5,"Switch",0,"Novel105",0,"Novel105",2,2599,"eyescenter",-1,0,1,0,7,TRUE,FALSE,4,TRUE,"km-batch2"
"17867",17867,19,"A0877319FSQMNZX627BU","15:22:08",19,"Social","Seven",4,6,"Same",0,"Novel109",3,"Novel109",2,2331,"eyescenter",-1,0,1,0,7,TRUE,FALSE,4,TRUE,"km-batch2"
"17868",17868,20,"A0877319FSQMNZX627BU","15:22:08",20,"Social","Seven",4,7,"Switch",0,"Novel134",1,"Novel134",3,4466,"eyescenter",-1,0,1,0,7,TRUE,FALSE,4,TRUE,"km-batch2"
"10901",10901,10901,"A0987913304TQJJ683IBA","18:40:17",1,"No-Social","Zero",4,0,"Switch",1,"squirrel",0,"",0,949,"eyescenter",-1,0,0,1,0,TRUE,FALSE,4,FALSE,"km"
"10902",10902,10902,"A0987913304TQJJ683IBA","18:40:17",2,"No-Social","Zero",4,0,"Switch",1,"squirrel",0,"",0,915,"eyescenter",-1,0,0,1,0,TRUE,FALSE,4,FALSE,"km"
"10903",10903,10903,"A0987913304TQJJ683IBA","18:40:17",3,"No-Social","Zero",4,0,"Switch",1,"tomato",1,"",0,1042,"eyescenter",-1,0,0,1,0,TRUE,FALSE,4,FALSE,"km"
"10904",10904,10904,"A0987913304TQJJ683IBA","18:40:17",4,"No-Social","Zero",4,0,"Switch",1,"tomato",2,"",0,980,"eyescenter",-1,0,0,1,0,TRUE,FALSE,4,FALSE,"km"
"10905",10905,10905,"A0987913304TQJJ683IBA","18:40:17",5,"No-Social","Zero",4,0,"Switch",1,"Novel114",2,"Novel38",1,2485,"eyescenter",-1,1,0,0,0,TRUE,FALSE,4,FALSE,"km"
"10906",10906,10906,"A0987913304TQJJ683IBA","18:40:17",6,"No-Social","Zero",4,0,"Switch",1,"Novel73",2,"Novel38",1,3368,"eyescenter",-1,0,1,0,0,TRUE,TRUE,4,FALSE,"km"
"10907",10907,10907,"A0987913304TQJJ683IBA","18:40:17",7,"No-Social","Zero",4,1,"Same",1,"Novel49",3,"Novel49",3,2506,"eyescenter",-1,1,0,0,0,TRUE,FALSE,4,TRUE,"km"
"10908",10908,10908,"A0987913304TQJJ683IBA","18:40:17",8,"No-Social","Zero",4,1,"Same",1,"Novel49",3,"Novel49",3,1113,"eyescenter",-1,0,1,0,0,TRUE,FALSE,4,TRUE,"km"
"10909",10909,10909,"A0987913304TQJJ683IBA","18:40:17",9,"No-Social","Zero",4,2,"Switch",1,"Novel29",2,"Novel107",3,2449,"eyescenter",-1,1,0,0,0,TRUE,FALSE,4,FALSE,"km"
"10910",10910,10910,"A0987913304TQJJ683IBA","18:40:17",10,"No-Social","Zero",4,2,"Switch",1,"Novel107",3,"Novel107",3,1843,"eyescenter",-1,0,1,0,0,TRUE,FALSE,4,TRUE,"km"
"10911",10911,10911,"A0987913304TQJJ683IBA","18:40:17",11,"No-Social","Zero",4,3,"Same",0,"Novel104",0,"Novel104",0,3323,"eyescenter",-1,1,0,0,0,TRUE,FALSE,4,TRUE,"km"
"10912",10912,10912,"A0987913304TQJJ683IBA","18:40:17",12,"No-Social","Zero",4,3,"Same",0,"Novel104",1,"Novel104",0,1035,"eyescenter",-1,0,1,0,0,TRUE,FALSE,4,TRUE,"km"
"10913",10913,10913,"A0987913304TQJJ683IBA","18:40:17",13,"No-Social","Zero",4,4,"Switch",0,"Novel44",1,"Novel87",3,3298,"eyescenter",-1,1,0,0,0,TRUE,FALSE,4,FALSE,"km"
"10914",10914,10914,"A0987913304TQJJ683IBA","18:40:17",14,"No-Social","Zero",4,4,"Switch",0,"Novel69",0,"Novel87",3,2376,"eyescenter",-1,0,1,0,0,TRUE,FALSE,4,FALSE,"km"
"10915",10915,10915,"A0987913304TQJJ683IBA","18:40:17",15,"No-Social","Zero",4,5,"Same",1,"Novel118",3,"Novel118",3,2755,"eyescenter",-1,1,0,0,0,TRUE,FALSE,4,TRUE,"km"
"10916",10916,10916,"A0987913304TQJJ683IBA","18:40:17",16,"No-Social","Zero",4,5,"Same",1,"Novel118",3,"Novel118",3,1236,"eyescenter",-1,0,1,0,0,TRUE,FALSE,4,TRUE,"km"
"10917",10917,10917,"A0987913304TQJJ683IBA","18:40:17",17,"No-Social","Zero",4,6,"Switch",0,"Novel88",0,"Novel5",3,3042,"eyescenter",-1,1,0,0,0,TRUE,FALSE,4,FALSE,"km"
"10918",10918,10918,"A0987913304TQJJ683IBA","18:40:17",18,"No-Social","Zero",4,6,"Switch",0,"Novel58",2,"Novel5",3,2672,"eyescenter",-1,0,1,0,0,TRUE,FALSE,4,FALSE,"km"
"10919",10919,10919,"A0987913304TQJJ683IBA","18:40:17",19,"No-Social","Zero",4,7,"Same",0,"Novel42",1,"Novel42",1,2636,"eyescenter",-1,1,0,0,0,TRUE,FALSE,4,TRUE,"km"
"10920",10920,10920,"A0987913304TQJJ683IBA","18:40:17",20,"No-Social","Zero",4,7,"Same",0,"Novel42",0,"Novel42",1,1090,"eyescenter",-1,0,1,0,0,TRUE,FALSE,4,TRUE,"km"
"15521",15521,57,"A102Z6M3FALPXT","23:01:20",9,"No-Social","3",4,0,"Same",0,"Novel82",2,"Novel82",1,1804,NA,NA,NA,1,NA,3,TRUE,TRUE,4,TRUE,"dy"
"15522",15522,58,"A102Z6M3FALPXT","23:01:20",10,"No-Social","3",4,1,"Switch",0,"Novel56",1,"Novel77",3,1864,NA,NA,NA,1,NA,3,TRUE,FALSE,4,FALSE,"dy"
"15523",15523,59,"A102Z6M3FALPXT","23:01:20",11,"No-Social","3",4,2,"Same",0,"Novel53",0,"Novel53",2,2412,NA,NA,NA,1,NA,3,TRUE,FALSE,4,TRUE,"dy"
"15524",15524,60,"A102Z6M3FALPXT","23:01:20",12,"No-Social","3",4,3,"Switch",1,"Novel133",2,"Novel99",1,1488,NA,NA,NA,1,NA,3,TRUE,FALSE,4,FALSE,"dy"
"15525",15525,61,"A102Z6M3FALPXT","23:01:20",17,"No-Social","3",4,4,"Same",1,"Novel83",2,"Novel68",1,1034,NA,NA,NA,1,NA,3,TRUE,FALSE,4,FALSE,"dy"
"15526",15526,62,"A102Z6M3FALPXT","23:01:20",18,"No-Social","3",4,5,"Switch",1,"Novel104",1,"Novel123",3,1052,NA,NA,NA,1,NA,3,TRUE,FALSE,4,FALSE,"dy"
"15527",15527,63,"A102Z6M3FALPXT","23:01:20",19,"No-Social","3",4,6,"Same",1,"Novel61",1,"Novel61",1,1422,NA,NA,NA,1,NA,3,TRUE,FALSE,4,TRUE,"dy"
"15528",15528,64,"A102Z6M3FALPXT","23:01:20",20,"No-Social","3",4,7,"Switch",0,"Novel7",2,"Novel59",2,1770,NA,NA,NA,1,NA,3,TRUE,FALSE,4,FALSE,"dy"
"15529",15529,73,"A104N820YHGZDI","18:04:41",7,"No-Social","1",4,0,"Same",0,"Novel73",3,"Novel73",0,2559,NA,NA,NA,1,NA,1,TRUE,TRUE,4,TRUE,"dy"
"15530",15530,74,"A104N820YHGZDI","18:04:41",8,"No-Social","1",4,1,"Switch",1,"Novel121",0,"Novel101",2,2713,NA,NA,NA,1,NA,1,TRUE,FALSE,4,FALSE,"dy"
"15531",15531,75,"A104N820YHGZDI","18:04:41",11,"No-Social","1",4,2,"Same",0,"Novel131",2,"Novel131",3,2913,NA,NA,NA,1,NA,1,TRUE,FALSE,4,TRUE,"dy"
"15532",15532,76,"A104N820YHGZDI","18:04:41",12,"No-Social","1",4,3,"Switch",0,"Novel67",0,"Novel139",3,2787,NA,NA,NA,1,NA,1,TRUE,FALSE,4,FALSE,"dy"
"15533",15533,77,"A104N820YHGZDI","18:04:41",15,"No-Social","1",4,4,"Same",1,"Novel106",3,"Novel106",3,2376,NA,NA,NA,1,NA,1,TRUE,FALSE,4,TRUE,"dy"
"15534",15534,78,"A104N820YHGZDI","18:04:41",16,"No-Social","1",4,5,"Switch",1,"Novel20",0,"Novel64",1,2164,NA,NA,NA,1,NA,1,TRUE,FALSE,4,FALSE,"dy"
"15535",15535,79,"A104N820YHGZDI","18:04:41",19,"No-Social","1",4,6,"Same",1,"Novel37",2,"Novel138",3,3003,NA,NA,NA,1,NA,1,TRUE,FALSE,4,FALSE,"dy"
"15536",15536,80,"A104N820YHGZDI","18:04:41",20,"No-Social","1",4,7,"Switch",0,"Novel43",1,"Novel21",3,2942,NA,NA,NA,1,NA,1,TRUE,FALSE,4,FALSE,"dy"
"10921",10921,10921,"A10A1AU0JBL6Z3","10:03:38",1,"Social","Zero",4,0,"Switch",1,"squirrel",0,"",0,3973,"eyescenter",-1,0,0,1,0,TRUE,FALSE,4,FALSE,"km"
"10922",10922,10922,"A10A1AU0JBL6Z3","10:03:38",2,"Social","Zero",4,0,"Switch",1,"squirrel",0,"",0,1473,"eyescenter",-1,0,0,1,0,TRUE,FALSE,4,FALSE,"km"
"10923",10923,10923,"A10A1AU0JBL6Z3","10:03:38",3,"Social","Zero",4,0,"Switch",1,"tomato",1,"",0,1668,"eyescenter",-1,0,0,1,0,TRUE,FALSE,4,FALSE,"km"
"10924",10924,10924,"A10A1AU0JBL6Z3","10:03:38",4,"Social","Zero",4,0,"Switch",1,"tomato",2,"",0,1351,"eyescenter",-1,0,0,1,0,TRUE,FALSE,4,FALSE,"km"
"10925",10925,10925,"A10A1AU0JBL6Z3","10:03:38",5,"Social","Zero",4,0,"Switch",1,"Novel119",0,"Novel44",1,2916,"eyes_left",0,1,0,0,0,TRUE,FALSE,4,FALSE,"km"
"10926",10926,10926,"A10A1AU0JBL6Z3","10:03:38",6,"Social","Zero",4,0,"Switch",1,"Novel3",2,"Novel44",1,4148,"eyescenter",-1,0,1,0,0,TRUE,TRUE,4,FALSE,"km"
"10927",10927,10927,"A10A1AU0JBL6Z3","10:03:38",7,"Social","Zero",4,1,"Same",1,"Novel80",2,"Novel80",2,3925,"eyes_down_right",2,1,0,0,0,TRUE,FALSE,4,TRUE,"km"
"10928",10928,10928,"A10A1AU0JBL6Z3","10:03:38",8,"Social","Zero",4,1,"Same",1,"Novel80",2,"Novel80",2,1434,"eyescenter",-1,0,1,0,0,TRUE,FALSE,4,TRUE,"km"
"10929",10929,10929,"A10A1AU0JBL6Z3","10:03:38",9,"Social","Zero",4,2,"Switch",0,"Novel27",1,"Novel109",2,1990,"eyes_down_left",1,1,0,0,0,TRUE,FALSE,4,FALSE,"km"
"10930",10930,10930,"A10A1AU0JBL6Z3","10:03:38",10,"Social","Zero",4,2,"Switch",0,"Novel85",2,"Novel109",2,3831,"eyescenter",-1,0,1,0,0,TRUE,FALSE,4,FALSE,"km"
"10931",10931,10931,"A10A1AU0JBL6Z3","10:03:38",11,"Social","Zero",4,3,"Same",0,"Novel81",0,"Novel81",0,2477,"eyes_left",0,1,0,0,0,TRUE,FALSE,4,TRUE,"km"
"10932",10932,10932,"A10A1AU0JBL6Z3","10:03:38",12,"Social","Zero",4,3,"Same",0,"Novel81",2,"Novel81",0,1619,"eyescenter",-1,0,1,0,0,TRUE,FALSE,4,TRUE,"km"
"10933",10933,10933,"A10A1AU0JBL6Z3","10:03:38",13,"Social","Zero",4,4,"Switch",1,"Novel50",0,"Novel130",2,1726,"eyes_left",0,1,0,0,0,TRUE,FALSE,4,FALSE,"km"
"10934",10934,10934,"A10A1AU0JBL6Z3","10:03:38",14,"Social","Zero",4,4,"Switch",1,"Novel116",0,"Novel130",2,1614,"eyescenter",-1,0,1,0,0,TRUE,FALSE,4,FALSE,"km"
"10935",10935,10935,"A10A1AU0JBL6Z3","10:03:38",15,"Social","Zero",4,5,"Same",1,"Novel90",2,"Novel90",2,1465,"eyes_down_right",2,1,0,0,0,TRUE,FALSE,4,TRUE,"km"
"10936",10936,10936,"A10A1AU0JBL6Z3","10:03:38",16,"Social","Zero",4,5,"Same",1,"Novel90",2,"Novel90",2,990,"eyescenter",-1,0,1,0,0,TRUE,FALSE,4,TRUE,"km"
"10937",10937,10937,"A10A1AU0JBL6Z3","10:03:38",17,"Social","Zero",4,6,"Switch",0,"Novel110",2,"Novel36",3,3244,"eyes_left",0,1,0,0,0,TRUE,FALSE,4,FALSE,"km"
"10938",10938,10938,"A10A1AU0JBL6Z3","10:03:38",18,"Social","Zero",4,6,"Switch",0,"Novel36",1,"Novel36",3,5676,"eyescenter",-1,0,1,0,0,TRUE,FALSE,4,TRUE,"km"
"10939",10939,10939,"A10A1AU0JBL6Z3","10:03:38",19,"Social","Zero",4,7,"Same",0,"Novel18",0,"Novel18",0,4341,"eyes_left",0,1,0,0,0,TRUE,FALSE,4,TRUE,"km"
"10940",10940,10940,"A10A1AU0JBL6Z3","10:03:38",20,"Social","Zero",4,7,"Same",0,"Novel13",0,"Novel18",0,1179,"eyescenter",-1,0,1,0,0,TRUE,FALSE,4,FALSE,"km"
"10941",10941,10941,"A10BMPJA7PA4W4","13:09:01",1,"No-Social","One",4,0,"Same",1,"squirrel",0,"",0,2584,"eyescenter",-1,0,0,1,1,TRUE,FALSE,4,FALSE,"km"
"10942",10942,10942,"A10BMPJA7PA4W4","13:09:01",2,"No-Social","One",4,0,"Same",1,"squirrel",0,"",0,1268,"eyescenter",-1,0,0,1,1,TRUE,FALSE,4,FALSE,"km"
"10943",10943,10943,"A10BMPJA7PA4W4","13:09:01",3,"No-Social","One",4,0,"Same",1,"tomato",1,"",0,1596,"eyescenter",-1,0,0,1,1,TRUE,FALSE,4,FALSE,"km"
"10944",10944,10944,"A10BMPJA7PA4W4","13:09:01",4,"No-Social","One",4,0,"Same",1,"tomato",2,"",0,1305,"eyescenter",-1,0,0,1,1,TRUE,FALSE,4,FALSE,"km"
"10945",10945,10945,"A10BMPJA7PA4W4","13:09:01",5,"No-Social","One",4,0,"Same",1,"Novel46",1,"Novel46",1,9644,"eyescenter",-1,1,0,0,1,TRUE,FALSE,4,TRUE,"km"
"10946",10946,10946,"A10BMPJA7PA4W4","13:09:01",6,"No-Social","One",4,1,"Switch",0,"Novel69",2,"Novel40",0,4348,"eyescenter",-1,1,0,0,1,TRUE,FALSE,4,FALSE,"km"
"10947",10947,10947,"A10BMPJA7PA4W4","13:09:01",7,"No-Social","One",4,0,"Same",1,"Novel46",1,"Novel46",1,3074,"eyescenter",-1,0,1,0,1,TRUE,TRUE,4,TRUE,"km"
"10948",10948,10948,"A10BMPJA7PA4W4","13:09:01",8,"No-Social","One",4,1,"Switch",0,"Novel40",1,"Novel40",0,1403,"eyescenter",-1,0,1,0,1,TRUE,FALSE,4,TRUE,"km"
"10949",10949,10949,"A10BMPJA7PA4W4","13:09:01",9,"No-Social","One",4,2,"Same",0,"Novel115",2,"Novel115",2,2505,"eyescenter",-1,1,0,0,1,TRUE,FALSE,4,TRUE,"km"
"10950",10950,10950,"A10BMPJA7PA4W4","13:09:01",10,"No-Social","One",4,3,"Switch",1,"Novel24",1,"Novel44",0,2548,"eyescenter",-1,1,0,0,1,TRUE,FALSE,4,FALSE,"km"
"10951",10951,10951,"A10BMPJA7PA4W4","13:09:01",11,"No-Social","One",4,2,"Same",0,"Novel115",0,"Novel115",2,1185,"eyescenter",-1,0,1,0,1,TRUE,FALSE,4,TRUE,"km"
"10952",10952,10952,"A10BMPJA7PA4W4","13:09:01",12,"No-Social","One",4,3,"Switch",1,"Novel44",0,"Novel44",0,1948,"eyescenter",-1,0,1,0,1,TRUE,FALSE,4,TRUE,"km"
"10953",10953,10953,"A10BMPJA7PA4W4","13:09:01",13,"No-Social","One",4,4,"Same",1,"Novel18",1,"Novel18",1,3370,"eyescenter",-1,1,0,0,1,TRUE,FALSE,4,TRUE,"km"
"10954",10954,10954,"A10BMPJA7PA4W4","13:09:01",14,"No-Social","One",4,5,"Switch",1,"Novel25",3,"Novel87",1,1366,"eyescenter",-1,1,0,0,1,TRUE,FALSE,4,FALSE,"km"
"10955",10955,10955,"A10BMPJA7PA4W4","13:09:01",15,"No-Social","One",4,4,"Same",1,"Novel18",1,"Novel18",1,867,"eyescenter",-1,0,1,0,1,TRUE,FALSE,4,TRUE,"km"
"10956",10956,10956,"A10BMPJA7PA4W4","13:09:01",16,"No-Social","One",4,5,"Switch",1,"Novel105",3,"Novel87",1,835,"eyescenter",-1,0,1,0,1,TRUE,FALSE,4,FALSE,"km"
"10957",10957,10957,"A10BMPJA7PA4W4","13:09:01",17,"No-Social","One",4,6,"Same",0,"Novel19",0,"Novel19",0,1672,"eyescenter",-1,1,0,0,1,TRUE,FALSE,4,TRUE,"km"
"10958",10958,10958,"A10BMPJA7PA4W4","13:09:01",18,"No-Social","One",4,7,"Switch",0,"Novel125",0,"Novel132",1,929,"eyescenter",-1,1,0,0,1,TRUE,FALSE,4,FALSE,"km"
"10959",10959,10959,"A10BMPJA7PA4W4","13:09:01",19,"No-Social","One",4,6,"Same",0,"Novel19",1,"Novel19",0,589,"eyescenter",-1,0,1,0,1,TRUE,FALSE,4,TRUE,"km"
"10960",10960,10960,"A10BMPJA7PA4W4","13:09:01",20,"No-Social","One",4,7,"Switch",0,"Novel132",2,"Novel132",1,569,"eyescenter",-1,0,1,0,1,TRUE,FALSE,4,TRUE,"km"
"1",1,1,"A10EEFN0OZB72L","12:46:43",1,"Social","One",6,0,"Switch",0,"squirrel",3,"",0,1826,"eyescenter",-1,0,0,1,1,TRUE,FALSE,6,FALSE,"km"
"2",2,2,"A10EEFN0OZB72L","12:46:43",2,"Social","One",6,0,"Switch",0,"squirrel",1,"",0,1034,"eyescenter",-1,0,0,1,1,TRUE,FALSE,6,FALSE,"km"
"3",3,3,"A10EEFN0OZB72L","12:46:43",3,"Social","One",6,0,"Switch",0,"tomato",4,"",0,1152,"eyescenter",-1,0,0,1,1,TRUE,FALSE,6,FALSE,"km"
"4",4,4,"A10EEFN0OZB72L","12:46:43",4,"Social","One",6,0,"Switch",0,"tomato",0,"",0,1432,"eyescenter",-1,0,0,1,1,TRUE,FALSE,6,FALSE,"km"
"5",5,5,"A10EEFN0OZB72L","12:46:43",5,"Social","One",6,0,"Switch",0,"Novel94",3,"Novel5",4,2779,"eyes_down_left",1,1,0,0,1,TRUE,FALSE,6,FALSE,"km"
"6",6,6,"A10EEFN0OZB72L","12:46:43",6,"Social","One",6,1,"Same",1,"Novel123",4,"Novel123",4,1660,"eyes_down_right",2,1,0,0,1,TRUE,FALSE,6,TRUE,"km"
"7",7,7,"A10EEFN0OZB72L","12:46:43",7,"Social","One",6,0,"Switch",0,"Novel48",2,"Novel5",4,4235,"eyescenter",-1,0,1,0,1,TRUE,TRUE,6,FALSE,"km"
"8",8,8,"A10EEFN0OZB72L","12:46:43",8,"Social","One",6,1,"Same",1,"Novel123",4,"Novel123",4,1778,"eyescenter",-1,0,1,0,1,TRUE,FALSE,6,TRUE,"km"
"9",9,9,"A10EEFN0OZB72L","12:46:43",9,"Social","One",6,2,"Switch",1,"Novel140",2,"Novel73",4,1359,"eyes_left",0,1,0,0,1,TRUE,FALSE,6,FALSE,"km"
"10",10,10,"A10EEFN0OZB72L","12:46:43",10,"Social","One",6,3,"Same",1,"Novel61",1,"Novel61",1,1462,"eyes_right_90",5,1,0,0,1,TRUE,FALSE,6,TRUE,"km"
"11",11,11,"A10EEFN0OZB72L","12:46:43",11,"Social","One",6,2,"Switch",1,"Novel53",0,"Novel73",4,1958,"eyescenter",-1,0,1,0,1,TRUE,FALSE,6,FALSE,"km"
"12",12,12,"A10EEFN0OZB72L","12:46:43",12,"Social","One",6,3,"Same",1,"Novel61",1,"Novel61",1,1062,"eyescenter",-1,0,1,0,1,TRUE,FALSE,6,TRUE,"km"
"13",13,13,"A10EEFN0OZB72L","12:46:43",13,"Social","One",6,4,"Switch",0,"Novel11",3,"Novel129",1,907,"eyes_down_left",1,1,0,0,1,TRUE,FALSE,6,FALSE,"km"
"14",14,14,"A10EEFN0OZB72L","12:46:43",14,"Social","One",6,5,"Same",0,"Novel80",2,"Novel80",2,1476,"eyes_left",0,1,0,0,1,TRUE,FALSE,6,TRUE,"km"
"15",15,15,"A10EEFN0OZB72L","12:46:43",15,"Social","One",6,4,"Switch",0,"Novel32",3,"Novel129",1,3257,"eyescenter",-1,0,1,0,1,TRUE,FALSE,6,FALSE,"km"
"16",16,16,"A10EEFN0OZB72L","12:46:43",16,"Social","One",6,5,"Same",0,"Novel80",4,"Novel80",2,1276,"eyescenter",-1,0,1,0,1,TRUE,FALSE,6,TRUE,"km"
"17",17,17,"A10EEFN0OZB72L","12:46:43",17,"Social","One",6,6,"Switch",1,"Novel24",4,"Novel85",5,857,"eyes_down_right",2,1,0,0,1,TRUE,FALSE,6,FALSE,"km"
"18",18,18,"A10EEFN0OZB72L","12:46:43",18,"Social","One",6,7,"Same",0,"Novel58",2,"Novel58",2,1156,"eyes_left",0,1,0,0,1,TRUE,FALSE,6,TRUE,"km"
"19",19,19,"A10EEFN0OZB72L","12:46:43",19,"Social","One",6,6,"Switch",1,"Novel137",4,"Novel85",5,1393,"eyescenter",-1,0,1,0,1,TRUE,FALSE,6,FALSE,"km"
"20",20,20,"A10EEFN0OZB72L","12:46:43",20,"Social","One",6,7,"Same",0,"Novel58",0,"Novel58",2,2374,"eyescenter",-1,0,1,0,1,TRUE,FALSE,6,TRUE,"km"
"7701",7701,77011,"A10I0NM5NV1DBU","03:54:53",1,"Social","One",4,0,"Switch",0,"squirrel",0,"",0,10236,"eyescenter",-1,0,0,1,1,TRUE,FALSE,4,FALSE,"km"
"7702",7702,77021,"A10I0NM5NV1DBU","03:54:53",2,"Social","One",4,0,"Switch",0,"squirrel",0,"",0,5474,"eyescenter",-1,0,0,1,1,TRUE,FALSE,4,FALSE,"km"
"7703",7703,77031,"A10I0NM5NV1DBU","03:54:53",3,"Social","One",4,0,"Switch",0,"tomato",1,"",0,2919,"eyescenter",-1,0,0,1,1,TRUE,FALSE,4,FALSE,"km"
"7704",7704,77041,"A10I0NM5NV1DBU","03:54:53",4,"Social","One",4,0,"Switch",0,"tomato",2,"",0,1604,"eyescenter",-1,0,0,1,1,TRUE,FALSE,4,FALSE,"km"
"7705",7705,77051,"A10I0NM5NV1DBU","03:54:53",5,"Social","One",4,0,"Switch",0,"Novel62",3,"Novel34",2,2420,"eyes_right",3,1,0,0,1,TRUE,FALSE,4,FALSE,"km"
"7706",7706,77061,"A10I0NM5NV1DBU","03:54:53",6,"Social","One",4,1,"Same",1,"Novel56",2,"Novel56",2,1812,"eyes_down_right",2,1,0,0,1,TRUE,FALSE,4,TRUE,"km"
"7707",7707,77071,"A10I0NM5NV1DBU","03:54:53",7,"Social","One",4,0,"Switch",0,"Novel34",3,"Novel34",2,NA,"eyescenter",-1,0,1,0,1,TRUE,TRUE,4,TRUE,"km"
"7708",7708,77081,"A10I0NM5NV1DBU","03:54:53",8,"Social","One",4,1,"Same",1,"Novel56",2,"Novel56",2,1640,"eyescenter",-1,0,1,0,1,TRUE,FALSE,4,TRUE,"km"
"7709",7709,77091,"A10I0NM5NV1DBU","03:54:53",9,"Social","One",4,2,"Switch",1,"Novel122",3,"Novel11",1,2710,"eyes_right",3,1,0,0,1,TRUE,FALSE,4,FALSE,"km"
"7710",7710,77101,"A10I0NM5NV1DBU","03:54:53",10,"Social","One",4,3,"Same",0,"Novel136",1,"Novel136",1,1896,"eyes_down_left",1,1,0,0,1,TRUE,FALSE,4,TRUE,"km"
"7711",7711,77111,"A10I0NM5NV1DBU","03:54:53",11,"Social","One",4,2,"Switch",1,"Novel9",2,"Novel11",1,7369,"eyescenter",-1,0,1,0,1,TRUE,FALSE,4,FALSE,"km"
"7712",7712,77121,"A10I0NM5NV1DBU","03:54:53",12,"Social","One",4,3,"Same",0,"Novel136",2,"Novel136",1,1845,"eyescenter",-1,0,1,0,1,TRUE,FALSE,4,TRUE,"km"
"7713",7713,77131,"A10I0NM5NV1DBU","03:54:53",13,"Social","One",4,4,"Switch",1,"Novel107",3,"Novel61",0,2144,"eyes_right",3,1,0,0,1,TRUE,FALSE,4,FALSE,"km"
"7714",7714,77141,"A10I0NM5NV1DBU","03:54:53",14,"Social","One",4,5,"Same",1,"Novel68",2,"Novel68",2,1474,"eyes_down_right",2,1,0,0,1,TRUE,FALSE,4,TRUE,"km"
"7715",7715,77151,"A10I0NM5NV1DBU","03:54:53",15,"Social","One",4,4,"Switch",1,"Novel44",3,"Novel61",0,7272,"eyescenter",-1,0,1,0,1,TRUE,FALSE,4,FALSE,"km"
"7716",7716,77161,"A10I0NM5NV1DBU","03:54:53",16,"Social","One",4,5,"Same",1,"Novel68",2,"Novel68",2,1449,"eyescenter",-1,0,1,0,1,TRUE,FALSE,4,TRUE,"km"
"7717",7717,77171,"A10I0NM5NV1DBU","03:54:53",17,"Social","One",4,6,"Switch",0,"Novel1",3,"Novel131",1,2707,"eyes_right",3,1,0,0,1,TRUE,FALSE,4,FALSE,"km"
"7718",7718,77181,"A10I0NM5NV1DBU","03:54:53",18,"Social","One",4,7,"Same",0,"Novel29",3,"Novel29",3,1327,"eyes_right",3,1,0,0,1,TRUE,FALSE,4,TRUE,"km"
"7719",7719,77191,"A10I0NM5NV1DBU","03:54:53",19,"Social","One",4,6,"Switch",0,"Novel121",2,"Novel131",1,7876,"eyescenter",-1,0,1,0,1,TRUE,FALSE,4,FALSE,"km"
"7720",7720,77201,"A10I0NM5NV1DBU","03:54:53",20,"Social","One",4,7,"Same",0,"Novel29",1,"Novel29",3,4859,"eyescenter",-1,0,1,0,1,TRUE,FALSE,4,TRUE,"km"
"7721",7721,77211,"A10LLZZHZVGWRW","13:27:37",1,"No-Social","Three",4,0,"Same",0,"squirrel",0,"",0,1316,"eyescenter",-1,0,0,1,3,TRUE,FALSE,4,FALSE,"km"
"7722",7722,77221,"A10LLZZHZVGWRW","13:27:37",2,"No-Social","Three",4,0,"Same",0,"squirrel",0,"",0,1151,"eyescenter",-1,0,0,1,3,TRUE,FALSE,4,FALSE,"km"
"7723",7723,77231,"A10LLZZHZVGWRW","13:27:37",3,"No-Social","Three",4,0,"Same",0,"tomato",1,"",0,1271,"eyescenter",-1,0,0,1,3,TRUE,FALSE,4,FALSE,"km"
"7724",7724,77241,"A10LLZZHZVGWRW","13:27:37",4,"No-Social","Three",4,0,"Same",0,"tomato",2,"",0,1279,"eyescenter",-1,0,0,1,3,TRUE,FALSE,4,FALSE,"km"
"7725",7725,77251,"A10LLZZHZVGWRW","13:27:37",5,"No-Social","Three",4,0,"Same",0,"Novel51",0,"Novel51",0,3382,"eyescenter",-1,1,0,0,3,TRUE,FALSE,4,TRUE,"km"
"7726",7726,77261,"A10LLZZHZVGWRW","13:27:37",6,"No-Social","Three",4,1,"Switch",0,"Novel78",2,"Novel24",0,1769,"eyescenter",-1,1,0,0,3,TRUE,FALSE,4,FALSE,"km"
"7727",7727,77271,"A10LLZZHZVGWRW","13:27:37",7,"No-Social","Three",4,2,"Same",1,"Novel122",1,"Novel122",1,2326,"eyescenter",-1,1,0,0,3,TRUE,FALSE,4,TRUE,"km"
"7728",7728,77281,"A10LLZZHZVGWRW","13:27:37",8,"No-Social","Three",4,3,"Switch",1,"Novel5",2,"Novel40",0,2339,"eyescenter",-1,1,0,0,3,TRUE,FALSE,4,FALSE,"km"
"7729",7729,77291,"A10LLZZHZVGWRW","13:27:37",9,"No-Social","Three",4,0,"Same",0,"Novel51",2,"Novel51",0,1754,"eyescenter",-1,0,1,0,3,TRUE,TRUE,4,TRUE,"km"
"7730",7730,77301,"A10LLZZHZVGWRW","13:27:37",10,"No-Social","Three",4,1,"Switch",0,"Novel135",2,"Novel24",0,1961,"eyescenter",-1,0,1,0,3,TRUE,FALSE,4,FALSE,"km"
"7731",7731,77311,"A10LLZZHZVGWRW","13:27:37",11,"No-Social","Three",4,2,"Same",1,"Novel122",1,"Novel122",1,896,"eyescenter",-1,0,1,0,3,TRUE,FALSE,4,TRUE,"km"
"7732",7732,77321,"A10LLZZHZVGWRW","13:27:37",12,"No-Social","Three",4,3,"Switch",1,"Novel40",0,"Novel40",0,1913,"eyescenter",-1,0,1,0,3,TRUE,FALSE,4,TRUE,"km"
"7733",7733,77331,"A10LLZZHZVGWRW","13:27:37",13,"No-Social","Three",4,4,"Same",0,"Novel25",2,"Novel25",2,1720,"eyescenter",-1,1,0,0,3,TRUE,FALSE,4,TRUE,"km"
"7734",7734,77341,"A10LLZZHZVGWRW","13:27:37",14,"No-Social","Three",4,5,"Switch",1,"Novel136",3,"Novel106",1,2799,"eyescenter",-1,1,0,0,3,TRUE,FALSE,4,FALSE,"km"
"7735",7735,77351,"A10LLZZHZVGWRW","13:27:37",15,"No-Social","Three",4,6,"Same",1,"Novel127",3,"Novel127",3,2703,"eyescenter",-1,1,0,0,3,TRUE,FALSE,4,TRUE,"km"
"7736",7736,77361,"A10LLZZHZVGWRW","13:27:37",16,"No-Social","Three",4,7,"Switch",0,"Novel37",2,"Novel100",1,1689,"eyescenter",-1,1,0,0,3,TRUE,FALSE,4,FALSE,"km"
"7737",7737,77371,"A10LLZZHZVGWRW","13:27:37",17,"No-Social","Three",4,4,"Same",0,"Novel25",1,"Novel25",2,1046,"eyescenter",-1,0,1,0,3,TRUE,FALSE,4,TRUE,"km"
"7738",7738,77381,"A10LLZZHZVGWRW","13:27:37",18,"No-Social","Three",4,5,"Switch",1,"Novel79",2,"Novel106",1,2874,"eyescenter",-1,0,1,0,3,TRUE,FALSE,4,FALSE,"km"
"7739",7739,77391,"A10LLZZHZVGWRW","13:27:37",19,"No-Social","Three",4,6,"Same",1,"Novel127",3,"Novel127",3,1156,"eyescenter",-1,0,1,0,3,TRUE,FALSE,4,TRUE,"km"
"7740",7740,77401,"A10LLZZHZVGWRW","13:27:37",20,"No-Social","Three",4,7,"Switch",0,"Novel100",0,"Novel100",1,4893,"eyescenter",-1,0,1,0,3,TRUE,FALSE,4,TRUE,"km"
"15537",15537,121,"A10NAKQZQ4I9NH","20:27:34",7,"No-Social","1",4,0,"Same",0,"Novel71",2,"Novel71",1,1442,NA,NA,NA,1,NA,1,TRUE,TRUE,4,TRUE,"dy"
"15538",15538,122,"A10NAKQZQ4I9NH","20:27:34",8,"No-Social","1",4,1,"Switch",1,"Novel47",1,"Novel47",1,3826,NA,NA,NA,1,NA,1,TRUE,FALSE,4,TRUE,"dy"
"15539",15539,123,"A10NAKQZQ4I9NH","20:27:34",11,"No-Social","1",4,2,"Same",0,"Novel122",1,"Novel122",2,1013,NA,NA,NA,1,NA,1,TRUE,FALSE,4,TRUE,"dy"
"15540",15540,124,"A10NAKQZQ4I9NH","20:27:34",12,"No-Social","1",4,3,"Switch",1,"Novel82",0,"Novel82",0,4012,NA,NA,NA,1,NA,1,TRUE,FALSE,4,TRUE,"dy"
"15541",15541,125,"A10NAKQZQ4I9NH","20:27:34",15,"No-Social","1",4,4,"Same",1,"Novel24",3,"Novel24",3,1360,NA,NA,NA,1,NA,1,TRUE,FALSE,4,TRUE,"dy"
"15542",15542,126,"A10NAKQZQ4I9NH","20:27:34",16,"No-Social","1",4,5,"Switch",0,"Novel131",3,"Novel68",3,3808,NA,NA,NA,1,NA,1,TRUE,FALSE,4,FALSE,"dy"
"15543",15543,127,"A10NAKQZQ4I9NH","20:27:34",19,"No-Social","1",4,6,"Same",1,"Novel48",1,"Novel48",1,2790,NA,NA,NA,1,NA,1,TRUE,FALSE,4,TRUE,"dy"
"15544",15544,128,"A10NAKQZQ4I9NH","20:27:34",20,"No-Social","1",4,7,"Switch",0,"Novel111",0,"Novel21",1,3655,NA,NA,NA,1,NA,1,TRUE,FALSE,4,FALSE,"dy"
"7741",7741,77411,"A10VJC5VW0IBYK","18:33:45",1,"No-Social","Seven",4,0,"Switch",1,"squirrel",0,"",0,4228,"eyescenter",-1,0,0,1,7,TRUE,FALSE,4,FALSE,"km"
"7742",7742,77421,"A10VJC5VW0IBYK","18:33:45",2,"No-Social","Seven",4,0,"Switch",1,"squirrel",0,"",0,1929,"eyescenter",-1,0,0,1,7,TRUE,FALSE,4,FALSE,"km"
"7743",7743,77431,"A10VJC5VW0IBYK","18:33:45",3,"No-Social","Seven",4,0,"Switch",1,"tomato",1,"",0,1497,"eyescenter",-1,0,0,1,7,TRUE,FALSE,4,FALSE,"km"
"7744",7744,77441,"A10VJC5VW0IBYK","18:33:45",4,"No-Social","Seven",4,0,"Switch",1,"tomato",2,"",0,1591,"eyescenter",-1,0,0,1,7,TRUE,FALSE,4,FALSE,"km"
"7745",7745,77451,"A10VJC5VW0IBYK","18:33:45",5,"No-Social","Seven",4,0,"Switch",1,"Novel44",0,"Novel67",2,7365,"eyescenter",-1,1,0,0,7,TRUE,FALSE,4,FALSE,"km"
"7746",7746,77461,"A10VJC5VW0IBYK","18:33:45",6,"No-Social","Seven",4,1,"Same",0,"Novel47",0,"Novel47",0,5146,"eyescenter",-1,1,0,0,7,TRUE,FALSE,4,TRUE,"km"
"7747",7747,77471,"A10VJC5VW0IBYK","18:33:45",7,"No-Social","Seven",4,2,"Switch",0,"Novel90",2,"Novel95",1,6017,"eyescenter",-1,1,0,0,7,TRUE,FALSE,4,FALSE,"km"
"7748",7748,77481,"A10VJC5VW0IBYK","18:33:45",8,"No-Social","Seven",4,3,"Same",1,"Novel60",0,"Novel60",0,10058,"eyescenter",-1,1,0,0,7,TRUE,FALSE,4,TRUE,"km"
"7749",7749,77491,"A10VJC5VW0IBYK","18:33:45",9,"No-Social","Seven",4,4,"Switch",0,"Novel70",1,"Novel105",0,2802,"eyescenter",-1,1,0,0,7,TRUE,FALSE,4,FALSE,"km"
"7750",7750,77501,"A10VJC5VW0IBYK","18:33:45",10,"No-Social","Seven",4,5,"Same",1,"Novel17",3,"Novel17",3,4922,"eyescenter",-1,1,0,0,7,TRUE,FALSE,4,TRUE,"km"
"7751",7751,77511,"A10VJC5VW0IBYK","18:33:45",11,"No-Social","Seven",4,6,"Switch",1,"Novel45",2,"Novel68",0,3274,"eyescenter",-1,1,0,0,7,TRUE,FALSE,4,FALSE,"km"
"7752",7752,77521,"A10VJC5VW0IBYK","18:33:45",12,"No-Social","Seven",4,7,"Same",0,"Novel27",0,"Novel27",0,5218,"eyescenter",-1,1,0,0,7,TRUE,FALSE,4,TRUE,"km"
"7753",7753,77531,"A10VJC5VW0IBYK","18:33:45",13,"No-Social","Seven",4,0,"Switch",1,"Novel67",2,"Novel67",2,5329,"eyescenter",-1,0,1,0,7,TRUE,TRUE,4,TRUE,"km"
"7754",7754,77541,"A10VJC5VW0IBYK","18:33:45",14,"No-Social","Seven",4,1,"Same",0,"Novel47",2,"Novel47",0,5477,"eyescenter",-1,0,1,0,7,TRUE,FALSE,4,TRUE,"km"
"7755",7755,77551,"A10VJC5VW0IBYK","18:33:45",15,"No-Social","Seven",4,2,"Switch",0,"Novel95",0,"Novel95",1,3387,"eyescenter",-1,0,1,0,7,TRUE,FALSE,4,TRUE,"km"
"7756",7756,77561,"A10VJC5VW0IBYK","18:33:45",16,"No-Social","Seven",4,3,"Same",1,"Novel60",0,"Novel60",0,3857,"eyescenter",-1,0,1,0,7,TRUE,FALSE,4,TRUE,"km"
"7757",7757,77571,"A10VJC5VW0IBYK","18:33:45",17,"No-Social","Seven",4,4,"Switch",0,"Novel33",2,"Novel105",0,5339,"eyescenter",-1,0,1,0,7,TRUE,FALSE,4,FALSE,"km"
"7758",7758,77581,"A10VJC5VW0IBYK","18:33:45",18,"No-Social","Seven",4,5,"Same",1,"Novel17",3,"Novel17",3,2765,"eyescenter",-1,0,1,0,7,TRUE,FALSE,4,TRUE,"km"
"7759",7759,77591,"A10VJC5VW0IBYK","18:33:45",19,"No-Social","Seven",4,6,"Switch",1,"Novel68",0,"Novel68",0,5526,"eyescenter",-1,0,1,0,7,TRUE,FALSE,4,TRUE,"km"
"7760",7760,77601,"A10VJC5VW0IBYK","18:33:45",20,"No-Social","Seven",4,7,"Same",0,"Novel27",2,"Novel27",0,3605,"eyescenter",-1,0,1,0,7,TRUE,FALSE,4,TRUE,"km"
"10961",10961,10961,"A10VSODCQEYZDJ","13:55:48",1,"No-Social","Seven",4,0,"Switch",0,"squirrel",0,"",0,NA,"eyescenter",-1,0,0,1,7,TRUE,FALSE,4,FALSE,"km"
"10962",10962,10962,"A10VSODCQEYZDJ","13:55:48",2,"No-Social","Seven",4,0,"Switch",0,"squirrel",0,"",0,8090,"eyescenter",-1,0,0,1,7,TRUE,FALSE,4,FALSE,"km"
"10963",10963,10963,"A10VSODCQEYZDJ","13:55:48",3,"No-Social","Seven",4,0,"Switch",0,"tomato",1,"",0,4140,"eyescenter",-1,0,0,1,7,TRUE,FALSE,4,FALSE,"km"
"10964",10964,10964,"A10VSODCQEYZDJ","13:55:48",4,"No-Social","Seven",4,0,"Switch",0,"tomato",2,"",0,2974,"eyescenter",-1,0,0,1,7,TRUE,FALSE,4,FALSE,"km"
"10965",10965,10965,"A10VSODCQEYZDJ","13:55:48",5,"No-Social","Seven",4,0,"Switch",0,"Novel92",2,"Novel127",0,NA,"eyescenter",-1,1,0,0,7,TRUE,FALSE,4,FALSE,"km"
"10966",10966,10966,"A10VSODCQEYZDJ","13:55:48",6,"No-Social","Seven",4,1,"Same",0,"Novel60",1,"Novel60",1,8541,"eyescenter",-1,1,0,0,7,TRUE,FALSE,4,TRUE,"km"
"10967",10967,10967,"A10VSODCQEYZDJ","13:55:48",7,"No-Social","Seven",4,2,"Switch",1,"Novel33",1,"Novel100",2,5813,"eyescenter",-1,1,0,0,7,TRUE,FALSE,4,FALSE,"km"
"10968",10968,10968,"A10VSODCQEYZDJ","13:55:48",8,"No-Social","Seven",4,3,"Same",0,"Novel6",3,"Novel6",3,7599,"eyescenter",-1,1,0,0,7,TRUE,FALSE,4,TRUE,"km"
"10969",10969,10969,"A10VSODCQEYZDJ","13:55:48",9,"No-Social","Seven",4,4,"Switch",0,"Novel29",1,"Novel97",3,7892,"eyescenter",-1,1,0,0,7,TRUE,FALSE,4,FALSE,"km"
"10970",10970,10970,"A10VSODCQEYZDJ","13:55:48",10,"No-Social","Seven",4,5,"Same",1,"Novel91",1,"Novel91",1,6766,"eyescenter",-1,1,0,0,7,TRUE,FALSE,4,TRUE,"km"
"10971",10971,10971,"A10VSODCQEYZDJ","13:55:48",11,"No-Social","Seven",4,6,"Switch",1,"Novel24",2,"Novel19",3,5029,"eyescenter",-1,1,0,0,7,TRUE,FALSE,4,FALSE,"km"
"10972",10972,10972,"A10VSODCQEYZDJ","13:55:48",12,"No-Social","Seven",4,7,"Same",1,"Novel116",1,"Novel116",1,4132,"eyescenter",-1,1,0,0,7,TRUE,FALSE,4,TRUE,"km"
"10973",10973,10973,"A10VSODCQEYZDJ","13:55:48",13,"No-Social","Seven",4,0,"Switch",0,"Novel127",2,"Novel127",0,5132,"eyescenter",-1,0,1,0,7,TRUE,TRUE,4,TRUE,"km"
"10974",10974,10974,"A10VSODCQEYZDJ","13:55:48",14,"No-Social","Seven",4,1,"Same",0,"Novel60",3,"Novel60",1,5534,"eyescenter",-1,0,1,0,7,TRUE,FALSE,4,TRUE,"km"
"10975",10975,10975,"A10VSODCQEYZDJ","13:55:48",15,"No-Social","Seven",4,2,"Switch",1,"Novel100",2,"Novel100",2,5413,"eyescenter",-1,0,1,0,7,TRUE,FALSE,4,TRUE,"km"
"10976",10976,10976,"A10VSODCQEYZDJ","13:55:48",16,"No-Social","Seven",4,3,"Same",0,"Novel80",0,"Novel6",3,5593,"eyescenter",-1,0,1,0,7,TRUE,FALSE,4,FALSE,"km"
"10977",10977,10977,"A10VSODCQEYZDJ","13:55:48",17,"No-Social","Seven",4,4,"Switch",0,"Novel97",0,"Novel97",3,1375,"eyescenter",-1,0,1,0,7,TRUE,FALSE,4,TRUE,"km"
"10978",10978,10978,"A10VSODCQEYZDJ","13:55:48",18,"No-Social","Seven",4,5,"Same",1,"Novel91",1,"Novel91",1,3549,"eyescenter",-1,0,1,0,7,TRUE,FALSE,4,TRUE,"km"
"10979",10979,10979,"A10VSODCQEYZDJ","13:55:48",19,"No-Social","Seven",4,6,"Switch",1,"Novel19",3,"Novel19",3,6836,"eyescenter",-1,0,1,0,7,TRUE,FALSE,4,TRUE,"km"
"10980",10980,10980,"A10VSODCQEYZDJ","13:55:48",20,"No-Social","Seven",4,7,"Same",1,"Novel116",1,"Novel116",1,2706,"eyescenter",-1,0,1,0,7,TRUE,FALSE,4,TRUE,"km"
"7761",7761,77611,"A10XYFXQYJKBXF","03:15:14",1,"Social","Three",4,0,"Switch",0,"squirrel",0,"",0,7281,"eyescenter",-1,0,0,1,3,TRUE,FALSE,4,FALSE,"km"
"7762",7762,77621,"A10XYFXQYJKBXF","03:15:14",2,"Social","Three",4,0,"Switch",0,"squirrel",0,"",0,2061,"eyescenter",-1,0,0,1,3,TRUE,FALSE,4,FALSE,"km"
"7763",7763,77631,"A10XYFXQYJKBXF","03:15:14",3,"Social","Three",4,0,"Switch",0,"tomato",1,"",0,1999,"eyescenter",-1,0,0,1,3,TRUE,FALSE,4,FALSE,"km"
"7764",7764,77641,"A10XYFXQYJKBXF","03:15:14",4,"Social","Three",4,0,"Switch",0,"tomato",2,"",0,1735,"eyescenter",-1,0,0,1,3,TRUE,FALSE,4,FALSE,"km"
"7765",7765,77651,"A10XYFXQYJKBXF","03:15:14",5,"Social","Three",4,0,"Switch",0,"Novel92",3,"Novel135",2,5813,"eyes_down_right",2,1,0,0,3,TRUE,FALSE,4,FALSE,"km"
"7766",7766,77661,"A10XYFXQYJKBXF","03:15:14",6,"Social","Three",4,1,"Same",1,"Novel124",1,"Novel124",1,4130,"eyes_right",3,1,0,0,3,TRUE,FALSE,4,TRUE,"km"
"7767",7767,77671,"A10XYFXQYJKBXF","03:15:14",7,"Social","Three",4,2,"Switch",1,"Novel35",3,"Novel4",0,3172,"eyes_right",3,1,0,0,3,TRUE,FALSE,4,FALSE,"km"
"7768",7768,77681,"A10XYFXQYJKBXF","03:15:14",8,"Social","Three",4,3,"Same",1,"Novel105",2,"Novel105",2,4626,"eyes_down_right",2,1,0,0,3,TRUE,FALSE,4,TRUE,"km"
"7769",7769,77691,"A10XYFXQYJKBXF","03:15:14",9,"Social","Three",4,0,"Switch",0,"Novel126",2,"Novel135",2,4690,"eyescenter",-1,0,1,0,3,TRUE,TRUE,4,FALSE,"km"
"7770",7770,77701,"A10XYFXQYJKBXF","03:15:14",10,"Social","Three",4,1,"Same",1,"Novel124",1,"Novel124",1,1688,"eyescenter",-1,0,1,0,3,TRUE,FALSE,4,TRUE,"km"
"7771",7771,77711,"A10XYFXQYJKBXF","03:15:14",11,"Social","Three",4,2,"Switch",1,"Novel60",3,"Novel4",0,4658,"eyescenter",-1,0,1,0,3,TRUE,FALSE,4,FALSE,"km"
"7772",7772,77721,"A10XYFXQYJKBXF","03:15:14",12,"Social","Three",4,3,"Same",1,"Novel105",2,"Novel105",2,1791,"eyescenter",-1,0,1,0,3,TRUE,FALSE,4,TRUE,"km"
"7773",7773,77731,"A10XYFXQYJKBXF","03:15:14",13,"Social","Three",4,4,"Switch",1,"Novel115",3,"Novel58",0,2686,"eyes_right",3,1,0,0,3,TRUE,FALSE,4,FALSE,"km"
"7774",7774,77741,"A10XYFXQYJKBXF","03:15:14",14,"Social","Three",4,5,"Same",0,"Novel32",0,"Novel32",0,3449,"eyes_left",0,1,0,0,3,TRUE,FALSE,4,TRUE,"km"
"7775",7775,77751,"A10XYFXQYJKBXF","03:15:14",15,"Social","Three",4,6,"Switch",0,"Novel55",2,"Novel42",0,995,"eyes_down_right",2,1,0,0,3,TRUE,FALSE,4,FALSE,"km"
"7776",7776,77761,"A10XYFXQYJKBXF","03:15:14",16,"Social","Three",4,7,"Same",0,"Novel9",2,"Novel9",2,2445,"eyes_down_right",2,1,0,0,3,TRUE,FALSE,4,TRUE,"km"
"7777",7777,77771,"A10XYFXQYJKBXF","03:15:14",17,"Social","Three",4,4,"Switch",1,"Novel102",1,"Novel58",0,3018,"eyescenter",-1,0,1,0,3,TRUE,FALSE,4,FALSE,"km"
"7778",7778,77781,"A10XYFXQYJKBXF","03:15:14",18,"Social","Three",4,5,"Same",0,"Novel32",2,"Novel32",0,1818,"eyescenter",-1,0,1,0,3,TRUE,FALSE,4,TRUE,"km"
"7779",7779,77791,"A10XYFXQYJKBXF","03:15:14",19,"Social","Three",4,6,"Switch",0,"Novel17",3,"Novel42",0,3200,"eyescenter",-1,0,1,0,3,TRUE,FALSE,4,FALSE,"km"
"7780",7780,77801,"A10XYFXQYJKBXF","03:15:14",20,"Social","Three",4,7,"Same",0,"Novel9",3,"Novel9",2,6051,"eyescenter",-1,0,1,0,3,TRUE,FALSE,4,TRUE,"km"
"10981",10981,10981,"A11AC8ZZG6UC7U","21:51:56",1,"No-Social","Zero",4,0,"Switch",0,"squirrel",0,"",0,NA,"eyescenter",-1,0,0,1,0,TRUE,FALSE,4,FALSE,"km"
"10982",10982,10982,"A11AC8ZZG6UC7U","21:51:56",2,"No-Social","Zero",4,0,"Switch",0,"squirrel",0,"",0,1667,"eyescenter",-1,0,0,1,0,TRUE,FALSE,4,FALSE,"km"
"10983",10983,10983,"A11AC8ZZG6UC7U","21:51:56",3,"No-Social","Zero",4,0,"Switch",0,"tomato",1,"",0,3124,"eyescenter",-1,0,0,1,0,TRUE,FALSE,4,FALSE,"km"
"10984",10984,10984,"A11AC8ZZG6UC7U","21:51:56",4,"No-Social","Zero",4,0,"Switch",0,"tomato",2,"",0,2057,"eyescenter",-1,0,0,1,0,TRUE,FALSE,4,FALSE,"km"
"10985",10985,10985,"A11AC8ZZG6UC7U","21:51:56",5,"No-Social","Zero",4,0,"Switch",0,"Novel108",2,"Novel38",0,5268,"eyescenter",-1,1,0,0,0,TRUE,FALSE,4,FALSE,"km"
"10986",10986,10986,"A11AC8ZZG6UC7U","21:51:56",6,"No-Social","Zero",4,0,"Switch",0,"Novel61",2,"Novel38",0,1651,"eyescenter",-1,0,1,0,0,TRUE,TRUE,4,FALSE,"km"
"10987",10987,10987,"A11AC8ZZG6UC7U","21:51:56",7,"No-Social","Zero",4,1,"Same",0,"Novel29",1,"Novel29",1,2659,"eyescenter",-1,1,0,0,0,TRUE,FALSE,4,TRUE,"km"
"10988",10988,10988,"A11AC8ZZG6UC7U","21:51:56",8,"No-Social","Zero",4,1,"Same",0,"Novel29",2,"Novel29",1,2523,"eyescenter",-1,0,1,0,0,TRUE,FALSE,4,TRUE,"km"
"10989",10989,10989,"A11AC8ZZG6UC7U","21:51:56",9,"No-Social","Zero",4,2,"Switch",1,"Novel66",0,"Novel105",1,3055,"eyescenter",-1,1,0,0,0,TRUE,FALSE,4,FALSE,"km"
"10990",10990,10990,"A11AC8ZZG6UC7U","21:51:56",10,"No-Social","Zero",4,2,"Switch",1,"Novel88",2,"Novel105",1,2265,"eyescenter",-1,0,1,0,0,TRUE,FALSE,4,FALSE,"km"
"10991",10991,10991,"A11AC8ZZG6UC7U","21:51:56",11,"No-Social","Zero",4,3,"Same",1,"Novel92",2,"Novel92",2,NA,"eyescenter",-1,1,0,0,0,TRUE,FALSE,4,TRUE,"km"
"10992",10992,10992,"A11AC8ZZG6UC7U","21:51:56",12,"No-Social","Zero",4,3,"Same",1,"Novel25",3,"Novel92",2,928,"eyescenter",-1,0,1,0,0,TRUE,FALSE,4,FALSE,"km"
"10993",10993,10993,"A11AC8ZZG6UC7U","21:51:56",13,"No-Social","Zero",4,4,"Switch",0,"Novel134",2,"Novel125",3,970,"eyescenter",-1,1,0,0,0,TRUE,FALSE,4,FALSE,"km"
"10994",10994,10994,"A11AC8ZZG6UC7U","21:51:56",14,"No-Social","Zero",4,4,"Switch",0,"Novel12",2,"Novel125",3,984,"eyescenter",-1,0,1,0,0,TRUE,FALSE,4,FALSE,"km"
"10995",10995,10995,"A11AC8ZZG6UC7U","21:51:56",15,"No-Social","Zero",4,5,"Same",1,"Novel2",1,"Novel2",1,NA,"eyescenter",-1,1,0,0,0,TRUE,FALSE,4,TRUE,"km"
"10996",10996,10996,"A11AC8ZZG6UC7U","21:51:56",16,"No-Social","Zero",4,5,"Same",1,"Novel60",0,"Novel2",1,861,"eyescenter",-1,0,1,0,0,TRUE,FALSE,4,FALSE,"km"
"10997",10997,10997,"A11AC8ZZG6UC7U","21:51:56",17,"No-Social","Zero",4,6,"Switch",1,"Novel97",1,"Novel20",0,618,"eyescenter",-1,1,0,0,0,TRUE,FALSE,4,FALSE,"km"
"10998",10998,10998,"A11AC8ZZG6UC7U","21:51:56",18,"No-Social","Zero",4,6,"Switch",1,"Novel6",2,"Novel20",0,NA,"eyescenter",-1,0,1,0,0,TRUE,FALSE,4,FALSE,"km"
"10999",10999,10999,"A11AC8ZZG6UC7U","21:51:56",19,"No-Social","Zero",4,7,"Same",0,"Novel81",3,"Novel81",3,NA,"eyescenter",-1,1,0,0,0,TRUE,FALSE,4,TRUE,"km"
"11000",11000,11000,"A11AC8ZZG6UC7U","21:51:56",20,"No-Social","Zero",4,7,"Same",0,"Novel86",2,"Novel81",3,NA,"eyescenter",-1,0,1,0,0,TRUE,FALSE,4,FALSE,"km"
"11001",11001,11001,"A11ANA7JWRJUZG","14:23:10",1,"Social","Three",4,0,"Switch",0,"squirrel",0,"",0,3600,"eyescenter",-1,0,0,1,3,TRUE,FALSE,4,FALSE,"km"
"11002",11002,11002,"A11ANA7JWRJUZG","14:23:10",2,"Social","Three",4,0,"Switch",0,"squirrel",0,"",0,1861,"eyescenter",-1,0,0,1,3,TRUE,FALSE,4,FALSE,"km"
"11003",11003,11003,"A11ANA7JWRJUZG","14:23:10",3,"Social","Three",4,0,"Switch",0,"tomato",1,"",0,2076,"eyescenter",-1,0,0,1,3,TRUE,FALSE,4,FALSE,"km"
"11004",11004,11004,"A11ANA7JWRJUZG","14:23:10",4,"Social","Three",4,0,"Switch",0,"tomato",2,"",0,1743,"eyescenter",-1,0,0,1,3,TRUE,FALSE,4,FALSE,"km"
"11005",11005,11005,"A11ANA7JWRJUZG","14:23:10",5,"Social","Three",4,0,"Switch",0,"Novel129",1,"Novel65",0,4468,"eyes_down_left",1,1,0,0,3,TRUE,FALSE,4,FALSE,"km"
"11006",11006,11006,"A11ANA7JWRJUZG","14:23:10",6,"Social","Three",4,1,"Same",0,"Novel20",2,"Novel20",2,1766,"eyes_down_right",2,1,0,0,3,TRUE,FALSE,4,TRUE,"km"
"11007",11007,11007,"A11ANA7JWRJUZG","14:23:10",7,"Social","Three",4,2,"Switch",1,"Novel130",2,"Novel134",0,1651,"eyes_down_right",2,1,0,0,3,TRUE,FALSE,4,FALSE,"km"
"11008",11008,11008,"A11ANA7JWRJUZG","14:23:10",8,"Social","Three",4,3,"Same",1,"Novel55",3,"Novel55",3,1899,"eyes_right",3,1,0,0,3,TRUE,FALSE,4,TRUE,"km"
"11009",11009,11009,"A11ANA7JWRJUZG","14:23:10",9,"Social","Three",4,0,"Switch",0,"Novel65",1,"Novel65",0,2274,"eyescenter",-1,0,1,0,3,TRUE,TRUE,4,TRUE,"km"
"11010",11010,11010,"A11ANA7JWRJUZG","14:23:10",10,"Social","Three",4,1,"Same",0,"Novel20",0,"Novel20",2,1611,"eyescenter",-1,0,1,0,3,TRUE,FALSE,4,TRUE,"km"
"11011",11011,11011,"A11ANA7JWRJUZG","14:23:10",11,"Social","Three",4,2,"Switch",1,"Novel51",1,"Novel134",0,3571,"eyescenter",-1,0,1,0,3,TRUE,FALSE,4,FALSE,"km"
"11012",11012,11012,"A11ANA7JWRJUZG","14:23:10",12,"Social","Three",4,3,"Same",1,"Novel55",3,"Novel55",3,1563,"eyescenter",-1,0,1,0,3,TRUE,FALSE,4,TRUE,"km"
"11013",11013,11013,"A11ANA7JWRJUZG","14:23:10",13,"Social","Three",4,4,"Switch",0,"Novel64",3,"Novel76",0,1385,"eyes_right",3,1,0,0,3,TRUE,FALSE,4,FALSE,"km"
"11014",11014,11014,"A11ANA7JWRJUZG","14:23:10",14,"Social","Three",4,5,"Same",1,"Novel9",3,"Novel9",3,1311,"eyes_right",3,1,0,0,3,TRUE,FALSE,4,TRUE,"km"
"11015",11015,11015,"A11ANA7JWRJUZG","14:23:10",15,"Social","Three",4,6,"Switch",1,"Novel131",0,"Novel113",2,1465,"eyes_left",0,1,0,0,3,TRUE,FALSE,4,FALSE,"km"
"11016",11016,11016,"A11ANA7JWRJUZG","14:23:10",16,"Social","Three",4,7,"Same",0,"Novel106",1,"Novel106",1,827,"eyes_down_left",1,1,0,0,3,TRUE,FALSE,4,TRUE,"km"
"11017",11017,11017,"A11ANA7JWRJUZG","14:23:10",17,"Social","Three",4,4,"Switch",0,"Novel1",2,"Novel76",0,3885,"eyescenter",-1,0,1,0,3,TRUE,FALSE,4,FALSE,"km"
"11018",11018,11018,"A11ANA7JWRJUZG","14:23:10",18,"Social","Three",4,5,"Same",1,"Novel9",3,"Novel9",3,2095,"eyescenter",-1,0,1,0,3,TRUE,FALSE,4,TRUE,"km"
"11019",11019,11019,"A11ANA7JWRJUZG","14:23:10",19,"Social","Three",4,6,"Switch",1,"Novel113",2,"Novel113",2,2427,"eyescenter",-1,0,1,0,3,TRUE,FALSE,4,TRUE,"km"
"11020",11020,11020,"A11ANA7JWRJUZG","14:23:10",20,"Social","Three",4,7,"Same",0,"Novel106",2,"Novel106",1,1249,"eyescenter",-1,0,1,0,3,TRUE,FALSE,4,TRUE,"km"
"21",21,21,"A11DPUCF844DPM","13:52:43",1,"Social","Zero",6,0,"Switch",1,"squirrel",3,"",0,1134,"eyescenter",-1,0,0,1,0,TRUE,FALSE,6,FALSE,"km"
"22",22,22,"A11DPUCF844DPM","13:52:43",2,"Social","Zero",6,0,"Switch",1,"squirrel",1,"",0,1226,"eyescenter",-1,0,0,1,0,TRUE,FALSE,6,FALSE,"km"
"23",23,23,"A11DPUCF844DPM","13:52:43",3,"Social","Zero",6,0,"Switch",1,"tomato",4,"",0,1281,"eyescenter",-1,0,0,1,0,TRUE,FALSE,6,FALSE,"km"
"24",24,24,"A11DPUCF844DPM","13:52:43",4,"Social","Zero",6,0,"Switch",1,"tomato",0,"",0,3040,"eyescenter",-1,0,0,1,0,TRUE,FALSE,6,FALSE,"km"
"25",25,25,"A11DPUCF844DPM","13:52:43",5,"Social","Zero",6,0,"Switch",1,"Novel102",4,"Novel119",1,2564,"eyes_down_right",2,1,0,0,0,TRUE,FALSE,6,FALSE,"km"
"26",26,26,"A11DPUCF844DPM","13:52:43",6,"Social","Zero",6,0,"Switch",1,"Novel134",0,"Novel119",1,2820,"eyescenter",-1,0,1,0,0,TRUE,TRUE,6,FALSE,"km"
"27",27,27,"A11DPUCF844DPM","13:52:43",7,"Social","Zero",6,1,"Same",0,"Novel8",5,"Novel8",5,2551,"eyes_right",3,1,0,0,0,TRUE,FALSE,6,TRUE,"km"
"28",28,28,"A11DPUCF844DPM","13:52:43",8,"Social","Zero",6,1,"Same",0,"Novel8",4,"Novel8",5,833,"eyescenter",-1,0,1,0,0,TRUE,FALSE,6,TRUE,"km"
"29",29,29,"A11DPUCF844DPM","13:52:43",9,"Social","Zero",6,2,"Switch",0,"Novel51",5,"Novel21",1,1135,"eyes_right",3,1,0,0,0,TRUE,FALSE,6,FALSE,"km"
"30",30,30,"A11DPUCF844DPM","13:52:43",10,"Social","Zero",6,2,"Switch",0,"Novel30",1,"Novel21",1,5626,"eyescenter",-1,0,1,0,0,TRUE,FALSE,6,FALSE,"km"
"31",31,31,"A11DPUCF844DPM","13:52:43",11,"Social","Zero",6,3,"Same",1,"Novel78",4,"Novel78",4,1734,"eyes_down_right",2,1,0,0,0,TRUE,FALSE,6,TRUE,"km"
"32",32,32,"A11DPUCF844DPM","13:52:43",12,"Social","Zero",6,3,"Same",1,"Novel78",4,"Novel78",4,600,"eyescenter",-1,0,1,0,0,TRUE,FALSE,6,TRUE,"km"
"33",33,33,"A11DPUCF844DPM","13:52:43",13,"Social","Zero",6,4,"Switch",0,"Novel111",0,"Novel94",3,1044,"eyes_left_90",4,1,0,0,0,TRUE,FALSE,6,FALSE,"km"
"34",34,34,"A11DPUCF844DPM","13:52:43",14,"Social","Zero",6,4,"Switch",0,"Novel123",5,"Novel94",3,3489,"eyescenter",-1,0,1,0,0,TRUE,FALSE,6,FALSE,"km"
"35",35,35,"A11DPUCF844DPM","13:52:43",15,"Social","Zero",6,5,"Same",1,"Novel67",1,"Novel67",1,1939,"eyes_right_90",5,1,0,0,0,TRUE,FALSE,6,TRUE,"km"
"36",36,36,"A11DPUCF844DPM","13:52:43",16,"Social","Zero",6,5,"Same",1,"Novel67",1,"Novel67",1,NA,"eyescenter",-1,0,1,0,0,TRUE,FALSE,6,TRUE,"km"
"37",37,37,"A11DPUCF844DPM","13:52:43",17,"Social","Zero",6,6,"Switch",1,"Novel34",1,"Novel71",5,1668,"eyes_right_90",5,1,0,0,0,TRUE,FALSE,6,FALSE,"km"
"38",38,38,"A11DPUCF844DPM","13:52:43",18,"Social","Zero",6,6,"Switch",1,"Novel93",2,"Novel71",5,983,"eyescenter",-1,0,1,0,0,TRUE,FALSE,6,FALSE,"km"
"39",39,39,"A11DPUCF844DPM","13:52:43",19,"Social","Zero",6,7,"Same",0,"Novel80",1,"Novel80",1,805,"eyes_right_90",5,1,0,0,0,TRUE,FALSE,6,TRUE,"km"
"40",40,40,"A11DPUCF844DPM","13:52:43",20,"Social","Zero",6,7,"Same",0,"Novel80",2,"Novel80",1,772,"eyescenter",-1,0,1,0,0,TRUE,FALSE,6,TRUE,"km"
"17869",17869,21,"A11HW2YHQ89EQG","14:55:29",1,"Social","Seven",4,0,"Switch",0,"squirrel",0,"",0,2718,"eyescenter",-1,0,0,1,7,TRUE,FALSE,4,FALSE,"km-batch2"
"17870",17870,22,"A11HW2YHQ89EQG","14:55:29",2,"Social","Seven",4,0,"Switch",0,"squirrel",0,"",0,1209,"eyescenter",-1,0,0,1,7,TRUE,FALSE,4,FALSE,"km-batch2"
"17871",17871,23,"A11HW2YHQ89EQG","14:55:29",3,"Social","Seven",4,0,"Switch",0,"tomato",1,"",0,1594,"eyescenter",-1,0,0,1,7,TRUE,FALSE,4,FALSE,"km-batch2"
"17872",17872,24,"A11HW2YHQ89EQG","14:55:29",4,"Social","Seven",4,0,"Switch",0,"tomato",2,"",0,1234,"eyescenter",-1,0,0,1,7,TRUE,FALSE,4,FALSE,"km-batch2"
"17873",17873,25,"A11HW2YHQ89EQG","14:55:29",5,"Social","Seven",4,0,"Switch",0,"Novel100",0,"Novel24",1,3398,"eyes_down_left",1,1,0,0,7,TRUE,FALSE,4,FALSE,"km-batch2"
"17874",17874,26,"A11HW2YHQ89EQG","14:55:29",6,"Social","Seven",4,1,"Same",0,"Novel70",3,"Novel70",3,1395,"eyes_right",3,1,0,0,7,TRUE,FALSE,4,TRUE,"km-batch2"
"17875",17875,27,"A11HW2YHQ89EQG","14:55:29",7,"Social","Seven",4,2,"Switch",1,"Novel122",3,"Novel35",1,1313,"eyes_right",3,1,0,0,7,TRUE,FALSE,4,FALSE,"km-batch2"
"17876",17876,28,"A11HW2YHQ89EQG","14:55:29",8,"Social","Seven",4,3,"Same",1,"Novel38",1,"Novel38",1,3327,"eyes_down_left",1,1,0,0,7,TRUE,FALSE,4,TRUE,"km-batch2"
"17877",17877,29,"A11HW2YHQ89EQG","14:55:29",9,"Social","Seven",4,4,"Switch",1,"Novel72",0,"Novel99",2,1356,"eyes_left",0,1,0,0,7,TRUE,FALSE,4,FALSE,"km-batch2"
"17878",17878,30,"A11HW2YHQ89EQG","14:55:29",10,"Social","Seven",4,5,"Same",1,"Novel65",3,"Novel65",3,1188,"eyes_right",3,1,0,0,7,TRUE,FALSE,4,TRUE,"km-batch2"
"17879",17879,31,"A11HW2YHQ89EQG","14:55:29",11,"Social","Seven",4,6,"Switch",0,"Novel66",2,"Novel6",0,624,"eyes_down_right",2,1,0,0,7,TRUE,FALSE,4,FALSE,"km-batch2"
"17880",17880,32,"A11HW2YHQ89EQG","14:55:29",12,"Social","Seven",4,7,"Same",0,"Novel31",0,"Novel31",0,1054,"eyes_left",0,1,0,0,7,TRUE,FALSE,4,TRUE,"km-batch2"
"17881",17881,33,"A11HW2YHQ89EQG","14:55:29",13,"Social","Seven",4,0,"Switch",0,"Novel24",0,"Novel24",1,2607,"eyescenter",-1,0,1,0,7,TRUE,TRUE,4,TRUE,"km-batch2"
"17882",17882,34,"A11HW2YHQ89EQG","14:55:29",14,"Social","Seven",4,1,"Same",0,"Novel75",1,"Novel70",3,2967,"eyescenter",-1,0,1,0,7,TRUE,FALSE,4,FALSE,"km-batch2"
"17883",17883,35,"A11HW2YHQ89EQG","14:55:29",15,"Social","Seven",4,2,"Switch",1,"Novel41",2,"Novel35",1,2350,"eyescenter",-1,0,1,0,7,TRUE,FALSE,4,FALSE,"km-batch2"
"17884",17884,36,"A11HW2YHQ89EQG","14:55:29",16,"Social","Seven",4,3,"Same",1,"Novel84",0,"Novel38",1,1516,"eyescenter",-1,0,1,0,7,TRUE,FALSE,4,FALSE,"km-batch2"
"17885",17885,37,"A11HW2YHQ89EQG","14:55:29",17,"Social","Seven",4,4,"Switch",1,"Novel115",0,"Novel99",2,1773,"eyescenter",-1,0,1,0,7,TRUE,FALSE,4,FALSE,"km-batch2"
"17886",17886,38,"A11HW2YHQ89EQG","14:55:29",18,"Social","Seven",4,5,"Same",1,"Novel65",3,"Novel65",3,3686,"eyescenter",-1,0,1,0,7,TRUE,FALSE,4,TRUE,"km-batch2"
"17887",17887,39,"A11HW2YHQ89EQG","14:55:29",19,"Social","Seven",4,6,"Switch",0,"Novel104",3,"Novel6",0,2496,"eyescenter",-1,0,1,0,7,TRUE,FALSE,4,FALSE,"km-batch2"
"17888",17888,40,"A11HW2YHQ89EQG","14:55:29",20,"Social","Seven",4,7,"Same",0,"Novel110",0,"Novel31",0,3698,"eyescenter",-1,0,1,0,7,TRUE,FALSE,4,FALSE,"km-batch2"
"7781",7781,77811,"A11WZN316TJ69L","17:22:27",1,"Social","Zero",4,0,"Same",1,"squirrel",0,"",0,4300,"eyescenter",-1,0,0,1,0,TRUE,FALSE,4,FALSE,"km"
"7782",7782,77821,"A11WZN316TJ69L","17:22:27",2,"Social","Zero",4,0,"Same",1,"squirrel",0,"",0,647,"eyescenter",-1,0,0,1,0,TRUE,FALSE,4,FALSE,"km"
"7783",7783,77831,"A11WZN316TJ69L","17:22:27",3,"Social","Zero",4,0,"Same",1,"tomato",1,"",0,1363,"eyescenter",-1,0,0,1,0,TRUE,FALSE,4,FALSE,"km"
"7784",7784,77841,"A11WZN316TJ69L","17:22:27",4,"Social","Zero",4,0,"Same",1,"tomato",2,"",0,1102,"eyescenter",-1,0,0,1,0,TRUE,FALSE,4,FALSE,"km"
"7785",7785,77851,"A11WZN316TJ69L","17:22:27",5,"Social","Zero",4,0,"Same",1,"Novel22",1,"Novel22",1,1531,"eyes_down_left",1,1,0,0,0,TRUE,FALSE,4,TRUE,"km"
"7786",7786,77861,"A11WZN316TJ69L","17:22:27",6,"Social","Zero",4,0,"Same",1,"Novel22",1,"Novel22",1,1168,"eyescenter",-1,0,1,0,0,TRUE,TRUE,4,TRUE,"km"
"7787",7787,77871,"A11WZN316TJ69L","17:22:27",7,"Social","Zero",4,1,"Switch",0,"Novel79",3,"Novel24",0,1781,"eyes_right",3,1,0,0,0,TRUE,FALSE,4,FALSE,"km"
"7788",7788,77881,"A11WZN316TJ69L","17:22:27",8,"Social","Zero",4,1,"Switch",0,"Novel72",3,"Novel24",0,936,"eyescenter",-1,0,1,0,0,TRUE,FALSE,4,FALSE,"km"
"7789",7789,77891,"A11WZN316TJ69L","17:22:27",9,"Social","Zero",4,2,"Same",0,"Novel28",3,"Novel28",3,1783,"eyes_right",3,1,0,0,0,TRUE,FALSE,4,TRUE,"km"
"7790",7790,77901,"A11WZN316TJ69L","17:22:27",10,"Social","Zero",4,2,"Same",0,"Novel71",3,"Novel28",3,1016,"eyescenter",-1,0,1,0,0,TRUE,FALSE,4,FALSE,"km"
"7791",7791,77911,"A11WZN316TJ69L","17:22:27",11,"Social","Zero",4,3,"Switch",0,"Novel35",2,"Novel33",3,NA,"eyes_down_right",2,1,0,0,0,TRUE,FALSE,4,FALSE,"km"
"7792",7792,77921,"A11WZN316TJ69L","17:22:27",12,"Social","Zero",4,3,"Switch",0,"Novel33",2,"Novel33",3,2577,"eyescenter",-1,0,1,0,0,TRUE,FALSE,4,TRUE,"km"
"7793",7793,77931,"A11WZN316TJ69L","17:22:27",13,"Social","Zero",4,4,"Same",0,"Novel86",1,"Novel86",1,1416,"eyes_down_left",1,1,0,0,0,TRUE,FALSE,4,TRUE,"km"
"7794",7794,77941,"A11WZN316TJ69L","17:22:27",14,"Social","Zero",4,4,"Same",0,"Novel86",3,"Novel86",1,879,"eyescenter",-1,0,1,0,0,TRUE,FALSE,4,TRUE,"km"
"7795",7795,77951,"A11WZN316TJ69L","17:22:27",15,"Social","Zero",4,5,"Switch",1,"Novel118",3,"Novel3",0,1471,"eyes_right",3,1,0,0,0,TRUE,FALSE,4,FALSE,"km"
"7796",7796,77961,"A11WZN316TJ69L","17:22:27",16,"Social","Zero",4,5,"Switch",1,"Novel89",3,"Novel3",0,4454,"eyescenter",-1,0,1,0,0,TRUE,FALSE,4,FALSE,"km"
"7797",7797,77971,"A11WZN316TJ69L","17:22:27",17,"Social","Zero",4,6,"Same",1,"Novel23",3,"Novel23",3,1477,"eyes_right",3,1,0,0,0,TRUE,FALSE,4,TRUE,"km"
"7798",7798,77981,"A11WZN316TJ69L","17:22:27",18,"Social","Zero",4,6,"Same",1,"Novel23",3,"Novel23",3,897,"eyescenter",-1,0,1,0,0,TRUE,FALSE,4,TRUE,"km"
"7799",7799,77991,"A11WZN316TJ69L","17:22:27",19,"Social","Zero",4,7,"Switch",1,"Novel101",0,"Novel107",3,NA,"eyes_left",0,1,0,0,0,TRUE,FALSE,4,FALSE,"km"
"7800",7800,78001,"A11WZN316TJ69L","17:22:27",20,"Social","Zero",4,7,"Switch",1,"Novel2",1,"Novel107",3,7534,"eyescenter",-1,0,1,0,0,TRUE,FALSE,4,FALSE,"km"
"41",41,41,"A11YOOX5ZN0Z9C","18:16:32",1,"Social","Zero",6,0,"Same",1,"squirrel",3,"",0,5334,"eyescenter",-1,0,0,1,0,TRUE,FALSE,6,FALSE,"km"
"42",42,42,"A11YOOX5ZN0Z9C","18:16:32",2,"Social","Zero",6,0,"Same",1,"squirrel",1,"",0,7619,"eyescenter",-1,0,0,1,0,TRUE,FALSE,6,FALSE,"km"
"43",43,43,"A11YOOX5ZN0Z9C","18:16:32",3,"Social","Zero",6,0,"Same",1,"tomato",4,"",0,1962,"eyescenter",-1,0,0,1,0,TRUE,FALSE,6,FALSE,"km"
"44",44,44,"A11YOOX5ZN0Z9C","18:16:32",4,"Social","Zero",6,0,"Same",1,"tomato",0,"",0,1789,"eyescenter",-1,0,0,1,0,TRUE,FALSE,6,FALSE,"km"
"45",45,45,"A11YOOX5ZN0Z9C","18:16:32",5,"Social","Zero",6,0,"Same",1,"Novel59",5,"Novel59",5,2789,"eyes_down_right",2,1,0,0,0,TRUE,FALSE,6,TRUE,"km"
"46",46,46,"A11YOOX5ZN0Z9C","18:16:32",6,"Social","Zero",6,0,"Same",1,"Novel59",5,"Novel59",5,2064,"eyescenter",-1,0,1,0,0,TRUE,TRUE,6,TRUE,"km"
"47",47,47,"A11YOOX5ZN0Z9C","18:16:32",7,"Social","Zero",6,1,"Switch",1,"Novel5",5,"Novel95",2,4293,"eyes_right",3,1,0,0,0,TRUE,FALSE,6,FALSE,"km"
"48",48,48,"A11YOOX5ZN0Z9C","18:16:32",8,"Social","Zero",6,1,"Switch",1,"Novel95",2,"Novel95",2,6072,"eyescenter",-1,0,1,0,0,TRUE,FALSE,6,TRUE,"km"
"49",49,49,"A11YOOX5ZN0Z9C","18:16:32",9,"Social","Zero",6,2,"Same",0,"Novel111",4,"Novel111",4,4217,"eyes_down_right",2,1,0,0,0,TRUE,FALSE,6,TRUE,"km"
"50",50,50,"A11YOOX5ZN0Z9C","18:16:32",10,"Social","Zero",6,2,"Same",0,"Novel111",0,"Novel111",4,1668,"eyescenter",-1,0,1,0,0,TRUE,FALSE,6,TRUE,"km"
"51",51,51,"A11YOOX5ZN0Z9C","18:16:32",11,"Social","Zero",6,3,"Switch",0,"Novel91",0,"Novel69",1,1583,"eyes_left_90",4,1,0,0,0,TRUE,FALSE,6,FALSE,"km"
"52",52,52,"A11YOOX5ZN0Z9C","18:16:32",12,"Social","Zero",6,3,"Switch",0,"Novel128",4,"Novel69",1,3647,"eyescenter",-1,0,1,0,0,TRUE,FALSE,6,FALSE,"km"
"53",53,53,"A11YOOX5ZN0Z9C","18:16:32",13,"Social","Zero",6,4,"Same",0,"Novel90",5,"Novel90",5,1859,"eyes_right",3,1,0,0,0,TRUE,FALSE,6,TRUE,"km"
"54",54,54,"A11YOOX5ZN0Z9C","18:16:32",14,"Social","Zero",6,4,"Same",0,"Novel90",4,"Novel90",5,762,"eyescenter",-1,0,1,0,0,TRUE,FALSE,6,TRUE,"km"
"55",55,55,"A11YOOX5ZN0Z9C","18:16:32",15,"Social","Zero",6,5,"Switch",1,"Novel7",2,"Novel17",5,2322,"eyes_left",0,1,0,0,0,TRUE,FALSE,6,FALSE,"km"
"56",56,56,"A11YOOX5ZN0Z9C","18:16:32",16,"Social","Zero",6,5,"Switch",1,"Novel17",5,"Novel17",5,3881,"eyescenter",-1,0,1,0,0,TRUE,FALSE,6,TRUE,"km"
"57",57,57,"A11YOOX5ZN0Z9C","18:16:32",17,"Social","Zero",6,6,"Same",1,"Novel6",0,"Novel6",0,1596,"eyes_left_90",4,1,0,0,0,TRUE,FALSE,6,TRUE,"km"
"58",58,58,"A11YOOX5ZN0Z9C","18:16:32",18,"Social","Zero",6,6,"Same",1,"Novel6",0,"Novel6",0,NA,"eyescenter",-1,0,1,0,0,TRUE,FALSE,6,TRUE,"km"
"59",59,59,"A11YOOX5ZN0Z9C","18:16:32",19,"Social","Zero",6,7,"Switch",0,"Novel58",3,"Novel57",1,1606,"eyes_down_left",1,1,0,0,0,TRUE,FALSE,6,FALSE,"km"
"60",60,60,"A11YOOX5ZN0Z9C","18:16:32",20,"Social","Zero",6,7,"Switch",0,"Novel135",5,"Novel57",1,3599,"eyescenter",-1,0,1,0,0,TRUE,FALSE,6,FALSE,"km"
"61",61,61,"A123F7829DTAYZ","18:15:31",1,"Social","Seven",6,0,"Same",0,"squirrel",3,"",0,2472,"eyescenter",-1,0,0,1,7,TRUE,FALSE,6,FALSE,"km"
"62",62,62,"A123F7829DTAYZ","18:15:31",2,"Social","Seven",6,0,"Same",0,"squirrel",1,"",0,1071,"eyescenter",-1,0,0,1,7,TRUE,FALSE,6,FALSE,"km"
"63",63,63,"A123F7829DTAYZ","18:15:31",3,"Social","Seven",6,0,"Same",0,"tomato",4,"",0,1272,"eyescenter",-1,0,0,1,7,TRUE,FALSE,6,FALSE,"km"
"64",64,64,"A123F7829DTAYZ","18:15:31",4,"Social","Seven",6,0,"Same",0,"tomato",0,"",0,1021,"eyescenter",-1,0,0,1,7,TRUE,FALSE,6,FALSE,"km"
"65",65,65,"A123F7829DTAYZ","18:15:31",5,"Social","Seven",6,0,"Same",0,"Novel82",5,"Novel82",5,1924,"eyes_right",3,1,0,0,7,TRUE,FALSE,6,TRUE,"km"
"66",66,66,"A123F7829DTAYZ","18:15:31",6,"Social","Seven",6,1,"Switch",1,"Novel89",5,"Novel138",0,1004,"eyes_right",3,1,0,0,7,TRUE,FALSE,6,FALSE,"km"
"67",67,67,"A123F7829DTAYZ","18:15:31",7,"Social","Seven",6,2,"Same",1,"Novel9",1,"Novel9",1,926,"eyes_right_90",5,1,0,0,7,TRUE,FALSE,6,TRUE,"km"
"68",68,68,"A123F7829DTAYZ","18:15:31",8,"Social","Seven",6,3,"Switch",1,"Novel77",2,"Novel99",0,1085,"eyes_left",0,1,0,0,7,TRUE,FALSE,6,FALSE,"km"
"69",69,69,"A123F7829DTAYZ","18:15:31",9,"Social","Seven",6,4,"Same",1,"Novel35",1,"Novel35",1,611,"eyes_right_90",5,1,0,0,7,TRUE,FALSE,6,TRUE,"km"
"70",70,70,"A123F7829DTAYZ","18:15:31",10,"Social","Seven",6,5,"Switch",0,"Novel66",4,"Novel136",2,560,"eyes_down_right",2,1,0,0,7,TRUE,FALSE,6,FALSE,"km"
"71",71,71,"A123F7829DTAYZ","18:15:31",11,"Social","Seven",6,6,"Same",0,"Novel98",3,"Novel98",3,NA,"eyes_down_left",1,1,0,0,7,TRUE,FALSE,6,TRUE,"km"
"72",72,72,"A123F7829DTAYZ","18:15:31",12,"Social","Seven",6,7,"Switch",0,"Novel57",3,"Novel49",4,NA,"eyes_down_left",1,1,0,0,7,TRUE,FALSE,6,FALSE,"km"
"73",73,73,"A123F7829DTAYZ","18:15:31",13,"Social","Seven",6,0,"Same",0,"Novel82",3,"Novel82",5,1242,"eyescenter",-1,0,1,0,7,TRUE,TRUE,6,TRUE,"km"
"74",74,74,"A123F7829DTAYZ","18:15:31",14,"Social","Seven",6,1,"Switch",1,"Novel17",3,"Novel138",0,3813,"eyescenter",-1,0,1,0,7,TRUE,FALSE,6,FALSE,"km"
"75",75,75,"A123F7829DTAYZ","18:15:31",15,"Social","Seven",6,2,"Same",1,"Novel9",1,"Novel9",1,3459,"eyescenter",-1,0,1,0,7,TRUE,FALSE,6,TRUE,"km"
"76",76,76,"A123F7829DTAYZ","18:15:31",16,"Social","Seven",6,3,"Switch",1,"Novel122",5,"Novel99",0,4737,"eyescenter",-1,0,1,0,7,TRUE,FALSE,6,FALSE,"km"
"77",77,77,"A123F7829DTAYZ","18:15:31",17,"Social","Seven",6,4,"Same",1,"Novel106",2,"Novel35",1,3917,"eyescenter",-1,0,1,0,7,TRUE,FALSE,6,FALSE,"km"
"78",78,78,"A123F7829DTAYZ","18:15:31",18,"Social","Seven",6,5,"Switch",0,"Novel15",2,"Novel136",2,2415,"eyescenter",-1,0,1,0,7,TRUE,FALSE,6,FALSE,"km"
"79",79,79,"A123F7829DTAYZ","18:15:31",19,"Social","Seven",6,6,"Same",0,"Novel36",5,"Novel98",3,1932,"eyescenter",-1,0,1,0,7,TRUE,FALSE,6,FALSE,"km"
"80",80,80,"A123F7829DTAYZ","18:15:31",20,"Social","Seven",6,7,"Switch",0,"Novel25",3,"Novel49",4,2262,"eyescenter",-1,0,1,0,7,TRUE,FALSE,6,FALSE,"km"
"11021",11021,11021,"A124NJNCAG5E6E","07:38:07",1,"Social","Three",4,0,"Switch",0,"squirrel",0,"",0,4707,"eyescenter",-1,0,0,1,3,TRUE,FALSE,4,FALSE,"km"
"11022",11022,11022,"A124NJNCAG5E6E","07:38:07",2,"Social","Three",4,0,"Switch",0,"squirrel",0,"",0,2120,"eyescenter",-1,0,0,1,3,TRUE,FALSE,4,FALSE,"km"
"11023",11023,11023,"A124NJNCAG5E6E","07:38:07",3,"Social","Three",4,0,"Switch",0,"tomato",1,"",0,1857,"eyescenter",-1,0,0,1,3,TRUE,FALSE,4,FALSE,"km"
"11024",11024,11024,"A124NJNCAG5E6E","07:38:07",4,"Social","Three",4,0,"Switch",0,"tomato",2,"",0,1313,"eyescenter",-1,0,0,1,3,TRUE,FALSE,4,FALSE,"km"
"11025",11025,11025,"A124NJNCAG5E6E","07:38:07",5,"Social","Three",4,0,"Switch",0,"Novel131",0,"Novel115",3,1782,"eyes_left",0,1,0,0,3,TRUE,FALSE,4,FALSE,"km"
"11026",11026,11026,"A124NJNCAG5E6E","07:38:07",6,"Social","Three",4,1,"Same",1,"Novel46",0,"Novel46",0,1385,"eyes_left",0,1,0,0,3,TRUE,FALSE,4,TRUE,"km"
"11027",11027,11027,"A124NJNCAG5E6E","07:38:07",7,"Social","Three",4,2,"Switch",1,"Novel6",2,"Novel23",3,1055,"eyes_down_right",2,1,0,0,3,TRUE,FALSE,4,FALSE,"km"
"11028",11028,11028,"A124NJNCAG5E6E","07:38:07",8,"Social","Three",4,3,"Same",0,"Novel140",0,"Novel140",0,1479,"eyes_left",0,1,0,0,3,TRUE,FALSE,4,TRUE,"km"
"11029",11029,11029,"A124NJNCAG5E6E","07:38:07",9,"Social","Three",4,0,"Switch",0,"Novel115",0,"Novel115",3,NA,"eyescenter",-1,0,1,0,3,TRUE,TRUE,4,TRUE,"km"
"11030",11030,11030,"A124NJNCAG5E6E","07:38:07",10,"Social","Three",4,1,"Same",1,"Novel46",0,"Novel46",0,1105,"eyescenter",-1,0,1,0,3,TRUE,FALSE,4,TRUE,"km"
"11031",11031,11031,"A124NJNCAG5E6E","07:38:07",11,"Social","Three",4,2,"Switch",1,"Novel23",3,"Novel23",3,5299,"eyescenter",-1,0,1,0,3,TRUE,FALSE,4,TRUE,"km"
"11032",11032,11032,"A124NJNCAG5E6E","07:38:07",12,"Social","Three",4,3,"Same",0,"Novel95",3,"Novel140",0,3099,"eyescenter",-1,0,1,0,3,TRUE,FALSE,4,FALSE,"km"
"11033",11033,11033,"A124NJNCAG5E6E","07:38:07",13,"Social","Three",4,4,"Switch",0,"Novel132",2,"Novel84",0,2372,"eyes_down_right",2,1,0,0,3,TRUE,FALSE,4,FALSE,"km"
"11034",11034,11034,"A124NJNCAG5E6E","07:38:07",14,"Social","Three",4,5,"Same",0,"Novel57",3,"Novel57",3,2925,"eyes_right",3,1,0,0,3,TRUE,FALSE,4,TRUE,"km"
"11035",11035,11035,"A124NJNCAG5E6E","07:38:07",15,"Social","Three",4,6,"Switch",1,"Novel15",3,"Novel10",2,1343,"eyes_right",3,1,0,0,3,TRUE,FALSE,4,FALSE,"km"
"11036",11036,11036,"A124NJNCAG5E6E","07:38:07",16,"Social","Three",4,7,"Same",1,"Novel113",3,"Novel113",3,1793,"eyes_right",3,1,0,0,3,TRUE,FALSE,4,TRUE,"km"
"11037",11037,11037,"A124NJNCAG5E6E","07:38:07",17,"Social","Three",4,4,"Switch",0,"Novel84",1,"Novel84",0,4784,"eyescenter",-1,0,1,0,3,TRUE,FALSE,4,TRUE,"km"
"11038",11038,11038,"A124NJNCAG5E6E","07:38:07",18,"Social","Three",4,5,"Same",0,"Novel57",1,"Novel57",3,1351,"eyescenter",-1,0,1,0,3,TRUE,FALSE,4,TRUE,"km"
"11039",11039,11039,"A124NJNCAG5E6E","07:38:07",19,"Social","Three",4,6,"Switch",1,"Novel41",1,"Novel10",2,8179,"eyescenter",-1,0,1,0,3,TRUE,FALSE,4,FALSE,"km"
"11040",11040,11040,"A124NJNCAG5E6E","07:38:07",20,"Social","Three",4,7,"Same",1,"Novel113",3,"Novel113",3,1745,"eyescenter",-1,0,1,0,3,TRUE,FALSE,4,TRUE,"km"
"15545",15545,201,"A124T5AVHGY5C2","20:02:53",6,"No-Social","0",4,0,"Same",0,"Novel126",1,"Novel126",0,761,NA,NA,NA,1,NA,0,TRUE,TRUE,4,TRUE,"dy"
"15546",15546,202,"A124T5AVHGY5C2","20:02:53",8,"No-Social","0",4,1,"Switch",1,"Novel34",3,"Novel130",1,1918,NA,NA,NA,1,NA,0,TRUE,FALSE,4,FALSE,"dy"
"15547",15547,203,"A124T5AVHGY5C2","20:02:53",10,"No-Social","0",4,2,"Same",1,"Novel58",2,"Novel58",2,701,NA,NA,NA,1,NA,0,TRUE,FALSE,4,TRUE,"dy"
"15548",15548,204,"A124T5AVHGY5C2","20:02:53",12,"No-Social","0",4,3,"Switch",0,"Novel8",3,"Novel96",2,819,NA,NA,NA,1,NA,0,TRUE,FALSE,4,FALSE,"dy"
"15549",15549,205,"A124T5AVHGY5C2","20:02:53",14,"No-Social","0",4,4,"Same",1,"Novel12",1,"Novel12",1,634,NA,NA,NA,1,NA,0,TRUE,FALSE,4,TRUE,"dy"
"15550",15550,206,"A124T5AVHGY5C2","20:02:53",16,"No-Social","0",4,5,"Switch",1,"Novel36",3,"Novel24",1,756,NA,NA,NA,1,NA,0,TRUE,FALSE,4,FALSE,"dy"
"15551",15551,207,"A124T5AVHGY5C2","20:02:53",18,"No-Social","0",4,6,"Same",0,"Novel121",0,"Novel121",2,696,NA,NA,NA,1,NA,0,TRUE,FALSE,4,TRUE,"dy"
"15552",15552,208,"A124T5AVHGY5C2","20:02:53",20,"No-Social","0",4,7,"Switch",0,"Novel38",0,"Novel23",1,616,NA,NA,NA,1,NA,0,TRUE,FALSE,4,FALSE,"dy"
"81",81,81,"A12C1M9UZ1DZ9H","21:55:12",1,"Social","Zero",6,0,"Switch",0,"squirrel",3,"",0,2568,"eyescenter",-1,0,0,1,0,TRUE,FALSE,6,FALSE,"km"
"82",82,82,"A12C1M9UZ1DZ9H","21:55:12",2,"Social","Zero",6,0,"Switch",0,"squirrel",1,"",0,2461,"eyescenter",-1,0,0,1,0,TRUE,FALSE,6,FALSE,"km"
"83",83,83,"A12C1M9UZ1DZ9H","21:55:12",3,"Social","Zero",6,0,"Switch",0,"tomato",4,"",0,3531,"eyescenter",-1,0,0,1,0,TRUE,FALSE,6,FALSE,"km"
"84",84,84,"A12C1M9UZ1DZ9H","21:55:12",4,"Social","Zero",6,0,"Switch",0,"tomato",0,"",0,6032,"eyescenter",-1,0,0,1,0,TRUE,FALSE,6,FALSE,"km"
"85",85,85,"A12C1M9UZ1DZ9H","21:55:12",5,"Social","Zero",6,0,"Switch",0,"Novel140",0,"Novel9",2,8300,"eyes_left_90",4,1,0,0,0,TRUE,FALSE,6,FALSE,"km"
"86",86,86,"A12C1M9UZ1DZ9H","21:55:12",6,"Social","Zero",6,0,"Switch",0,"Novel62",5,"Novel9",2,7278,"eyescenter",-1,0,1,0,0,TRUE,TRUE,6,FALSE,"km"
"87",87,87,"A12C1M9UZ1DZ9H","21:55:12",7,"Social","Zero",6,1,"Same",0,"Novel125",0,"Novel125",0,9421,"eyes_left_90",4,1,0,0,0,TRUE,FALSE,6,TRUE,"km"
"88",88,88,"A12C1M9UZ1DZ9H","21:55:12",8,"Social","Zero",6,1,"Same",0,"Novel125",1,"Novel125",0,1398,"eyescenter",-1,0,1,0,0,TRUE,FALSE,6,TRUE,"km"
"89",89,89,"A12C1M9UZ1DZ9H","21:55:12",9,"Social","Zero",6,2,"Switch",0,"Novel34",3,"Novel1",1,2601,"eyes_down_left",1,1,0,0,0,TRUE,FALSE,6,FALSE,"km"
"90",90,90,"A12C1M9UZ1DZ9H","21:55:12",10,"Social","Zero",6,2,"Switch",0,"Novel124",1,"Novel1",1,9689,"eyescenter",-1,0,1,0,0,TRUE,FALSE,6,FALSE,"km"
"91",91,91,"A12C1M9UZ1DZ9H","21:55:12",11,"Social","Zero",6,3,"Same",0,"Novel30",3,"Novel30",3,2522,"eyes_down_left",1,1,0,0,0,TRUE,FALSE,6,TRUE,"km"
"92",92,92,"A12C1M9UZ1DZ9H","21:55:12",12,"Social","Zero",6,3,"Same",0,"Novel30",2,"Novel30",3,2031,"eyescenter",-1,0,1,0,0,TRUE,FALSE,6,TRUE,"km"
"93",93,93,"A12C1M9UZ1DZ9H","21:55:12",13,"Social","Zero",6,4,"Switch",1,"Novel47",0,"Novel77",2,2247,"eyes_left_90",4,1,0,0,0,TRUE,FALSE,6,FALSE,"km"
"94",94,94,"A12C1M9UZ1DZ9H","21:55:12",14,"Social","Zero",6,4,"Switch",1,"Novel89",1,"Novel77",2,8010,"eyescenter",-1,0,1,0,0,TRUE,FALSE,6,FALSE,"km"
"95",95,95,"A12C1M9UZ1DZ9H","21:55:12",15,"Social","Zero",6,5,"Same",1,"Novel99",1,"Novel99",1,2049,"eyes_right_90",5,1,0,0,0,TRUE,FALSE,6,TRUE,"km"
"96",96,96,"A12C1M9UZ1DZ9H","21:55:12",16,"Social","Zero",6,5,"Same",1,"Novel99",1,"Novel99",1,1048,"eyescenter",-1,0,1,0,0,TRUE,FALSE,6,TRUE,"km"
"97",97,97,"A12C1M9UZ1DZ9H","21:55:12",17,"Social","Zero",6,6,"Switch",1,"Novel32",0,"Novel84",4,1735,"eyes_left_90",4,1,0,0,0,TRUE,FALSE,6,FALSE,"km"
"98",98,98,"A12C1M9UZ1DZ9H","21:55:12",18,"Social","Zero",6,6,"Switch",1,"Novel23",1,"Novel84",4,1870,"eyescenter",-1,0,1,0,0,TRUE,FALSE,6,FALSE,"km"
"99",99,99,"A12C1M9UZ1DZ9H","21:55:12",19,"Social","Zero",6,7,"Same",1,"Novel110",1,"Novel110",1,1568,"eyes_right_90",5,1,0,0,0,TRUE,FALSE,6,TRUE,"km"
"100",100,100,"A12C1M9UZ1DZ9H","21:55:12",20,"Social","Zero",6,7,"Same",1,"Novel110",1,"Novel110",1,700,"eyescenter",-1,0,1,0,0,TRUE,FALSE,6,TRUE,"km"
"7801",7801,78011,"A12J4IRF5Z06BT","02:36:31",1,"Social","One",4,0,"Switch",0,"squirrel",0,"",0,2377,"eyescenter",-1,0,0,1,1,TRUE,FALSE,4,FALSE,"km"
"7802",7802,78021,"A12J4IRF5Z06BT","02:36:31",2,"Social","One",4,0,"Switch",0,"squirrel",0,"",0,1575,"eyescenter",-1,0,0,1,1,TRUE,FALSE,4,FALSE,"km"
"7803",7803,78031,"A12J4IRF5Z06BT","02:36:31",3,"Social","One",4,0,"Switch",0,"tomato",1,"",0,1610,"eyescenter",-1,0,0,1,1,TRUE,FALSE,4,FALSE,"km"
"7804",7804,78041,"A12J4IRF5Z06BT","02:36:31",4,"Social","One",4,0,"Switch",0,"tomato",2,"",0,1458,"eyescenter",-1,0,0,1,1,TRUE,FALSE,4,FALSE,"km"
"7805",7805,78051,"A12J4IRF5Z06BT","02:36:31",5,"Social","One",4,0,"Switch",0,"Novel41",1,"Novel30",2,6008,"eyes_down_left",1,1,0,0,1,TRUE,FALSE,4,FALSE,"km"
"7806",7806,78061,"A12J4IRF5Z06BT","02:36:31",6,"Social","One",4,1,"Same",1,"Novel132",1,"Novel132",1,3901,"eyes_down_right",2,1,0,0,1,TRUE,FALSE,4,TRUE,"km"
"7807",7807,78071,"A12J4IRF5Z06BT","02:36:31",7,"Social","One",4,0,"Switch",0,"Novel30",0,"Novel30",2,4922,"eyescenter",-1,0,1,0,1,TRUE,TRUE,4,TRUE,"km"
"7808",7808,78081,"A12J4IRF5Z06BT","02:36:31",8,"Social","One",4,1,"Same",1,"Novel132",1,"Novel132",1,2380,"eyescenter",-1,0,1,0,1,TRUE,FALSE,4,TRUE,"km"
"7809",7809,78091,"A12J4IRF5Z06BT","02:36:31",9,"Social","One",4,2,"Switch",1,"Novel124",3,"Novel47",1,2542,"eyes_right",3,1,0,0,1,TRUE,FALSE,4,FALSE,"km"
"7810",7810,78101,"A12J4IRF5Z06BT","02:36:31",10,"Social","One",4,3,"Same",0,"Novel65",1,"Novel65",1,3330,"eyes_down_left",1,1,0,0,1,TRUE,FALSE,4,TRUE,"km"
"7811",7811,78111,"A12J4IRF5Z06BT","02:36:31",11,"Social","One",4,2,"Switch",1,"Novel66",3,"Novel47",1,4465,"eyescenter",-1,0,1,0,1,TRUE,FALSE,4,FALSE,"km"
"7812",7812,78121,"A12J4IRF5Z06BT","02:36:31",12,"Social","One",4,3,"Same",0,"Novel65",2,"Novel65",1,1707,"eyescenter",-1,0,1,0,1,TRUE,FALSE,4,TRUE,"km"
"7813",7813,78131,"A12J4IRF5Z06BT","02:36:31",13,"Social","One",4,4,"Switch",1,"Novel86",2,"Novel7",3,3483,"eyes_left",0,1,0,0,1,TRUE,FALSE,4,FALSE,"km"
"7814",7814,78141,"A12J4IRF5Z06BT","02:36:31",14,"Social","One",4,5,"Same",1,"Novel11",2,"Novel11",2,2840,"eyes_down_left",1,1,0,0,1,TRUE,FALSE,4,TRUE,"km"
"7815",7815,78151,"A12J4IRF5Z06BT","02:36:31",15,"Social","One",4,4,"Switch",1,"Novel137",0,"Novel7",3,3598,"eyescenter",-1,0,1,0,1,TRUE,FALSE,4,FALSE,"km"
"7816",7816,78161,"A12J4IRF5Z06BT","02:36:31",16,"Social","One",4,5,"Same",1,"Novel11",2,"Novel11",2,2075,"eyescenter",-1,0,1,0,1,TRUE,FALSE,4,TRUE,"km"
"7817",7817,78171,"A12J4IRF5Z06BT","02:36:31",17,"Social","One",4,6,"Switch",0,"Novel5",3,"Novel85",2,7163,"eyes_down_right",2,1,0,0,1,TRUE,FALSE,4,FALSE,"km"
"7818",7818,78181,"A12J4IRF5Z06BT","02:36:31",18,"Social","One",4,7,"Same",0,"Novel129",0,"Novel129",0,3423,"eyes_down_left",1,1,0,0,1,TRUE,FALSE,4,TRUE,"km"
"7819",7819,78191,"A12J4IRF5Z06BT","02:36:31",19,"Social","One",4,6,"Switch",0,"Novel27",1,"Novel85",2,3866,"eyescenter",-1,0,1,0,1,TRUE,FALSE,4,FALSE,"km"
"7820",7820,78201,"A12J4IRF5Z06BT","02:36:31",20,"Social","One",4,7,"Same",0,"Novel129",2,"Novel129",0,2161,"eyescenter",-1,0,1,0,1,TRUE,FALSE,4,TRUE,"km"
"7821",7821,78211,"A12JOUOLFBPCXW","02:57:37",1,"No-Social","Seven",4,0,"Same",0,"squirrel",0,"",0,1504,"eyescenter",-1,0,0,1,7,TRUE,FALSE,4,FALSE,"km"
"7822",7822,78221,"A12JOUOLFBPCXW","02:57:37",2,"No-Social","Seven",4,0,"Same",0,"squirrel",0,"",0,1517,"eyescenter",-1,0,0,1,7,TRUE,FALSE,4,FALSE,"km"
"7823",7823,78231,"A12JOUOLFBPCXW","02:57:37",3,"No-Social","Seven",4,0,"Same",0,"tomato",1,"",0,1737,"eyescenter",-1,0,0,1,7,TRUE,FALSE,4,FALSE,"km"
"7824",7824,78241,"A12JOUOLFBPCXW","02:57:37",4,"No-Social","Seven",4,0,"Same",0,"tomato",2,"",0,1500,"eyescenter",-1,0,0,1,7,TRUE,FALSE,4,FALSE,"km"
"7825",7825,78251,"A12JOUOLFBPCXW","02:57:37",5,"No-Social","Seven",4,0,"Same",0,"Novel112",0,"Novel112",0,NA,"eyescenter",-1,1,0,0,7,TRUE,FALSE,4,TRUE,"km"
"7826",7826,78261,"A12JOUOLFBPCXW","02:57:37",6,"No-Social","Seven",4,1,"Switch",1,"Novel64",2,"Novel130",3,7167,"eyescenter",-1,1,0,0,7,TRUE,FALSE,4,FALSE,"km"
"7827",7827,78271,"A12JOUOLFBPCXW","02:57:37",7,"No-Social","Seven",4,2,"Same",0,"Novel52",0,"Novel52",0,4871,"eyescenter",-1,1,0,0,7,TRUE,FALSE,4,TRUE,"km"
"7828",7828,78281,"A12JOUOLFBPCXW","02:57:37",8,"No-Social","Seven",4,3,"Switch",0,"Novel129",3,"Novel140",1,2650,"eyescenter",-1,1,0,0,7,TRUE,FALSE,4,FALSE,"km"
"7829",7829,78291,"A12JOUOLFBPCXW","02:57:37",9,"No-Social","Seven",4,4,"Same",1,"Novel36",0,"Novel36",0,3763,"eyescenter",-1,1,0,0,7,TRUE,FALSE,4,TRUE,"km"
"7830",7830,78301,"A12JOUOLFBPCXW","02:57:37",10,"No-Social","Seven",4,5,"Switch",0,"Novel72",3,"Novel139",1,4677,"eyescenter",-1,1,0,0,7,TRUE,FALSE,4,FALSE,"km"
"7831",7831,78311,"A12JOUOLFBPCXW","02:57:37",11,"No-Social","Seven",4,6,"Same",1,"Novel68",3,"Novel68",3,2991,"eyescenter",-1,1,0,0,7,TRUE,FALSE,4,TRUE,"km"
"7832",7832,78321,"A12JOUOLFBPCXW","02:57:37",12,"No-Social","Seven",4,7,"Switch",1,"Novel83",1,"Novel133",3,5861,"eyescenter",-1,1,0,0,7,TRUE,FALSE,4,FALSE,"km"
"7833",7833,78331,"A12JOUOLFBPCXW","02:57:37",13,"No-Social","Seven",4,0,"Same",0,"Novel28",3,"Novel112",0,2353,"eyescenter",-1,0,1,0,7,TRUE,TRUE,4,FALSE,"km"
"7834",7834,78341,"A12JOUOLFBPCXW","02:57:37",14,"No-Social","Seven",4,1,"Switch",1,"Novel85",0,"Novel130",3,2397,"eyescenter",-1,0,1,0,7,TRUE,FALSE,4,FALSE,"km"
"7835",7835,78351,"A12JOUOLFBPCXW","02:57:37",15,"No-Social","Seven",4,2,"Same",0,"Novel124",2,"Novel52",0,3263,"eyescenter",-1,0,1,0,7,TRUE,FALSE,4,FALSE,"km"
"7836",7836,78361,"A12JOUOLFBPCXW","02:57:37",16,"No-Social","Seven",4,3,"Switch",0,"Novel118",1,"Novel140",1,2821,"eyescenter",-1,0,1,0,7,TRUE,FALSE,4,FALSE,"km"
"7837",7837,78371,"A12JOUOLFBPCXW","02:57:37",17,"No-Social","Seven",4,4,"Same",1,"Novel36",0,"Novel36",0,3143,"eyescenter",-1,0,1,0,7,TRUE,FALSE,4,TRUE,"km"
"7838",7838,78381,"A12JOUOLFBPCXW","02:57:37",18,"No-Social","Seven",4,5,"Switch",0,"Novel19",2,"Novel139",1,4728,"eyescenter",-1,0,1,0,7,TRUE,FALSE,4,FALSE,"km"
"7839",7839,78391,"A12JOUOLFBPCXW","02:57:37",19,"No-Social","Seven",4,6,"Same",1,"Novel68",3,"Novel68",3,2174,"eyescenter",-1,0,1,0,7,TRUE,FALSE,4,TRUE,"km"
"7840",7840,78401,"A12JOUOLFBPCXW","02:57:37",20,"No-Social","Seven",4,7,"Switch",1,"Novel133",3,"Novel133",3,3552,"eyescenter",-1,0,1,0,7,TRUE,FALSE,4,TRUE,"km"
"15553",15553,225,"A12MPTF7WBVAFZ","16:14:37",13,"No-Social","7",4,0,"Switch",1,"Novel28",0,"Novel28",0,3899,NA,NA,NA,1,NA,7,TRUE,TRUE,4,TRUE,"dy"
"15554",15554,226,"A12MPTF7WBVAFZ","16:14:37",14,"No-Social","7",4,1,"Same",0,"Novel82",0,"Novel43",0,2398,NA,NA,NA,1,NA,7,TRUE,FALSE,4,FALSE,"dy"
"15555",15555,227,"A12MPTF7WBVAFZ","16:14:37",15,"No-Social","7",4,2,"Switch",0,"Novel123",1,"Novel105",1,2094,NA,NA,NA,1,NA,7,TRUE,FALSE,4,FALSE,"dy"
"15556",15556,228,"A12MPTF7WBVAFZ","16:14:37",16,"No-Social","7",4,3,"Same",1,"Novel80",1,"Novel80",1,1062,NA,NA,NA,1,NA,7,TRUE,FALSE,4,TRUE,"dy"
"15557",15557,229,"A12MPTF7WBVAFZ","16:14:37",17,"No-Social","7",4,4,"Switch",1,"Novel108",2,"Novel108",2,2272,NA,NA,NA,1,NA,7,TRUE,FALSE,4,TRUE,"dy"
"15558",15558,230,"A12MPTF7WBVAFZ","16:14:37",18,"No-Social","7",4,5,"Same",1,"Novel102",1,"Novel102",1,1223,NA,NA,NA,1,NA,7,TRUE,FALSE,4,TRUE,"dy"
"15559",15559,231,"A12MPTF7WBVAFZ","16:14:37",19,"No-Social","7",4,6,"Switch",0,"Novel16",0,"Novel16",3,1564,NA,NA,NA,1,NA,7,TRUE,FALSE,4,TRUE,"dy"
"15560",15560,232,"A12MPTF7WBVAFZ","16:14:37",20,"No-Social","7",4,7,"Same",0,"Novel32",1,"Novel32",3,1213,NA,NA,NA,1,NA,7,TRUE,FALSE,4,TRUE,"dy"
"101",101,101,"A12MSYRHI3XWDT","18:59:12",1,"Social","Three",6,0,"Same",1,"squirrel",3,"",0,2253,"eyescenter",-1,0,0,1,3,TRUE,FALSE,6,FALSE,"km"
"102",102,102,"A12MSYRHI3XWDT","18:59:12",2,"Social","Three",6,0,"Same",1,"squirrel",1,"",0,1067,"eyescenter",-1,0,0,1,3,TRUE,FALSE,6,FALSE,"km"
"103",103,103,"A12MSYRHI3XWDT","18:59:12",3,"Social","Three",6,0,"Same",1,"tomato",4,"",0,1631,"eyescenter",-1,0,0,1,3,TRUE,FALSE,6,FALSE,"km"
"104",104,104,"A12MSYRHI3XWDT","18:59:12",4,"Social","Three",6,0,"Same",1,"tomato",0,"",0,1448,"eyescenter",-1,0,0,1,3,TRUE,FALSE,6,FALSE,"km"
"105",105,105,"A12MSYRHI3XWDT","18:59:12",5,"Social","Three",6,0,"Same",1,"Novel7",3,"Novel7",3,4490,"eyes_down_left",1,1,0,0,3,TRUE,FALSE,6,TRUE,"km"
"106",106,106,"A12MSYRHI3XWDT","18:59:12",6,"Social","Three",6,1,"Switch",1,"Novel34",3,"Novel133",0,2359,"eyes_down_left",1,1,0,0,3,TRUE,FALSE,6,FALSE,"km"
"107",107,107,"A12MSYRHI3XWDT","18:59:12",7,"Social","Three",6,2,"Same",1,"Novel36",3,"Novel36",3,4212,"eyes_down_left",1,1,0,0,3,TRUE,FALSE,6,TRUE,"km"
"108",108,108,"A12MSYRHI3XWDT","18:59:12",8,"Social","Three",6,3,"Switch",0,"Novel126",2,"Novel42",5,1574,"eyes_left",0,1,0,0,3,TRUE,FALSE,6,FALSE,"km"
"109",109,109,"A12MSYRHI3XWDT","18:59:12",9,"Social","Three",6,0,"Same",1,"Novel7",3,"Novel7",3,1816,"eyescenter",-1,0,1,0,3,TRUE,TRUE,6,TRUE,"km"
"110",110,110,"A12MSYRHI3XWDT","18:59:12",10,"Social","Three",6,1,"Switch",1,"Novel111",4,"Novel133",0,4387,"eyescenter",-1,0,1,0,3,TRUE,FALSE,6,FALSE,"km"
"111",111,111,"A12MSYRHI3XWDT","18:59:12",11,"Social","Three",6,2,"Same",1,"Novel106",2,"Novel36",3,10261,"eyescenter",-1,0,1,0,3,TRUE,FALSE,6,FALSE,"km"
"112",112,112,"A12MSYRHI3XWDT","18:59:12",12,"Social","Three",6,3,"Switch",0,"Novel24",4,"Novel42",5,3285,"eyescenter",-1,0,1,0,3,TRUE,FALSE,6,FALSE,"km"
"113",113,113,"A12MSYRHI3XWDT","18:59:12",13,"Social","Three",6,4,"Same",0,"Novel70",4,"Novel70",4,1160,"eyes_down_right",2,1,0,0,3,TRUE,FALSE,6,TRUE,"km"
"114",114,114,"A12MSYRHI3XWDT","18:59:12",14,"Social","Three",6,5,"Switch",0,"Novel84",0,"Novel123",5,NA,"eyes_left_90",4,1,0,0,3,TRUE,FALSE,6,FALSE,"km"
"115",115,115,"A12MSYRHI3XWDT","18:59:12",15,"Social","Three",6,6,"Same",0,"Novel3",2,"Novel3",2,1161,"eyes_left",0,1,0,0,3,TRUE,FALSE,6,TRUE,"km"
"116",116,116,"A12MSYRHI3XWDT","18:59:12",16,"Social","Three",6,7,"Switch",1,"Novel40",1,"Novel121",2,1495,"eyes_right_90",5,1,0,0,3,TRUE,FALSE,6,FALSE,"km"
"117",117,117,"A12MSYRHI3XWDT","18:59:12",17,"Social","Three",6,4,"Same",0,"Novel15",4,"Novel70",4,3674,"eyescenter",-1,0,1,0,3,TRUE,FALSE,6,FALSE,"km"
"118",118,118,"A12MSYRHI3XWDT","18:59:12",18,"Social","Three",6,5,"Switch",0,"Novel25",3,"Novel123",5,2633,"eyescenter",-1,0,1,0,3,TRUE,FALSE,6,FALSE,"km"
"119",119,119,"A12MSYRHI3XWDT","18:59:12",19,"Social","Three",6,6,"Same",0,"Novel3",0,"Novel3",2,4922,"eyescenter",-1,0,1,0,3,TRUE,FALSE,6,TRUE,"km"
"120",120,120,"A12MSYRHI3XWDT","18:59:12",20,"Social","Three",6,7,"Switch",1,"Novel63",5,"Novel121",2,4820,"eyescenter",-1,0,1,0,3,TRUE,FALSE,6,FALSE,"km"
"15561",15561,233,"A12QTJG76CSU4S","12:09:10",6,"No-Social","0",4,0,"Switch",1,"Novel27",3,"Novel79",1,2745,NA,NA,NA,1,NA,0,TRUE,TRUE,4,FALSE,"dy"
"15562",15562,234,"A12QTJG76CSU4S","12:09:10",8,"No-Social","0",4,1,"Same",0,"Novel44",0,"Novel44",1,1759,NA,NA,NA,1,NA,0,TRUE,FALSE,4,TRUE,"dy"
"15563",15563,235,"A12QTJG76CSU4S","12:09:10",10,"No-Social","0",4,2,"Switch",1,"Novel83",1,"Novel50",2,1826,NA,NA,NA,1,NA,0,TRUE,FALSE,4,FALSE,"dy"
"15564",15564,236,"A12QTJG76CSU4S","12:09:10",12,"No-Social","0",4,3,"Same",0,"Novel140",3,"Novel140",1,1192,NA,NA,NA,1,NA,0,TRUE,FALSE,4,TRUE,"dy"
"15565",15565,237,"A12QTJG76CSU4S","12:09:10",14,"No-Social","0",4,4,"Switch",0,"Novel59",1,"Novel59",2,2139,NA,NA,NA,1,NA,0,TRUE,FALSE,4,TRUE,"dy"
"15566",15566,238,"A12QTJG76CSU4S","12:09:10",16,"No-Social","0",4,5,"Same",1,"Novel33",0,"Novel33",0,1513,NA,NA,NA,1,NA,0,TRUE,FALSE,4,TRUE,"dy"
"15567",15567,239,"A12QTJG76CSU4S","12:09:10",18,"No-Social","0",4,6,"Switch",0,"Novel124",2,"Novel124",0,1203,NA,NA,NA,1,NA,0,TRUE,FALSE,4,TRUE,"dy"
"15568",15568,240,"A12QTJG76CSU4S","12:09:10",20,"No-Social","0",4,7,"Same",1,"Novel84",3,"Novel84",3,775,NA,NA,NA,1,NA,0,TRUE,FALSE,4,TRUE,"dy"
"11041",11041,11041,"A12UEX0NP4K1S0","21:21:31",1,"Social","Zero",4,0,"Switch",0,"squirrel",0,"",0,2706,"eyescenter",-1,0,0,1,0,TRUE,FALSE,4,FALSE,"km"
"11042",11042,11042,"A12UEX0NP4K1S0","21:21:31",2,"Social","Zero",4,0,"Switch",0,"squirrel",0,"",0,1473,"eyescenter",-1,0,0,1,0,TRUE,FALSE,4,FALSE,"km"
"11043",11043,11043,"A12UEX0NP4K1S0","21:21:31",3,"Social","Zero",4,0,"Switch",0,"tomato",1,"",0,1280,"eyescenter",-1,0,0,1,0,TRUE,FALSE,4,FALSE,"km"
"11044",11044,11044,"A12UEX0NP4K1S0","21:21:31",4,"Social","Zero",4,0,"Switch",0,"tomato",2,"",0,1286,"eyescenter",-1,0,0,1,0,TRUE,FALSE,4,FALSE,"km"
"11045",11045,11045,"A12UEX0NP4K1S0","21:21:31",5,"Social","Zero",4,0,"Switch",0,"Novel7",2,"Novel112",3,5412,"eyes_down_right",2,1,0,0,0,TRUE,FALSE,4,FALSE,"km"
"11046",11046,11046,"A12UEX0NP4K1S0","21:21:31",6,"Social","Zero",4,0,"Switch",0,"Novel112",2,"Novel112",3,1956,"eyescenter",-1,0,1,0,0,TRUE,TRUE,4,TRUE,"km"
"11047",11047,11047,"A12UEX0NP4K1S0","21:21:31",7,"Social","Zero",4,1,"Same",1,"Novel92",1,"Novel92",1,3282,"eyes_right",3,1,0,0,0,TRUE,FALSE,4,TRUE,"km"
"11048",11048,11048,"A12UEX0NP4K1S0","21:21:31",8,"Social","Zero",4,1,"Same",1,"Novel92",1,"Novel92",1,2656,"eyescenter",-1,0,1,0,0,TRUE,FALSE,4,TRUE,"km"
"11049",11049,11049,"A12UEX0NP4K1S0","21:21:31",9,"Social","Zero",4,2,"Switch",0,"Novel30",1,"Novel62",0,1397,"eyes_down_left",1,1,0,0,0,TRUE,FALSE,4,FALSE,"km"
"11050",11050,11050,"A12UEX0NP4K1S0","21:21:31",10,"Social","Zero",4,2,"Switch",0,"Novel102",1,"Novel62",0,2149,"eyescenter",-1,0,1,0,0,TRUE,FALSE,4,FALSE,"km"
"11051",11051,11051,"A12UEX0NP4K1S0","21:21:31",11,"Social","Zero",4,3,"Same",0,"Novel111",2,"Novel111",2,1360,"eyes_down_right",2,1,0,0,0,TRUE,FALSE,4,TRUE,"km"
"11052",11052,11052,"A12UEX0NP4K1S0","21:21:31",12,"Social","Zero",4,3,"Same",0,"Novel111",0,"Novel111",2,1042,"eyescenter",-1,0,1,0,0,TRUE,FALSE,4,TRUE,"km"
"11053",11053,11053,"A12UEX0NP4K1S0","21:21:31",13,"Social","Zero",4,4,"Switch",1,"Novel126",0,"Novel110",3,1283,"eyes_left",0,1,0,0,0,TRUE,FALSE,4,FALSE,"km"
"11054",11054,11054,"A12UEX0NP4K1S0","21:21:31",14,"Social","Zero",4,4,"Switch",1,"Novel139",2,"Novel110",3,1389,"eyescenter",-1,0,1,0,0,TRUE,FALSE,4,FALSE,"km"
"11055",11055,11055,"A12UEX0NP4K1S0","21:21:31",15,"Social","Zero",4,5,"Same",1,"Novel54",0,"Novel54",0,3050,"eyes_left",0,1,0,0,0,TRUE,FALSE,4,TRUE,"km"
"11056",11056,11056,"A12UEX0NP4K1S0","21:21:31",16,"Social","Zero",4,5,"Same",1,"Novel54",0,"Novel54",0,NA,"eyescenter",-1,0,1,0,0,TRUE,FALSE,4,TRUE,"km"
"11057",11057,11057,"A12UEX0NP4K1S0","21:21:31",17,"Social","Zero",4,6,"Switch",1,"Novel123",1,"Novel79",2,1023,"eyes_down_left",1,1,0,0,0,TRUE,FALSE,4,FALSE,"km"
"11058",11058,11058,"A12UEX0NP4K1S0","21:21:31",18,"Social","Zero",4,6,"Switch",1,"Novel79",2,"Novel79",2,704,"eyescenter",-1,0,1,0,0,TRUE,FALSE,4,TRUE,"km"
"11059",11059,11059,"A12UEX0NP4K1S0","21:21:31",19,"Social","Zero",4,7,"Same",0,"Novel39",1,"Novel39",1,835,"eyes_down_left",1,1,0,0,0,TRUE,FALSE,4,TRUE,"km"
"11060",11060,11060,"A12UEX0NP4K1S0","21:21:31",20,"Social","Zero",4,7,"Same",0,"Novel39",3,"Novel39",1,NA,"eyescenter",-1,0,1,0,0,TRUE,FALSE,4,TRUE,"km"
"121",121,121,"A12ZPHBEIHN8U7","09:36:11",1,"No-Social","Zero",6,0,"Same",1,"squirrel",3,"",0,1346,"eyescenter",-1,0,0,1,0,TRUE,FALSE,6,FALSE,"km"
"122",122,122,"A12ZPHBEIHN8U7","09:36:11",2,"No-Social","Zero",6,0,"Same",1,"squirrel",1,"",0,1123,"eyescenter",-1,0,0,1,0,TRUE,FALSE,6,FALSE,"km"
"123",123,123,"A12ZPHBEIHN8U7","09:36:11",3,"No-Social","Zero",6,0,"Same",1,"tomato",4,"",0,961,"eyescenter",-1,0,0,1,0,TRUE,FALSE,6,FALSE,"km"
"124",124,124,"A12ZPHBEIHN8U7","09:36:11",4,"No-Social","Zero",6,0,"Same",1,"tomato",0,"",0,969,"eyescenter",-1,0,0,1,0,TRUE,FALSE,6,FALSE,"km"
"125",125,125,"A12ZPHBEIHN8U7","09:36:11",5,"No-Social","Zero",6,0,"Same",1,"Novel114",2,"Novel114",2,3852,"eyescenter",-1,1,0,0,0,TRUE,FALSE,6,TRUE,"km"
"126",126,126,"A12ZPHBEIHN8U7","09:36:11",6,"No-Social","Zero",6,0,"Same",1,"Novel114",2,"Novel114",2,2186,"eyescenter",-1,0,1,0,0,TRUE,TRUE,6,TRUE,"km"
"127",127,127,"A12ZPHBEIHN8U7","09:36:11",7,"No-Social","Zero",6,1,"Switch",0,"Novel87",3,"Novel126",0,5137,"eyescenter",-1,1,0,0,0,TRUE,FALSE,6,FALSE,"km"
"128",128,128,"A12ZPHBEIHN8U7","09:36:11",8,"No-Social","Zero",6,1,"Switch",0,"Novel28",0,"Novel126",0,5514,"eyescenter",-1,0,1,0,0,TRUE,FALSE,6,FALSE,"km"
"129",129,129,"A12ZPHBEIHN8U7","09:36:11",9,"No-Social","Zero",6,2,"Same",0,"Novel89",3,"Novel89",3,2988,"eyescenter",-1,1,0,0,0,TRUE,FALSE,6,TRUE,"km"
"130",130,130,"A12ZPHBEIHN8U7","09:36:11",10,"No-Social","Zero",6,2,"Same",0,"Novel89",5,"Novel89",3,1572,"eyescenter",-1,0,1,0,0,TRUE,FALSE,6,TRUE,"km"
"131",131,131,"A12ZPHBEIHN8U7","09:36:11",11,"No-Social","Zero",6,3,"Switch",1,"Novel92",3,"Novel111",0,3371,"eyescenter",-1,1,0,0,0,TRUE,FALSE,6,FALSE,"km"
"132",132,132,"A12ZPHBEIHN8U7","09:36:11",12,"No-Social","Zero",6,3,"Switch",1,"Novel31",4,"Novel111",0,5085,"eyescenter",-1,0,1,0,0,TRUE,FALSE,6,FALSE,"km"
"133",133,133,"A12ZPHBEIHN8U7","09:36:11",13,"No-Social","Zero",6,4,"Same",1,"Novel30",5,"Novel30",5,3001,"eyescenter",-1,1,0,0,0,TRUE,FALSE,6,TRUE,"km"
"134",134,134,"A12ZPHBEIHN8U7","09:36:11",14,"No-Social","Zero",6,4,"Same",1,"Novel30",5,"Novel30",5,1459,"eyescenter",-1,0,1,0,0,TRUE,FALSE,6,TRUE,"km"
"135",135,135,"A12ZPHBEIHN8U7","09:36:11",15,"No-Social","Zero",6,5,"Switch",0,"Novel134",3,"Novel40",2,4822,"eyescenter",-1,1,0,0,0,TRUE,FALSE,6,FALSE,"km"
"136",136,136,"A12ZPHBEIHN8U7","09:36:11",16,"No-Social","Zero",6,5,"Switch",0,"Novel73",5,"Novel40",2,4179,"eyescenter",-1,0,1,0,0,TRUE,FALSE,6,FALSE,"km"
"137",137,137,"A12ZPHBEIHN8U7","09:36:11",17,"No-Social","Zero",6,6,"Same",0,"Novel27",1,"Novel27",1,1817,"eyescenter",-1,1,0,0,0,TRUE,FALSE,6,TRUE,"km"
"138",138,138,"A12ZPHBEIHN8U7","09:36:11",18,"No-Social","Zero",6,6,"Same",0,"Novel27",0,"Novel27",1,970,"eyescenter",-1,0,1,0,0,TRUE,FALSE,6,TRUE,"km"
"139",139,139,"A12ZPHBEIHN8U7","09:36:11",19,"No-Social","Zero",6,7,"Switch",1,"Novel132",2,"Novel82",0,2835,"eyescenter",-1,1,0,0,0,TRUE,FALSE,6,FALSE,"km"
"140",140,140,"A12ZPHBEIHN8U7","09:36:11",20,"No-Social","Zero",6,7,"Switch",1,"Novel82",0,"Novel82",0,2349,"eyescenter",-1,0,1,0,0,TRUE,FALSE,6,TRUE,"km"
"7841",7841,78411,"A130X6CF795CQ5","13:46:54",1,"No-Social","Seven",4,0,"Switch",0,"squirrel",0,"",0,2245,"eyescenter",-1,0,0,1,7,TRUE,FALSE,4,FALSE,"km"
"7842",7842,78421,"A130X6CF795CQ5","13:46:54",2,"No-Social","Seven",4,0,"Switch",0,"squirrel",0,"",0,994,"eyescenter",-1,0,0,1,7,TRUE,FALSE,4,FALSE,"km"
"7843",7843,78431,"A130X6CF795CQ5","13:46:54",3,"No-Social","Seven",4,0,"Switch",0,"tomato",1,"",0,1412,"eyescenter",-1,0,0,1,7,TRUE,FALSE,4,FALSE,"km"
"7844",7844,78441,"A130X6CF795CQ5","13:46:54",4,"No-Social","Seven",4,0,"Switch",0,"tomato",2,"",0,1276,"eyescenter",-1,0,0,1,7,TRUE,FALSE,4,FALSE,"km"
"7845",7845,78451,"A130X6CF795CQ5","13:46:54",5,"No-Social","Seven",4,0,"Switch",0,"Novel15",3,"Novel37",1,4094,"eyescenter",-1,1,0,0,7,TRUE,FALSE,4,FALSE,"km"
"7846",7846,78461,"A130X6CF795CQ5","13:46:54",6,"No-Social","Seven",4,1,"Same",1,"Novel128",2,"Novel128",2,6694,"eyescenter",-1,1,0,0,7,TRUE,FALSE,4,TRUE,"km"
"7847",7847,78471,"A130X6CF795CQ5","13:46:54",7,"No-Social","Seven",4,2,"Switch",0,"Novel12",0,"Novel86",2,4100,"eyescenter",-1,1,0,0,7,TRUE,FALSE,4,FALSE,"km"
"7848",7848,78481,"A130X6CF795CQ5","13:46:54",8,"No-Social","Seven",4,3,"Same",0,"Novel44",3,"Novel44",3,1693,"eyescenter",-1,1,0,0,7,TRUE,FALSE,4,TRUE,"km"
"7849",7849,78491,"A130X6CF795CQ5","13:46:54",9,"No-Social","Seven",4,4,"Switch",1,"Novel78",3,"Novel127",2,1653,"eyescenter",-1,1,0,0,7,TRUE,FALSE,4,FALSE,"km"
"7850",7850,78501,"A130X6CF795CQ5","13:46:54",10,"No-Social","Seven",4,5,"Same",0,"Novel81",3,"Novel81",3,1677,"eyescenter",-1,1,0,0,7,TRUE,FALSE,4,TRUE,"km"
"7851",7851,78511,"A130X6CF795CQ5","13:46:54",11,"No-Social","Seven",4,6,"Switch",1,"Novel131",1,"Novel80",2,1466,"eyescenter",-1,1,0,0,7,TRUE,FALSE,4,FALSE,"km"
"7852",7852,78521,"A130X6CF795CQ5","13:46:54",12,"No-Social","Seven",4,7,"Same",1,"Novel60",2,"Novel60",2,1972,"eyescenter",-1,1,0,0,7,TRUE,FALSE,4,TRUE,"km"
"7853",7853,78531,"A130X6CF795CQ5","13:46:54",13,"No-Social","Seven",4,0,"Switch",0,"Novel37",0,"Novel37",1,1797,"eyescenter",-1,0,1,0,7,TRUE,TRUE,4,TRUE,"km"
"7854",7854,78541,"A130X6CF795CQ5","13:46:54",14,"No-Social","Seven",4,1,"Same",1,"Novel79",1,"Novel128",2,2883,"eyescenter",-1,0,1,0,7,TRUE,FALSE,4,FALSE,"km"
"7855",7855,78551,"A130X6CF795CQ5","13:46:54",15,"No-Social","Seven",4,2,"Switch",0,"Novel23",2,"Novel86",2,2724,"eyescenter",-1,0,1,0,7,TRUE,FALSE,4,FALSE,"km"
"7856",7856,78561,"A130X6CF795CQ5","13:46:54",16,"No-Social","Seven",4,3,"Same",0,"Novel44",2,"Novel44",3,2157,"eyescenter",-1,0,1,0,7,TRUE,FALSE,4,TRUE,"km"
"7857",7857,78571,"A130X6CF795CQ5","13:46:54",17,"No-Social","Seven",4,4,"Switch",1,"Novel127",2,"Novel127",2,1652,"eyescenter",-1,0,1,0,7,TRUE,FALSE,4,TRUE,"km"
"7858",7858,78581,"A130X6CF795CQ5","13:46:54",18,"No-Social","Seven",4,5,"Same",0,"Novel81",2,"Novel81",3,1507,"eyescenter",-1,0,1,0,7,TRUE,FALSE,4,TRUE,"km"
"7859",7859,78591,"A130X6CF795CQ5","13:46:54",19,"No-Social","Seven",4,6,"Switch",1,"Novel27",1,"Novel80",2,2796,"eyescenter",-1,0,1,0,7,TRUE,FALSE,4,FALSE,"km"
"7860",7860,78601,"A130X6CF795CQ5","13:46:54",20,"No-Social","Seven",4,7,"Same",1,"Novel60",2,"Novel60",2,941,"eyescenter",-1,0,1,0,7,TRUE,FALSE,4,TRUE,"km"
"15569",15569,257,"A132OGUCBF0KDL","23:14:41",13,"No-Social","7",4,0,"Switch",1,"Novel111",1,"Novel111",1,3308,NA,NA,NA,1,NA,7,TRUE,TRUE,4,TRUE,"dy"
"15570",15570,258,"A132OGUCBF0KDL","23:14:41",14,"No-Social","7",4,1,"Same",0,"Novel28",0,"Novel28",3,2136,NA,NA,NA,1,NA,7,TRUE,FALSE,4,TRUE,"dy"
"15571",15571,259,"A132OGUCBF0KDL","23:14:41",15,"No-Social","7",4,2,"Switch",0,"Novel50",3,"Novel50",2,1805,NA,NA,NA,1,NA,7,TRUE,FALSE,4,TRUE,"dy"
"15572",15572,260,"A132OGUCBF0KDL","23:14:41",16,"No-Social","7",4,3,"Same",1,"Novel18",1,"Novel18",1,3343,NA,NA,NA,1,NA,7,TRUE,FALSE,4,TRUE,"dy"
"15573",15573,261,"A132OGUCBF0KDL","23:14:41",17,"No-Social","7",4,4,"Switch",0,"Novel48",1,"Novel48",0,1986,NA,NA,NA,1,NA,7,TRUE,FALSE,4,TRUE,"dy"
"15574",15574,262,"A132OGUCBF0KDL","23:14:41",18,"No-Social","7",4,5,"Same",1,"Novel62",2,"Novel62",2,2275,NA,NA,NA,1,NA,7,TRUE,FALSE,4,TRUE,"dy"
"15575",15575,263,"A132OGUCBF0KDL","23:14:41",19,"No-Social","7",4,6,"Switch",1,"Novel37",0,"Novel9",1,5275,NA,NA,NA,1,NA,7,TRUE,FALSE,4,FALSE,"dy"
"15576",15576,264,"A132OGUCBF0KDL","23:14:41",20,"No-Social","7",4,7,"Same",0,"Novel70",3,"Novel70",1,2684,NA,NA,NA,1,NA,7,TRUE,FALSE,4,TRUE,"dy"
"11061",11061,11061,"A138VDJMRYB6M2","19:41:05",1,"Social","Three",4,0,"Same",1,"squirrel",0,"",0,3343,"eyescenter",-1,0,0,1,3,TRUE,FALSE,4,FALSE,"km"
"11062",11062,11062,"A138VDJMRYB6M2","19:41:05",2,"Social","Three",4,0,"Same",1,"squirrel",0,"",0,2502,"eyescenter",-1,0,0,1,3,TRUE,FALSE,4,FALSE,"km"
"11063",11063,11063,"A138VDJMRYB6M2","19:41:05",3,"Social","Three",4,0,"Same",1,"tomato",1,"",0,1954,"eyescenter",-1,0,0,1,3,TRUE,FALSE,4,FALSE,"km"
"11064",11064,11064,"A138VDJMRYB6M2","19:41:05",4,"Social","Three",4,0,"Same",1,"tomato",2,"",0,2133,"eyescenter",-1,0,0,1,3,TRUE,FALSE,4,FALSE,"km"
"11065",11065,11065,"A138VDJMRYB6M2","19:41:05",5,"Social","Three",4,0,"Same",1,"Novel35",2,"Novel35",2,4670,"eyes_down_left",1,1,0,0,3,TRUE,FALSE,4,TRUE,"km"
"11066",11066,11066,"A138VDJMRYB6M2","19:41:05",6,"Social","Three",4,1,"Switch",0,"Novel95",3,"Novel102",2,6261,"eyes_down_left",1,1,0,0,3,TRUE,FALSE,4,FALSE,"km"
"11067",11067,11067,"A138VDJMRYB6M2","19:41:05",7,"Social","Three",4,2,"Same",0,"Novel94",3,"Novel94",3,1654,"eyes_down_right",2,1,0,0,3,TRUE,FALSE,4,TRUE,"km"
"11068",11068,11068,"A138VDJMRYB6M2","19:41:05",8,"Social","Three",4,3,"Switch",0,"Novel20",3,"Novel11",2,6051,"eyes_left",0,1,0,0,3,TRUE,FALSE,4,FALSE,"km"
"11069",11069,11069,"A138VDJMRYB6M2","19:41:05",9,"Social","Three",4,0,"Same",1,"Novel35",2,"Novel35",2,2614,"eyescenter",-1,0,1,0,3,TRUE,TRUE,4,TRUE,"km"
"11070",11070,11070,"A138VDJMRYB6M2","19:41:05",10,"Social","Three",4,1,"Switch",0,"Novel89",1,"Novel102",2,6276,"eyescenter",-1,0,1,0,3,TRUE,FALSE,4,FALSE,"km"
"11071",11071,11071,"A138VDJMRYB6M2","19:41:05",11,"Social","Three",4,2,"Same",0,"Novel94",1,"Novel94",3,1084,"eyescenter",-1,0,1,0,3,TRUE,FALSE,4,TRUE,"km"
"11072",11072,11072,"A138VDJMRYB6M2","19:41:05",12,"Social","Three",4,3,"Switch",0,"Novel11",0,"Novel11",2,5090,"eyescenter",-1,0,1,0,3,TRUE,FALSE,4,TRUE,"km"
"11073",11073,11073,"A138VDJMRYB6M2","19:41:05",13,"Social","Three",4,4,"Same",0,"Novel65",2,"Novel65",2,6123,"eyes_left",0,1,0,0,3,TRUE,FALSE,4,TRUE,"km"
"11074",11074,11074,"A138VDJMRYB6M2","19:41:05",14,"Social","Three",4,5,"Switch",1,"Novel131",2,"Novel14",1,2617,"eyes_down_right",2,1,0,0,3,TRUE,FALSE,4,FALSE,"km"
"11075",11075,11075,"A138VDJMRYB6M2","19:41:05",15,"Social","Three",4,6,"Same",1,"Novel75",3,"Novel75",3,2961,"eyes_right",3,1,0,0,3,TRUE,FALSE,4,TRUE,"km"
"11076",11076,11076,"A138VDJMRYB6M2","19:41:05",16,"Social","Three",4,7,"Switch",1,"Novel44",3,"Novel64",1,3137,"eyes_right",3,1,0,0,3,TRUE,FALSE,4,FALSE,"km"
"11077",11077,11077,"A138VDJMRYB6M2","19:41:05",17,"Social","Three",4,4,"Same",0,"Novel65",1,"Novel65",2,2463,"eyescenter",-1,0,1,0,3,TRUE,FALSE,4,TRUE,"km"
"11078",11078,11078,"A138VDJMRYB6M2","19:41:05",18,"Social","Three",4,5,"Switch",1,"Novel17",0,"Novel14",1,4452,"eyescenter",-1,0,1,0,3,TRUE,FALSE,4,FALSE,"km"
"11079",11079,11079,"A138VDJMRYB6M2","19:41:05",19,"Social","Three",4,6,"Same",1,"Novel75",3,"Novel75",3,2557,"eyescenter",-1,0,1,0,3,TRUE,FALSE,4,TRUE,"km"
"11080",11080,11080,"A138VDJMRYB6M2","19:41:05",20,"Social","Three",4,7,"Switch",1,"Novel115",0,"Novel64",1,6281,"eyescenter",-1,0,1,0,3,TRUE,FALSE,4,FALSE,"km"
"17909",17909,61,"A13B5ZQS4QB6WS","12:02:28",1,"Social","Seven",4,0,"Same",1,"squirrel",0,"",0,NA,"eyescenter",-1,0,0,1,7,TRUE,FALSE,4,FALSE,"km-batch2"
"17910",17910,62,"A13B5ZQS4QB6WS","12:02:28",2,"Social","Seven",4,0,"Same",1,"squirrel",0,"",0,3863,"eyescenter",-1,0,0,1,7,TRUE,FALSE,4,FALSE,"km-batch2"
"17911",17911,63,"A13B5ZQS4QB6WS","12:02:28",3,"Social","Seven",4,0,"Same",1,"tomato",1,"",0,2546,"eyescenter",-1,0,0,1,7,TRUE,FALSE,4,FALSE,"km-batch2"
"17912",17912,64,"A13B5ZQS4QB6WS","12:02:28",4,"Social","Seven",4,0,"Same",1,"tomato",2,"",0,2284,"eyescenter",-1,0,0,1,7,TRUE,FALSE,4,FALSE,"km-batch2"
"17913",17913,65,"A13B5ZQS4QB6WS","12:02:28",5,"Social","Seven",4,0,"Same",1,"Novel40",2,"Novel40",2,4875,"eyes_left",0,1,0,0,7,TRUE,FALSE,4,TRUE,"km-batch2"
"17914",17914,66,"A13B5ZQS4QB6WS","12:02:28",6,"Social","Seven",4,1,"Switch",0,"Novel52",0,"Novel133",3,6053,"eyes_down_right",2,1,0,0,7,TRUE,FALSE,4,FALSE,"km-batch2"
"17915",17915,67,"A13B5ZQS4QB6WS","12:02:28",7,"Social","Seven",4,2,"Same",0,"Novel128",1,"Novel128",1,3708,"eyes_right",3,1,0,0,7,TRUE,FALSE,4,TRUE,"km-batch2"
"17916",17916,68,"A13B5ZQS4QB6WS","12:02:28",8,"Social","Seven",4,3,"Switch",1,"Novel23",2,"Novel110",0,6004,"eyes_left",0,1,0,0,7,TRUE,FALSE,4,FALSE,"km-batch2"
"17917",17917,69,"A13B5ZQS4QB6WS","12:02:28",9,"Social","Seven",4,4,"Same",1,"Novel63",0,"Novel63",0,5140,"eyes_right",3,1,0,0,7,TRUE,FALSE,4,TRUE,"km-batch2"
"17918",17918,70,"A13B5ZQS4QB6WS","12:02:28",10,"Social","Seven",4,5,"Switch",0,"Novel3",1,"Novel32",3,6512,"eyes_down_left",1,1,0,0,7,TRUE,FALSE,4,FALSE,"km-batch2"
"17919",17919,71,"A13B5ZQS4QB6WS","12:02:28",11,"Social","Seven",4,6,"Same",0,"Novel121",3,"Novel121",3,4821,"eyes_right",3,1,0,0,7,TRUE,FALSE,4,TRUE,"km-batch2"
"17920",17920,72,"A13B5ZQS4QB6WS","12:02:28",12,"Social","Seven",4,7,"Switch",1,"Novel20",0,"Novel105",1,2655,"eyes_left",0,1,0,0,7,TRUE,FALSE,4,FALSE,"km-batch2"
"17921",17921,73,"A13B5ZQS4QB6WS","12:02:28",13,"Social","Seven",4,0,"Same",1,"Novel40",2,"Novel40",2,6550,"eyescenter",-1,0,1,0,7,TRUE,TRUE,4,TRUE,"km-batch2"
"17922",17922,74,"A13B5ZQS4QB6WS","12:02:28",14,"Social","Seven",4,1,"Switch",0,"Novel133",0,"Novel133",3,2217,"eyescenter",-1,0,1,0,7,TRUE,FALSE,4,TRUE,"km-batch2"
"17923",17923,75,"A13B5ZQS4QB6WS","12:02:28",15,"Social","Seven",4,2,"Same",0,"Novel96",1,"Novel128",1,5152,"eyescenter",-1,0,1,0,7,TRUE,FALSE,4,FALSE,"km-batch2"
"17924",17924,76,"A13B5ZQS4QB6WS","12:02:28",16,"Social","Seven",4,3,"Switch",1,"Novel102",3,"Novel110",0,3063,"eyescenter",-1,0,1,0,7,TRUE,FALSE,4,FALSE,"km-batch2"
"17925",17925,77,"A13B5ZQS4QB6WS","12:02:28",17,"Social","Seven",4,4,"Same",1,"Novel127",2,"Novel63",0,2039,"eyescenter",-1,0,1,0,7,TRUE,FALSE,4,FALSE,"km-batch2"
"17926",17926,78,"A13B5ZQS4QB6WS","12:02:28",18,"Social","Seven",4,5,"Switch",0,"Novel136",0,"Novel32",3,2374,"eyescenter",-1,0,1,0,7,TRUE,FALSE,4,FALSE,"km-batch2"
"17927",17927,79,"A13B5ZQS4QB6WS","12:02:28",19,"Social","Seven",4,6,"Same",0,"Novel108",0,"Novel121",3,3829,"eyescenter",-1,0,1,0,7,TRUE,FALSE,4,FALSE,"km-batch2"
"17928",17928,80,"A13B5ZQS4QB6WS","12:02:28",20,"Social","Seven",4,7,"Switch",1,"Novel9",3,"Novel105",1,2990,"eyescenter",-1,0,1,0,7,TRUE,FALSE,4,FALSE,"km-batch2"
"17929",17929,81,"A13FEFBGV1ER31","17:21:48",1,"Social","Zero",4,0,"Switch",1,"squirrel",0,"",0,2070,"eyescenter",-1,0,0,1,0,TRUE,FALSE,4,FALSE,"km-batch2"
"17930",17930,82,"A13FEFBGV1ER31","17:21:48",2,"Social","Zero",4,0,"Switch",1,"squirrel",0,"",0,2907,"eyescenter",-1,0,0,1,0,TRUE,FALSE,4,FALSE,"km-batch2"
"17931",17931,83,"A13FEFBGV1ER31","17:21:48",3,"Social","Zero",4,0,"Switch",1,"tomato",1,"",0,2704,"eyescenter",-1,0,0,1,0,TRUE,FALSE,4,FALSE,"km-batch2"
"17932",17932,84,"A13FEFBGV1ER31","17:21:48",4,"Social","Zero",4,0,"Switch",1,"tomato",2,"",0,1810,"eyescenter",-1,0,0,1,0,TRUE,FALSE,4,FALSE,"km-batch2"
"17933",17933,85,"A13FEFBGV1ER31","17:21:48",5,"Social","Zero",4,0,"Switch",1,"Novel107",0,"Novel5",1,4332,"eyes_down_right",2,1,0,0,0,TRUE,FALSE,4,FALSE,"km-batch2"
"17934",17934,86,"A13FEFBGV1ER31","17:21:48",6,"Social","Zero",4,0,"Switch",1,"Novel5",1,"Novel5",1,5547,"eyescenter",-1,0,1,0,0,TRUE,TRUE,4,TRUE,"km-batch2"
"17935",17935,87,"A13FEFBGV1ER31","17:21:48",7,"Social","Zero",4,1,"Same",1,"Novel47",1,"Novel47",1,2145,"eyes_right",3,1,0,0,0,TRUE,FALSE,4,TRUE,"km-batch2"
"17936",17936,88,"A13FEFBGV1ER31","17:21:48",8,"Social","Zero",4,1,"Same",1,"Novel47",1,"Novel47",1,906,"eyescenter",-1,0,1,0,0,TRUE,FALSE,4,TRUE,"km-batch2"
"17937",17937,89,"A13FEFBGV1ER31","17:21:48",9,"Social","Zero",4,2,"Switch",0,"Novel60",1,"Novel35",0,4048,"eyes_right",3,1,0,0,0,TRUE,FALSE,4,FALSE,"km-batch2"
"17938",17938,90,"A13FEFBGV1ER31","17:21:48",10,"Social","Zero",4,2,"Switch",0,"Novel35",2,"Novel35",0,1998,"eyescenter",-1,0,1,0,0,TRUE,FALSE,4,TRUE,"km-batch2"
"17939",17939,91,"A13FEFBGV1ER31","17:21:48",11,"Social","Zero",4,3,"Same",0,"Novel139",2,"Novel139",2,3846,"eyes_left",0,1,0,0,0,TRUE,FALSE,4,TRUE,"km-batch2"
"17940",17940,92,"A13FEFBGV1ER31","17:21:48",12,"Social","Zero",4,3,"Same",0,"Novel139",1,"Novel139",2,885,"eyescenter",-1,0,1,0,0,TRUE,FALSE,4,TRUE,"km-batch2"
"17941",17941,93,"A13FEFBGV1ER31","17:21:48",13,"Social","Zero",4,4,"Switch",0,"Novel105",2,"Novel74",0,3406,"eyes_left",0,1,0,0,0,TRUE,FALSE,4,FALSE,"km-batch2"
"17942",17942,94,"A13FEFBGV1ER31","17:21:48",14,"Social","Zero",4,4,"Switch",0,"Novel29",0,"Novel74",0,1102,"eyescenter",-1,0,1,0,0,TRUE,FALSE,4,FALSE,"km-batch2"
"17943",17943,95,"A13FEFBGV1ER31","17:21:48",15,"Social","Zero",4,5,"Same",1,"Novel82",1,"Novel82",1,4150,"eyes_left",0,1,0,0,0,TRUE,FALSE,4,TRUE,"km-batch2"
"17944",17944,96,"A13FEFBGV1ER31","17:21:48",16,"Social","Zero",4,5,"Same",1,"Novel82",1,"Novel82",1,778,"eyescenter",-1,0,1,0,0,TRUE,FALSE,4,TRUE,"km-batch2"
"17945",17945,97,"A13FEFBGV1ER31","17:21:48",17,"Social","Zero",4,6,"Switch",1,"Novel52",1,"Novel103",3,9423,"eyes_down_left",1,1,0,0,0,TRUE,FALSE,4,FALSE,"km-batch2"
"17946",17946,98,"A13FEFBGV1ER31","17:21:48",18,"Social","Zero",4,6,"Switch",1,"Novel103",3,"Novel103",3,1358,"eyescenter",-1,0,1,0,0,TRUE,FALSE,4,TRUE,"km-batch2"
"17947",17947,99,"A13FEFBGV1ER31","17:21:48",19,"Social","Zero",4,7,"Same",0,"Novel68",2,"Novel68",2,6151,"eyes_left",0,1,0,0,0,TRUE,FALSE,4,TRUE,"km-batch2"
"17948",17948,100,"A13FEFBGV1ER31","17:21:48",20,"Social","Zero",4,7,"Same",0,"Novel68",1,"Novel68",2,926,"eyescenter",-1,0,1,0,0,TRUE,FALSE,4,TRUE,"km-batch2"
"11081",11081,11081,"A13GK9NRFTRNA3","22:12:43",1,"Social","Three",4,0,"Switch",0,"squirrel",0,"",0,2260,"eyescenter",-1,0,0,1,3,TRUE,FALSE,4,FALSE,"km"
"11082",11082,11082,"A13GK9NRFTRNA3","22:12:43",2,"Social","Three",4,0,"Switch",0,"squirrel",0,"",0,1334,"eyescenter",-1,0,0,1,3,TRUE,FALSE,4,FALSE,"km"
"11083",11083,11083,"A13GK9NRFTRNA3","22:12:43",3,"Social","Three",4,0,"Switch",0,"tomato",1,"",0,1966,"eyescenter",-1,0,0,1,3,TRUE,FALSE,4,FALSE,"km"
"11084",11084,11084,"A13GK9NRFTRNA3","22:12:43",4,"Social","Three",4,0,"Switch",0,"tomato",2,"",0,1023,"eyescenter",-1,0,0,1,3,TRUE,FALSE,4,FALSE,"km"
"11085",11085,11085,"A13GK9NRFTRNA3","22:12:43",5,"Social","Three",4,0,"Switch",0,"Novel129",1,"Novel5",3,6693,"eyes_down_left",1,1,0,0,3,TRUE,FALSE,4,FALSE,"km"
"11086",11086,11086,"A13GK9NRFTRNA3","22:12:43",6,"Social","Three",4,1,"Same",0,"Novel19",2,"Novel19",2,1243,"eyes_down_right",2,1,0,0,3,TRUE,FALSE,4,TRUE,"km"
