"","subid","submit.date","submit.time","trial.num","gazeLength","condition","interval","numPic","browser","itemNum","trialType","samePos","chosen","chosenIdx","kept","keptIdx","rt","face","faceIdx","exposureTrial","testTrial","exampleTrial","day.and.time","intervalNum","include","first.trial","numPicN","correct"
"1","A12AL93ILXVJH1","Jul 15 2014","10:07:30",1,"Short","No-social","Zero",4,"Chrome",0,"Same",1,"squirrel",0,"",0,31,"straightahead",-1,0,0,1,(Jul 15 2014 10:07:30),0,TRUE,FALSE,4,FALSE
"2","A12AL93ILXVJH1","Jul 15 2014","10:07:30",2,"Short","No-social","Zero",4,"Chrome",0,"Same",1,"squirrel",0,"",0,1941,"straightahead",-1,0,0,1,(Jul 15 2014 10:07:30),0,TRUE,FALSE,4,FALSE
"3","A12AL93ILXVJH1","Jul 15 2014","10:07:30",3,"Short","No-social","Zero",4,"Chrome",0,"Same",1,"tomato",1,"",0,2464,"straightahead",-1,0,0,1,(Jul 15 2014 10:07:30),0,TRUE,FALSE,4,FALSE
"4","A12AL93ILXVJH1","Jul 15 2014","10:07:30",4,"Short","No-social","Zero",4,"Chrome",0,"Same",1,"tomato",2,"",0,1052,"straightahead",-1,0,0,1,(Jul 15 2014 10:07:30),0,TRUE,FALSE,4,FALSE
"5","A12AL93ILXVJH1","Jul 15 2014","10:07:30",5,"Short","No-social","Zero",4,"Chrome",0,"Same",1,"Novel130",2,"Novel130",2,6509,"straightahead",-1,1,0,0,(Jul 15 2014 10:07:30),0,TRUE,FALSE,4,TRUE
"6","A12AL93ILXVJH1","Jul 15 2014","10:07:30",6,"Short","No-social","Zero",4,"Chrome",0,"Same",1,"Novel130",2,"Novel130",2,172,"straightahead",-1,0,1,0,(Jul 15 2014 10:07:30),0,TRUE,TRUE,4,TRUE
"7","A12AL93ILXVJH1","Jul 15 2014","10:07:30",7,"Short","No-social","Zero",4,"Chrome",1,"Switch",1,"Novel47",2,"Novel85",1,16473,"straightahead",-1,1,0,0,(Jul 15 2014 10:07:30),0,TRUE,FALSE,4,FALSE
"8","A12AL93ILXVJH1","Jul 15 2014","10:07:30",8,"Short","No-social","Zero",4,"Chrome",1,"Switch",1,"Novel102",2,"Novel85",1,8814,"straightahead",-1,0,1,0,(Jul 15 2014 10:07:30),0,TRUE,FALSE,4,FALSE
"9","A12AL93ILXVJH1","Jul 15 2014","10:07:30",9,"Short","No-social","Zero",4,"Chrome",2,"Same",0,"Novel9",0,"Novel9",0,3478,"straightahead",-1,1,0,0,(Jul 15 2014 10:07:30),0,TRUE,FALSE,4,TRUE
"10","A12AL93ILXVJH1","Jul 15 2014","10:07:30",10,"Short","No-social","Zero",4,"Chrome",2,"Same",0,"Novel9",3,"Novel9",0,452,"straightahead",-1,0,1,0,(Jul 15 2014 10:07:30),0,TRUE,FALSE,4,TRUE
"11","A12AL93ILXVJH1","Jul 15 2014","10:07:30",11,"Short","No-social","Zero",4,"Chrome",3,"Switch",1,"Novel87",3,"Novel106",0,13474,"straightahead",-1,1,0,0,(Jul 15 2014 10:07:30),0,TRUE,FALSE,4,FALSE
"12","A12AL93ILXVJH1","Jul 15 2014","10:07:30",12,"Short","No-social","Zero",4,"Chrome",3,"Switch",1,"Novel26",3,"Novel106",0,4818,"straightahead",-1,0,1,0,(Jul 15 2014 10:07:30),0,TRUE,FALSE,4,FALSE
"13","A12AL93ILXVJH1","Jul 15 2014","10:07:30",13,"Short","No-social","Zero",4,"Chrome",4,"Same",1,"Novel95",0,"Novel95",0,4177,"straightahead",-1,1,0,0,(Jul 15 2014 10:07:30),0,TRUE,FALSE,4,TRUE
"14","A12AL93ILXVJH1","Jul 15 2014","10:07:30",14,"Short","No-social","Zero",4,"Chrome",4,"Same",1,"Novel95",0,"Novel95",0,1299,"straightahead",-1,0,1,0,(Jul 15 2014 10:07:30),0,TRUE,FALSE,4,TRUE
"15","A12AL93ILXVJH1","Jul 15 2014","10:07:30",15,"Short","No-social","Zero",4,"Chrome",5,"Switch",0,"Novel116",0,"Novel2",2,15316,"straightahead",-1,1,0,0,(Jul 15 2014 10:07:30),0,TRUE,FALSE,4,FALSE
"16","A12AL93ILXVJH1","Jul 15 2014","10:07:30",16,"Short","No-social","Zero",4,"Chrome",5,"Switch",0,"Novel63",1,"Novel2",2,578,"straightahead",-1,0,1,0,(Jul 15 2014 10:07:30),0,TRUE,FALSE,4,FALSE
"17","A12AL93ILXVJH1","Jul 15 2014","10:07:30",17,"Short","No-social","Zero",4,"Chrome",6,"Same",0,"Novel79",3,"Novel79",3,725,"straightahead",-1,1,0,0,(Jul 15 2014 10:07:30),0,TRUE,FALSE,4,TRUE
"18","A12AL93ILXVJH1","Jul 15 2014","10:07:30",18,"Short","No-social","Zero",4,"Chrome",6,"Same",0,"Novel79",0,"Novel79",3,764,"straightahead",-1,0,1,0,(Jul 15 2014 10:07:30),0,TRUE,FALSE,4,TRUE
"19","A12AL93ILXVJH1","Jul 15 2014","10:07:30",19,"Short","No-social","Zero",4,"Chrome",7,"Switch",0,"Novel92",3,"Novel103",2,21329,"straightahead",-1,1,0,0,(Jul 15 2014 10:07:30),0,TRUE,FALSE,4,FALSE
"20","A12AL93ILXVJH1","Jul 15 2014","10:07:30",20,"Short","No-social","Zero",4,"Chrome",7,"Switch",0,"Novel10",3,"Novel103",2,956,"straightahead",-1,0,1,0,(Jul 15 2014 10:07:30),0,TRUE,FALSE,4,FALSE
"21","A13BDQ7J8MNP40","Jul 15 2014","19:57:58",1,"Short","No-social","Zero",4,"Chrome",0,"Switch",1,"squirrel",0,"",0,1126,"straightahead",-1,0,0,1,(Jul 15 2014 19:57:58),0,TRUE,FALSE,4,FALSE
"22","A13BDQ7J8MNP40","Jul 15 2014","19:57:58",2,"Short","No-social","Zero",4,"Chrome",0,"Switch",1,"squirrel",0,"",0,162,"straightahead",-1,0,0,1,(Jul 15 2014 19:57:58),0,TRUE,FALSE,4,FALSE
"23","A13BDQ7J8MNP40","Jul 15 2014","19:57:58",3,"Short","No-social","Zero",4,"Chrome",0,"Switch",1,"tomato",1,"",0,87,"straightahead",-1,0,0,1,(Jul 15 2014 19:57:58),0,TRUE,FALSE,4,FALSE
"24","A13BDQ7J8MNP40","Jul 15 2014","19:57:58",4,"Short","No-social","Zero",4,"Chrome",0,"Switch",1,"tomato",2,"",0,595,"straightahead",-1,0,0,1,(Jul 15 2014 19:57:58),0,TRUE,FALSE,4,FALSE
"25","A13BDQ7J8MNP40","Jul 15 2014","19:57:58",5,"Short","No-social","Zero",4,"Chrome",0,"Switch",1,"Novel1",0,"Novel97",3,1761,"straightahead",-1,1,0,0,(Jul 15 2014 19:57:58),0,TRUE,FALSE,4,FALSE
"26","A13BDQ7J8MNP40","Jul 15 2014","19:57:58",6,"Short","No-social","Zero",4,"Chrome",0,"Switch",1,"Novel97",3,"Novel97",3,606,"straightahead",-1,0,1,0,(Jul 15 2014 19:57:58),0,TRUE,TRUE,4,TRUE
"27","A13BDQ7J8MNP40","Jul 15 2014","19:57:58",7,"Short","No-social","Zero",4,"Chrome",1,"Same",1,"Novel38",1,"Novel38",1,296,"straightahead",-1,1,0,0,(Jul 15 2014 19:57:58),0,TRUE,FALSE,4,TRUE
"28","A13BDQ7J8MNP40","Jul 15 2014","19:57:58",8,"Short","No-social","Zero",4,"Chrome",1,"Same",1,"Novel38",1,"Novel38",1,438,"straightahead",-1,0,1,0,(Jul 15 2014 19:57:58),0,TRUE,FALSE,4,TRUE
"29","A13BDQ7J8MNP40","Jul 15 2014","19:57:58",9,"Short","No-social","Zero",4,"Chrome",2,"Switch",0,"Novel45",2,"Novel135",3,755,"straightahead",-1,1,0,0,(Jul 15 2014 19:57:58),0,TRUE,FALSE,4,FALSE
"30","A13BDQ7J8MNP40","Jul 15 2014","19:57:58",10,"Short","No-social","Zero",4,"Chrome",2,"Switch",0,"Novel68",2,"Novel135",3,1109,"straightahead",-1,0,1,0,(Jul 15 2014 19:57:58),0,TRUE,FALSE,4,FALSE
"31","A13BDQ7J8MNP40","Jul 15 2014","19:57:58",11,"Short","No-social","Zero",4,"Chrome",3,"Same",1,"Novel59",0,"Novel59",0,4501,"straightahead",-1,1,0,0,(Jul 15 2014 19:57:58),0,TRUE,FALSE,4,TRUE
"32","A13BDQ7J8MNP40","Jul 15 2014","19:57:58",12,"Short","No-social","Zero",4,"Chrome",3,"Same",1,"Novel59",0,"Novel59",0,241,"straightahead",-1,0,1,0,(Jul 15 2014 19:57:58),0,TRUE,FALSE,4,TRUE
"33","A13BDQ7J8MNP40","Jul 15 2014","19:57:58",13,"Short","No-social","Zero",4,"Chrome",4,"Switch",1,"Novel52",3,"Novel48",2,142,"straightahead",-1,1,0,0,(Jul 15 2014 19:57:58),0,TRUE,FALSE,4,FALSE
"34","A13BDQ7J8MNP40","Jul 15 2014","19:57:58",14,"Short","No-social","Zero",4,"Chrome",4,"Switch",1,"Novel130",3,"Novel48",2,949,"straightahead",-1,0,1,0,(Jul 15 2014 19:57:58),0,TRUE,FALSE,4,FALSE
"35","A13BDQ7J8MNP40","Jul 15 2014","19:57:58",15,"Short","No-social","Zero",4,"Chrome",5,"Same",0,"Novel123",1,"Novel123",1,1451,"straightahead",-1,1,0,0,(Jul 15 2014 19:57:58),0,TRUE,FALSE,4,TRUE
"36","A13BDQ7J8MNP40","Jul 15 2014","19:57:58",16,"Short","No-social","Zero",4,"Chrome",5,"Same",0,"Novel123",0,"Novel123",1,110,"straightahead",-1,0,1,0,(Jul 15 2014 19:57:58),0,TRUE,FALSE,4,TRUE
"37","A13BDQ7J8MNP40","Jul 15 2014","19:57:58",17,"Short","No-social","Zero",4,"Chrome",6,"Switch",0,"Novel46",1,"Novel132",0,2226,"straightahead",-1,1,0,0,(Jul 15 2014 19:57:58),0,TRUE,FALSE,4,FALSE
"38","A13BDQ7J8MNP40","Jul 15 2014","19:57:58",18,"Short","No-social","Zero",4,"Chrome",6,"Switch",0,"Novel57",2,"Novel132",0,309,"straightahead",-1,0,1,0,(Jul 15 2014 19:57:58),0,TRUE,FALSE,4,FALSE
"39","A13BDQ7J8MNP40","Jul 15 2014","19:57:58",19,"Short","No-social","Zero",4,"Chrome",7,"Same",0,"Novel22",0,"Novel22",0,5996,"straightahead",-1,1,0,0,(Jul 15 2014 19:57:58),0,TRUE,FALSE,4,TRUE
"40","A13BDQ7J8MNP40","Jul 15 2014","19:57:58",20,"Short","No-social","Zero",4,"Chrome",7,"Same",0,"Novel22",3,"Novel22",0,1338,"straightahead",-1,0,1,0,(Jul 15 2014 19:57:58),0,TRUE,FALSE,4,TRUE
"41","A1A13DW7P0TSX2","Jul 15 2014","22:10:06",1,"Short","No-social","Zero",4,"Chrome",0,"Switch",1,"squirrel",0,"",0,4395,"straightahead",-1,0,0,1,(Jul 15 2014 22:10:06),0,TRUE,FALSE,4,FALSE
"42","A1A13DW7P0TSX2","Jul 15 2014","22:10:06",2,"Short","No-social","Zero",4,"Chrome",0,"Switch",1,"squirrel",0,"",0,676,"straightahead",-1,0,0,1,(Jul 15 2014 22:10:06),0,TRUE,FALSE,4,FALSE
"43","A1A13DW7P0TSX2","Jul 15 2014","22:10:06",3,"Short","No-social","Zero",4,"Chrome",0,"Switch",1,"tomato",1,"",0,726,"straightahead",-1,0,0,1,(Jul 15 2014 22:10:06),0,TRUE,FALSE,4,FALSE
"44","A1A13DW7P0TSX2","Jul 15 2014","22:10:06",4,"Short","No-social","Zero",4,"Chrome",0,"Switch",1,"tomato",2,"",0,75,"straightahead",-1,0,0,1,(Jul 15 2014 22:10:06),0,TRUE,FALSE,4,FALSE
"45","A1A13DW7P0TSX2","Jul 15 2014","22:10:06",5,"Short","No-social","Zero",4,"Chrome",0,"Switch",1,"Novel131",2,"Novel135",1,846,"straightahead",-1,1,0,0,(Jul 15 2014 22:10:06),0,TRUE,FALSE,4,FALSE
"46","A1A13DW7P0TSX2","Jul 15 2014","22:10:06",6,"Short","No-social","Zero",4,"Chrome",0,"Switch",1,"Novel135",1,"Novel135",1,504,"straightahead",-1,0,1,0,(Jul 15 2014 22:10:06),0,TRUE,TRUE,4,TRUE
"47","A1A13DW7P0TSX2","Jul 15 2014","22:10:06",7,"Short","No-social","Zero",4,"Chrome",1,"Same",1,"Novel82",0,"Novel82",0,827,"straightahead",-1,1,0,0,(Jul 15 2014 22:10:06),0,TRUE,FALSE,4,TRUE
"48","A1A13DW7P0TSX2","Jul 15 2014","22:10:06",8,"Short","No-social","Zero",4,"Chrome",1,"Same",1,"Novel82",0,"Novel82",0,151,"straightahead",-1,0,1,0,(Jul 15 2014 22:10:06),0,TRUE,FALSE,4,TRUE
"49","A1A13DW7P0TSX2","Jul 15 2014","22:10:06",9,"Short","No-social","Zero",4,"Chrome",2,"Switch",0,"Novel83",2,"Novel23",1,1039,"straightahead",-1,1,0,0,(Jul 15 2014 22:10:06),0,TRUE,FALSE,4,FALSE
"50","A1A13DW7P0TSX2","Jul 15 2014","22:10:06",10,"Short","No-social","Zero",4,"Chrome",2,"Switch",0,"Novel94",1,"Novel23",1,489,"straightahead",-1,0,1,0,(Jul 15 2014 22:10:06),0,TRUE,FALSE,4,FALSE
"51","A1A13DW7P0TSX2","Jul 15 2014","22:10:06",11,"Short","No-social","Zero",4,"Chrome",3,"Same",1,"Novel12",3,"Novel12",3,880,"straightahead",-1,1,0,0,(Jul 15 2014 22:10:06),0,TRUE,FALSE,4,TRUE
"52","A1A13DW7P0TSX2","Jul 15 2014","22:10:06",12,"Short","No-social","Zero",4,"Chrome",3,"Same",1,"Novel12",3,"Novel12",3,1268,"straightahead",-1,0,1,0,(Jul 15 2014 22:10:06),0,TRUE,FALSE,4,TRUE
"53","A1A13DW7P0TSX2","Jul 15 2014","22:10:06",13,"Short","No-social","Zero",4,"Chrome",4,"Switch",1,"Novel101",1,"Novel74",0,961,"straightahead",-1,1,0,0,(Jul 15 2014 22:10:06),0,TRUE,FALSE,4,FALSE
"54","A1A13DW7P0TSX2","Jul 15 2014","22:10:06",14,"Short","No-social","Zero",4,"Chrome",4,"Switch",1,"Novel74",0,"Novel74",0,1135,"straightahead",-1,0,1,0,(Jul 15 2014 22:10:06),0,TRUE,FALSE,4,TRUE
"55","A1A13DW7P0TSX2","Jul 15 2014","22:10:06",15,"Short","No-social","Zero",4,"Chrome",5,"Same",0,"Novel34",3,"Novel34",3,172,"straightahead",-1,1,0,0,(Jul 15 2014 22:10:06),0,TRUE,FALSE,4,TRUE
"56","A1A13DW7P0TSX2","Jul 15 2014","22:10:06",16,"Short","No-social","Zero",4,"Chrome",5,"Same",0,"Novel34",2,"Novel34",3,32,"straightahead",-1,0,1,0,(Jul 15 2014 22:10:06),0,TRUE,FALSE,4,TRUE
"57","A1A13DW7P0TSX2","Jul 15 2014","22:10:06",17,"Short","No-social","Zero",4,"Chrome",6,"Switch",0,"Novel19",3,"Novel30",2,50,"straightahead",-1,1,0,0,(Jul 15 2014 22:10:06),0,TRUE,FALSE,4,FALSE
"58","A1A13DW7P0TSX2","Jul 15 2014","22:10:06",18,"Short","No-social","Zero",4,"Chrome",6,"Switch",0,"Novel30",0,"Novel30",2,99,"straightahead",-1,0,1,0,(Jul 15 2014 22:10:06),0,TRUE,FALSE,4,TRUE
"59","A1A13DW7P0TSX2","Jul 15 2014","22:10:06",19,"Short","No-social","Zero",4,"Chrome",7,"Same",0,"Novel71",0,"Novel71",0,134,"straightahead",-1,1,0,0,(Jul 15 2014 22:10:06),0,TRUE,FALSE,4,TRUE
"60","A1A13DW7P0TSX2","Jul 15 2014","22:10:06",20,"Short","No-social","Zero",4,"Chrome",7,"Same",0,"Novel71",2,"Novel71",0,79,"straightahead",-1,0,1,0,(Jul 15 2014 22:10:06),0,TRUE,FALSE,4,TRUE
"61","A1AHDDD2BRFT6G","Jul 15 2014","09:29:01",1,"Short","No-social","Zero",4,"Safari",0,"Same",1,"squirrel",0,"",0,7383,"straightahead",-1,0,0,1,(Jul 15 2014 09:29:01),0,TRUE,FALSE,4,FALSE
"62","A1AHDDD2BRFT6G","Jul 15 2014","09:29:01",2,"Short","No-social","Zero",4,"Safari",0,"Same",1,"squirrel",0,"",0,1832,"straightahead",-1,0,0,1,(Jul 15 2014 09:29:01),0,TRUE,FALSE,4,FALSE
"63","A1AHDDD2BRFT6G","Jul 15 2014","09:29:01",3,"Short","No-social","Zero",4,"Safari",0,"Same",1,"tomato",1,"",0,1890,"straightahead",-1,0,0,1,(Jul 15 2014 09:29:01),0,TRUE,FALSE,4,FALSE
"64","A1AHDDD2BRFT6G","Jul 15 2014","09:29:01",4,"Short","No-social","Zero",4,"Safari",0,"Same",1,"tomato",2,"",0,30,"straightahead",-1,0,0,1,(Jul 15 2014 09:29:01),0,TRUE,FALSE,4,FALSE
"65","A1AHDDD2BRFT6G","Jul 15 2014","09:29:01",5,"Short","No-social","Zero",4,"Safari",0,"Same",1,"Novel49",0,"Novel49",0,101,"straightahead",-1,1,0,0,(Jul 15 2014 09:29:01),0,TRUE,FALSE,4,TRUE
"66","A1AHDDD2BRFT6G","Jul 15 2014","09:29:01",6,"Short","No-social","Zero",4,"Safari",0,"Same",1,"Novel49",0,"Novel49",0,732,"straightahead",-1,0,1,0,(Jul 15 2014 09:29:01),0,TRUE,TRUE,4,TRUE
"67","A1AHDDD2BRFT6G","Jul 15 2014","09:29:01",7,"Short","No-social","Zero",4,"Safari",1,"Switch",1,"Novel136",3,"Novel3",0,764,"straightahead",-1,1,0,0,(Jul 15 2014 09:29:01),0,TRUE,FALSE,4,FALSE
"68","A1AHDDD2BRFT6G","Jul 15 2014","09:29:01",8,"Short","No-social","Zero",4,"Safari",1,"Switch",1,"Novel35",1,"Novel3",0,729,"straightahead",-1,0,1,0,(Jul 15 2014 09:29:01),0,TRUE,FALSE,4,FALSE
"69","A1AHDDD2BRFT6G","Jul 15 2014","09:29:01",9,"Short","No-social","Zero",4,"Safari",2,"Same",0,"Novel86",2,"Novel86",2,520,"straightahead",-1,1,0,0,(Jul 15 2014 09:29:01),0,TRUE,FALSE,4,TRUE
"70","A1AHDDD2BRFT6G","Jul 15 2014","09:29:01",10,"Short","No-social","Zero",4,"Safari",2,"Same",0,"Novel17",2,"Novel86",2,224,"straightahead",-1,0,1,0,(Jul 15 2014 09:29:01),0,TRUE,FALSE,4,FALSE
"71","A1AHDDD2BRFT6G","Jul 15 2014","09:29:01",11,"Short","No-social","Zero",4,"Safari",3,"Switch",1,"Novel22",0,"Novel84",1,1029,"straightahead",-1,1,0,0,(Jul 15 2014 09:29:01),0,TRUE,FALSE,4,FALSE
"72","A1AHDDD2BRFT6G","Jul 15 2014","09:29:01",12,"Short","No-social","Zero",4,"Safari",3,"Switch",1,"Novel84",1,"Novel84",1,143,"straightahead",-1,0,1,0,(Jul 15 2014 09:29:01),0,TRUE,FALSE,4,TRUE
"73","A1AHDDD2BRFT6G","Jul 15 2014","09:29:01",13,"Short","No-social","Zero",4,"Safari",4,"Same",1,"Novel36",0,"Novel36",0,357,"straightahead",-1,1,0,0,(Jul 15 2014 09:29:01),0,TRUE,FALSE,4,TRUE
"74","A1AHDDD2BRFT6G","Jul 15 2014","09:29:01",14,"Short","No-social","Zero",4,"Safari",4,"Same",1,"Novel71",2,"Novel36",0,556,"straightahead",-1,0,1,0,(Jul 15 2014 09:29:01),0,TRUE,FALSE,4,FALSE
"75","A1AHDDD2BRFT6G","Jul 15 2014","09:29:01",15,"Short","No-social","Zero",4,"Safari",5,"Switch",0,"Novel74",1,"Novel45",0,69,"straightahead",-1,1,0,0,(Jul 15 2014 09:29:01),0,TRUE,FALSE,4,FALSE
"76","A1AHDDD2BRFT6G","Jul 15 2014","09:29:01",16,"Short","No-social","Zero",4,"Safari",5,"Switch",0,"Novel45",1,"Novel45",0,606,"straightahead",-1,0,1,0,(Jul 15 2014 09:29:01),0,TRUE,FALSE,4,TRUE
"77","A1AHDDD2BRFT6G","Jul 15 2014","09:29:01",17,"Short","No-social","Zero",4,"Safari",6,"Same",0,"Novel134",1,"Novel134",1,441,"straightahead",-1,1,0,0,(Jul 15 2014 09:29:01),0,TRUE,FALSE,4,TRUE
"78","A1AHDDD2BRFT6G","Jul 15 2014","09:29:01",18,"Short","No-social","Zero",4,"Safari",6,"Same",0,"Novel134",3,"Novel134",1,346,"straightahead",-1,0,1,0,(Jul 15 2014 09:29:01),0,TRUE,FALSE,4,TRUE
"79","A1AHDDD2BRFT6G","Jul 15 2014","09:29:01",19,"Short","No-social","Zero",4,"Safari",7,"Switch",0,"Novel100",0,"Novel120",3,319,"straightahead",-1,1,0,0,(Jul 15 2014 09:29:01),0,TRUE,FALSE,4,FALSE
"80","A1AHDDD2BRFT6G","Jul 15 2014","09:29:01",20,"Short","No-social","Zero",4,"Safari",7,"Switch",0,"Novel127",0,"Novel120",3,139,"straightahead",-1,0,1,0,(Jul 15 2014 09:29:01),0,TRUE,FALSE,4,FALSE
"81","A1AOP08MELJZPZ","Jul 15 2014","10:49:45",1,"Short","No-social","Zero",4,"Chrome",0,"Switch",0,"squirrel",0,"",0,936,"straightahead",-1,0,0,1,(Jul 15 2014 10:49:45),0,TRUE,FALSE,4,FALSE
"82","A1AOP08MELJZPZ","Jul 15 2014","10:49:45",2,"Short","No-social","Zero",4,"Chrome",0,"Switch",0,"squirrel",0,"",0,399,"straightahead",-1,0,0,1,(Jul 15 2014 10:49:45),0,TRUE,FALSE,4,FALSE
"83","A1AOP08MELJZPZ","Jul 15 2014","10:49:45",3,"Short","No-social","Zero",4,"Chrome",0,"Switch",0,"tomato",1,"",0,516,"straightahead",-1,0,0,1,(Jul 15 2014 10:49:45),0,TRUE,FALSE,4,FALSE
"84","A1AOP08MELJZPZ","Jul 15 2014","10:49:45",4,"Short","No-social","Zero",4,"Chrome",0,"Switch",0,"tomato",2,"",0,464,"straightahead",-1,0,0,1,(Jul 15 2014 10:49:45),0,TRUE,FALSE,4,FALSE
"85","A1AOP08MELJZPZ","Jul 15 2014","10:49:45",5,"Short","No-social","Zero",4,"Chrome",0,"Switch",0,"Novel17",0,"Novel99",1,8358,"straightahead",-1,1,0,0,(Jul 15 2014 10:49:45),0,TRUE,FALSE,4,FALSE
"86","A1AOP08MELJZPZ","Jul 15 2014","10:49:45",6,"Short","No-social","Zero",4,"Chrome",0,"Switch",0,"Novel99",3,"Novel99",1,463,"straightahead",-1,0,1,0,(Jul 15 2014 10:49:45),0,TRUE,TRUE,4,TRUE
"87","A1AOP08MELJZPZ","Jul 15 2014","10:49:45",7,"Short","No-social","Zero",4,"Chrome",1,"Same",0,"Novel74",1,"Novel74",1,450,"straightahead",-1,1,0,0,(Jul 15 2014 10:49:45),0,TRUE,FALSE,4,TRUE
"88","A1AOP08MELJZPZ","Jul 15 2014","10:49:45",8,"Short","No-social","Zero",4,"Chrome",1,"Same",0,"Novel74",0,"Novel74",1,356,"straightahead",-1,0,1,0,(Jul 15 2014 10:49:45),0,TRUE,FALSE,4,TRUE
"89","A1AOP08MELJZPZ","Jul 15 2014","10:49:45",9,"Short","No-social","Zero",4,"Chrome",2,"Switch",0,"Novel90",0,"Novel61",3,184,"straightahead",-1,1,0,0,(Jul 15 2014 10:49:45),0,TRUE,FALSE,4,FALSE
"90","A1AOP08MELJZPZ","Jul 15 2014","10:49:45",10,"Short","No-social","Zero",4,"Chrome",2,"Switch",0,"Novel61",0,"Novel61",3,74,"straightahead",-1,0,1,0,(Jul 15 2014 10:49:45),0,TRUE,FALSE,4,TRUE
"91","A1AOP08MELJZPZ","Jul 15 2014","10:49:45",11,"Short","No-social","Zero",4,"Chrome",3,"Same",0,"Novel21",0,"Novel21",0,56,"straightahead",-1,1,0,0,(Jul 15 2014 10:49:45),0,TRUE,FALSE,4,TRUE
"92","A1AOP08MELJZPZ","Jul 15 2014","10:49:45",12,"Short","No-social","Zero",4,"Chrome",3,"Same",0,"Novel21",3,"Novel21",0,1565,"straightahead",-1,0,1,0,(Jul 15 2014 10:49:45),0,TRUE,FALSE,4,TRUE
"93","A1AOP08MELJZPZ","Jul 15 2014","10:49:45",13,"Short","No-social","Zero",4,"Chrome",4,"Switch",1,"Novel44",1,"Novel126",0,614,"straightahead",-1,1,0,0,(Jul 15 2014 10:49:45),0,TRUE,FALSE,4,FALSE
"94","A1AOP08MELJZPZ","Jul 15 2014","10:49:45",14,"Short","No-social","Zero",4,"Chrome",4,"Switch",1,"Novel126",0,"Novel126",0,112,"straightahead",-1,0,1,0,(Jul 15 2014 10:49:45),0,TRUE,FALSE,4,TRUE
"95","A1AOP08MELJZPZ","Jul 15 2014","10:49:45",15,"Short","No-social","Zero",4,"Chrome",5,"Same",1,"Novel15",1,"Novel15",1,115,"straightahead",-1,1,0,0,(Jul 15 2014 10:49:45),0,TRUE,FALSE,4,TRUE
"96","A1AOP08MELJZPZ","Jul 15 2014","10:49:45",16,"Short","No-social","Zero",4,"Chrome",5,"Same",1,"Novel15",1,"Novel15",1,61,"straightahead",-1,0,1,0,(Jul 15 2014 10:49:45),0,TRUE,FALSE,4,TRUE
"97","A1AOP08MELJZPZ","Jul 15 2014","10:49:45",17,"Short","No-social","Zero",4,"Chrome",6,"Switch",1,"Novel4",0,"Novel121",3,278,"straightahead",-1,1,0,0,(Jul 15 2014 10:49:45),0,TRUE,FALSE,4,FALSE
"98","A1AOP08MELJZPZ","Jul 15 2014","10:49:45",18,"Short","No-social","Zero",4,"Chrome",6,"Switch",1,"Novel71",0,"Novel121",3,317,"straightahead",-1,0,1,0,(Jul 15 2014 10:49:45),0,TRUE,FALSE,4,FALSE
"99","A1AOP08MELJZPZ","Jul 15 2014","10:49:45",19,"Short","No-social","Zero",4,"Chrome",7,"Same",1,"Novel34",1,"Novel34",1,1369,"straightahead",-1,1,0,0,(Jul 15 2014 10:49:45),0,TRUE,FALSE,4,TRUE
"100","A1AOP08MELJZPZ","Jul 15 2014","10:49:45",20,"Short","No-social","Zero",4,"Chrome",7,"Same",1,"Novel130",2,"Novel34",1,4516,"straightahead",-1,0,1,0,(Jul 15 2014 10:49:45),0,TRUE,FALSE,4,FALSE
"101","A1BDJFRSELMRDT","Jul 15 2014","20:43:00",1,"Short","Social","Zero",4,"Chrome",0,"Same",1,"squirrel",0,"",0,9378,"straightahead",-1,0,0,1,(Jul 15 2014 20:43:00),0,TRUE,FALSE,4,FALSE
"102","A1BDJFRSELMRDT","Jul 15 2014","20:43:00",2,"Short","Social","Zero",4,"Chrome",0,"Same",1,"squirrel",0,"",0,383,"straightahead",-1,0,0,1,(Jul 15 2014 20:43:00),0,TRUE,FALSE,4,FALSE
"103","A1BDJFRSELMRDT","Jul 15 2014","20:43:00",3,"Short","Social","Zero",4,"Chrome",0,"Same",1,"tomato",1,"",0,678,"straightahead",-1,0,0,1,(Jul 15 2014 20:43:00),0,TRUE,FALSE,4,FALSE
"104","A1BDJFRSELMRDT","Jul 15 2014","20:43:00",4,"Short","Social","Zero",4,"Chrome",0,"Same",1,"tomato",2,"",0,647,"straightahead",-1,0,0,1,(Jul 15 2014 20:43:00),0,TRUE,FALSE,4,FALSE
"105","A1BDJFRSELMRDT","Jul 15 2014","20:43:00",5,"Short","Social","Zero",4,"Chrome",0,"Same",1,"Novel102",2,"Novel102",2,2994,"silentLUshort",1,1,0,0,(Jul 15 2014 20:43:00),0,TRUE,FALSE,4,TRUE
"106","A1BDJFRSELMRDT","Jul 15 2014","20:43:00",6,"Short","Social","Zero",4,"Chrome",0,"Same",1,"Novel102",2,"Novel102",2,1509,"straightahead",-1,0,1,0,(Jul 15 2014 20:43:00),0,TRUE,TRUE,4,TRUE
"107","A1BDJFRSELMRDT","Jul 15 2014","20:43:00",7,"Short","Social","Zero",4,"Chrome",1,"Switch",1,"Novel56",1,"Novel105",2,1340,"silentRUshort",3,1,0,0,(Jul 15 2014 20:43:00),0,TRUE,FALSE,4,FALSE
"108","A1BDJFRSELMRDT","Jul 15 2014","20:43:00",8,"Short","Social","Zero",4,"Chrome",1,"Switch",1,"Novel9",3,"Novel105",2,861,"straightahead",-1,0,1,0,(Jul 15 2014 20:43:00),0,TRUE,FALSE,4,FALSE
"109","A1BDJFRSELMRDT","Jul 15 2014","20:43:00",9,"Short","Social","Zero",4,"Chrome",2,"Same",0,"Novel6",0,"Novel6",0,2723,"silentRUshort",3,1,0,0,(Jul 15 2014 20:43:00),0,TRUE,FALSE,4,TRUE
"110","A1BDJFRSELMRDT","Jul 15 2014","20:43:00",10,"Short","Social","Zero",4,"Chrome",2,"Same",0,"Novel6",3,"Novel6",0,1079,"straightahead",-1,0,1,0,(Jul 15 2014 20:43:00),0,TRUE,FALSE,4,TRUE
"111","A1BDJFRSELMRDT","Jul 15 2014","20:43:00",11,"Short","Social","Zero",4,"Chrome",3,"Switch",0,"Novel137",3,"Novel125",2,732,"silentRUshort",3,1,0,0,(Jul 15 2014 20:43:00),0,TRUE,FALSE,4,FALSE
"112","A1BDJFRSELMRDT","Jul 15 2014","20:43:00",12,"Short","Social","Zero",4,"Chrome",3,"Switch",0,"Novel27",0,"Novel125",2,481,"straightahead",-1,0,1,0,(Jul 15 2014 20:43:00),0,TRUE,FALSE,4,FALSE
"113","A1BDJFRSELMRDT","Jul 15 2014","20:43:00",13,"Short","Social","Zero",4,"Chrome",4,"Same",0,"Novel134",1,"Novel134",1,300,"silentRUshort",3,1,0,0,(Jul 15 2014 20:43:00),0,TRUE,FALSE,4,TRUE
"114","A1BDJFRSELMRDT","Jul 15 2014","20:43:00",14,"Short","Social","Zero",4,"Chrome",4,"Same",0,"Novel134",3,"Novel134",1,15,"straightahead",-1,0,1,0,(Jul 15 2014 20:43:00),0,TRUE,FALSE,4,TRUE
"115","A1BDJFRSELMRDT","Jul 15 2014","20:43:00",15,"Short","Social","Zero",4,"Chrome",5,"Switch",1,"Novel16",0,"Novel88",1,560,"silentLUshort",1,1,0,0,(Jul 15 2014 20:43:00),0,TRUE,FALSE,4,FALSE
"116","A1BDJFRSELMRDT","Jul 15 2014","20:43:00",16,"Short","Social","Zero",4,"Chrome",5,"Switch",1,"Novel76",2,"Novel88",1,694,"straightahead",-1,0,1,0,(Jul 15 2014 20:43:00),0,TRUE,FALSE,4,FALSE
"117","A1BDJFRSELMRDT","Jul 15 2014","20:43:00",17,"Short","Social","Zero",4,"Chrome",6,"Same",1,"Novel117",0,"Novel117",0,1188,"silentLUshort",1,1,0,0,(Jul 15 2014 20:43:00),0,TRUE,FALSE,4,TRUE
"118","A1BDJFRSELMRDT","Jul 15 2014","20:43:00",18,"Short","Social","Zero",4,"Chrome",6,"Same",1,"Novel117",0,"Novel117",0,550,"straightahead",-1,0,1,0,(Jul 15 2014 20:43:00),0,TRUE,FALSE,4,TRUE
"119","A1BDJFRSELMRDT","Jul 15 2014","20:43:00",19,"Short","Social","Zero",4,"Chrome",7,"Switch",0,"Novel61",2,"Novel51",0,93,"silentLDshort",0,1,0,0,(Jul 15 2014 20:43:00),0,TRUE,FALSE,4,FALSE
"120","A1BDJFRSELMRDT","Jul 15 2014","20:43:00",20,"Short","Social","Zero",4,"Chrome",7,"Switch",0,"Novel51",2,"Novel51",0,74,"straightahead",-1,0,1,0,(Jul 15 2014 20:43:00),0,TRUE,FALSE,4,TRUE
"121","A1D3B3AN1QU8VA","Jul 15 2014","19:38:27",1,"Short","No-social","Zero",4,"Chrome",0,"Switch",0,"squirrel",0,"",0,483,"straightahead",-1,0,0,1,(Jul 15 2014 19:38:27),0,TRUE,FALSE,4,FALSE
"122","A1D3B3AN1QU8VA","Jul 15 2014","19:38:27",2,"Short","No-social","Zero",4,"Chrome",0,"Switch",0,"squirrel",0,"",0,1727,"straightahead",-1,0,0,1,(Jul 15 2014 19:38:27),0,TRUE,FALSE,4,FALSE
"123","A1D3B3AN1QU8VA","Jul 15 2014","19:38:27",3,"Short","No-social","Zero",4,"Chrome",0,"Switch",0,"tomato",1,"",0,159,"straightahead",-1,0,0,1,(Jul 15 2014 19:38:27),0,TRUE,FALSE,4,FALSE
"124","A1D3B3AN1QU8VA","Jul 15 2014","19:38:27",4,"Short","No-social","Zero",4,"Chrome",0,"Switch",0,"tomato",2,"",0,1262,"straightahead",-1,0,0,1,(Jul 15 2014 19:38:27),0,TRUE,FALSE,4,FALSE
"125","A1D3B3AN1QU8VA","Jul 15 2014","19:38:27",5,"Short","No-social","Zero",4,"Chrome",0,"Switch",0,"Novel69",2,"Novel76",1,12310,"straightahead",-1,1,0,0,(Jul 15 2014 19:38:27),0,TRUE,FALSE,4,FALSE
"126","A1D3B3AN1QU8VA","Jul 15 2014","19:38:27",6,"Short","No-social","Zero",4,"Chrome",0,"Switch",0,"Novel70",3,"Novel76",1,10536,"straightahead",-1,0,1,0,(Jul 15 2014 19:38:27),0,TRUE,TRUE,4,FALSE
"127","A1D3B3AN1QU8VA","Jul 15 2014","19:38:27",7,"Short","No-social","Zero",4,"Chrome",1,"Same",1,"Novel114",3,"Novel114",3,4652,"straightahead",-1,1,0,0,(Jul 15 2014 19:38:27),0,TRUE,FALSE,4,TRUE
"128","A1D3B3AN1QU8VA","Jul 15 2014","19:38:27",8,"Short","No-social","Zero",4,"Chrome",1,"Same",1,"Novel114",3,"Novel114",3,370,"straightahead",-1,0,1,0,(Jul 15 2014 19:38:27),0,TRUE,FALSE,4,TRUE
"129","A1D3B3AN1QU8VA","Jul 15 2014","19:38:27",9,"Short","No-social","Zero",4,"Chrome",2,"Switch",1,"Novel63",2,"Novel18",1,9242,"straightahead",-1,1,0,0,(Jul 15 2014 19:38:27),0,TRUE,FALSE,4,FALSE
"130","A1D3B3AN1QU8VA","Jul 15 2014","19:38:27",10,"Short","No-social","Zero",4,"Chrome",2,"Switch",1,"Novel18",1,"Novel18",1,742,"straightahead",-1,0,1,0,(Jul 15 2014 19:38:27),0,TRUE,FALSE,4,TRUE
"131","A1D3B3AN1QU8VA","Jul 15 2014","19:38:27",11,"Short","No-social","Zero",4,"Chrome",3,"Same",0,"Novel113",3,"Novel113",3,6083,"straightahead",-1,1,0,0,(Jul 15 2014 19:38:27),0,TRUE,FALSE,4,TRUE
"132","A1D3B3AN1QU8VA","Jul 15 2014","19:38:27",12,"Short","No-social","Zero",4,"Chrome",3,"Same",0,"Novel113",2,"Novel113",3,3960,"straightahead",-1,0,1,0,(Jul 15 2014 19:38:27),0,TRUE,FALSE,4,TRUE
"133","A1D3B3AN1QU8VA","Jul 15 2014","19:38:27",13,"Short","No-social","Zero",4,"Chrome",4,"Switch",0,"Novel9",1,"Novel15",0,2804,"straightahead",-1,1,0,0,(Jul 15 2014 19:38:27),0,TRUE,FALSE,4,FALSE
"134","A1D3B3AN1QU8VA","Jul 15 2014","19:38:27",14,"Short","No-social","Zero",4,"Chrome",4,"Switch",0,"Novel51",0,"Novel15",0,3468,"straightahead",-1,0,1,0,(Jul 15 2014 19:38:27),0,TRUE,FALSE,4,FALSE
"135","A1D3B3AN1QU8VA","Jul 15 2014","19:38:27",15,"Short","No-social","Zero",4,"Chrome",5,"Same",0,"Novel36",1,"Novel36",1,4681,"straightahead",-1,1,0,0,(Jul 15 2014 19:38:27),0,TRUE,FALSE,4,TRUE
"136","A1D3B3AN1QU8VA","Jul 15 2014","19:38:27",16,"Short","No-social","Zero",4,"Chrome",5,"Same",0,"Novel36",2,"Novel36",1,382,"straightahead",-1,0,1,0,(Jul 15 2014 19:38:27),0,TRUE,FALSE,4,TRUE
"137","A1D3B3AN1QU8VA","Jul 15 2014","19:38:27",17,"Short","No-social","Zero",4,"Chrome",6,"Switch",1,"Novel87",3,"Novel52",1,4677,"straightahead",-1,1,0,0,(Jul 15 2014 19:38:27),0,TRUE,FALSE,4,FALSE
"138","A1D3B3AN1QU8VA","Jul 15 2014","19:38:27",18,"Short","No-social","Zero",4,"Chrome",6,"Switch",1,"Novel102",0,"Novel52",1,5436,"straightahead",-1,0,1,0,(Jul 15 2014 19:38:27),0,TRUE,FALSE,4,FALSE
"139","A1D3B3AN1QU8VA","Jul 15 2014","19:38:27",19,"Short","No-social","Zero",4,"Chrome",7,"Same",1,"Novel134",3,"Novel134",3,4005,"straightahead",-1,1,0,0,(Jul 15 2014 19:38:27),0,TRUE,FALSE,4,TRUE
"140","A1D3B3AN1QU8VA","Jul 15 2014","19:38:27",20,"Short","No-social","Zero",4,"Chrome",7,"Same",1,"Novel134",3,"Novel134",3,1693,"straightahead",-1,0,1,0,(Jul 15 2014 19:38:27),0,TRUE,FALSE,4,TRUE
"141","A1E9W9198N24QL","Jul 15 2014","05:25:06",1,"Short","Social","Zero",4,"Chrome",0,"Switch",0,"squirrel",0,"",0,5986,"straightahead",-1,0,0,1,(Jul 15 2014 05:25:06),0,TRUE,FALSE,4,FALSE
"142","A1E9W9198N24QL","Jul 15 2014","05:25:06",2,"Short","Social","Zero",4,"Chrome",0,"Switch",0,"squirrel",0,"",0,674,"straightahead",-1,0,0,1,(Jul 15 2014 05:25:06),0,TRUE,FALSE,4,FALSE
"143","A1E9W9198N24QL","Jul 15 2014","05:25:06",3,"Short","Social","Zero",4,"Chrome",0,"Switch",0,"tomato",1,"",0,32,"straightahead",-1,0,0,1,(Jul 15 2014 05:25:06),0,TRUE,FALSE,4,FALSE
"144","A1E9W9198N24QL","Jul 15 2014","05:25:06",4,"Short","Social","Zero",4,"Chrome",0,"Switch",0,"tomato",2,"",0,393,"straightahead",-1,0,0,1,(Jul 15 2014 05:25:06),0,TRUE,FALSE,4,FALSE
"145","A1E9W9198N24QL","Jul 15 2014","05:25:06",5,"Short","Social","Zero",4,"Chrome",0,"Switch",0,"Novel107",2,"Novel92",3,475,"silentLDshort",0,1,0,0,(Jul 15 2014 05:25:06),0,TRUE,FALSE,4,FALSE
"146","A1E9W9198N24QL","Jul 15 2014","05:25:06",6,"Short","Social","Zero",4,"Chrome",0,"Switch",0,"Novel67",3,"Novel92",3,1468,"straightahead",-1,0,1,0,(Jul 15 2014 05:25:06),0,TRUE,TRUE,4,FALSE
"147","A1E9W9198N24QL","Jul 15 2014","05:25:06",7,"Short","Social","Zero",4,"Chrome",1,"Same",0,"Novel96",2,"Novel96",2,453,"silentLDshort",0,1,0,0,(Jul 15 2014 05:25:06),0,TRUE,FALSE,4,TRUE
"148","A1E9W9198N24QL","Jul 15 2014","05:25:06",8,"Short","Social","Zero",4,"Chrome",1,"Same",0,"Novel96",1,"Novel96",2,50,"straightahead",-1,0,1,0,(Jul 15 2014 05:25:06),0,TRUE,FALSE,4,TRUE
"149","A1E9W9198N24QL","Jul 15 2014","05:25:06",9,"Short","Social","Zero",4,"Chrome",2,"Switch",0,"Novel110",2,"Novel87",1,114,"silentLDshort",0,1,0,0,(Jul 15 2014 05:25:06),0,TRUE,FALSE,4,FALSE
"150","A1E9W9198N24QL","Jul 15 2014","05:25:06",10,"Short","Social","Zero",4,"Chrome",2,"Switch",0,"Novel87",3,"Novel87",1,303,"straightahead",-1,0,1,0,(Jul 15 2014 05:25:06),0,TRUE,FALSE,4,TRUE
"151","A1E9W9198N24QL","Jul 15 2014","05:25:06",11,"Short","Social","Zero",4,"Chrome",3,"Same",0,"Novel79",0,"Novel79",0,132,"silentLUshort",1,1,0,0,(Jul 15 2014 05:25:06),0,TRUE,FALSE,4,TRUE
"152","A1E9W9198N24QL","Jul 15 2014","05:25:06",12,"Short","Social","Zero",4,"Chrome",3,"Same",0,"Novel79",2,"Novel79",0,667,"straightahead",-1,0,1,0,(Jul 15 2014 05:25:06),0,TRUE,FALSE,4,TRUE
"153","A1E9W9198N24QL","Jul 15 2014","05:25:06",13,"Short","Social","Zero",4,"Chrome",4,"Switch",1,"Novel78",3,"Novel134",0,185,"silentRDshort",2,1,0,0,(Jul 15 2014 05:25:06),0,TRUE,FALSE,4,FALSE
"154","A1E9W9198N24QL","Jul 15 2014","05:25:06",14,"Short","Social","Zero",4,"Chrome",4,"Switch",1,"Novel130",1,"Novel134",0,327,"straightahead",-1,0,1,0,(Jul 15 2014 05:25:06),0,TRUE,FALSE,4,FALSE
"155","A1E9W9198N24QL","Jul 15 2014","05:25:06",15,"Short","Social","Zero",4,"Chrome",5,"Same",1,"Novel46",1,"Novel46",1,142,"silentRUshort",3,1,0,0,(Jul 15 2014 05:25:06),0,TRUE,FALSE,4,TRUE
"156","A1E9W9198N24QL","Jul 15 2014","05:25:06",16,"Short","Social","Zero",4,"Chrome",5,"Same",1,"Novel46",1,"Novel46",1,164,"straightahead",-1,0,1,0,(Jul 15 2014 05:25:06),0,TRUE,FALSE,4,TRUE
"157","A1E9W9198N24QL","Jul 15 2014","05:25:06",17,"Short","Social","Zero",4,"Chrome",6,"Switch",1,"Novel113",2,"Novel36",3,38,"silentLDshort",0,1,0,0,(Jul 15 2014 05:25:06),0,TRUE,FALSE,4,FALSE
"158","A1E9W9198N24QL","Jul 15 2014","05:25:06",18,"Short","Social","Zero",4,"Chrome",6,"Switch",1,"Novel36",3,"Novel36",3,394,"straightahead",-1,0,1,0,(Jul 15 2014 05:25:06),0,TRUE,FALSE,4,TRUE
"159","A1E9W9198N24QL","Jul 15 2014","05:25:06",19,"Short","Social","Zero",4,"Chrome",7,"Same",1,"Novel100",2,"Novel100",2,322,"silentLDshort",0,1,0,0,(Jul 15 2014 05:25:06),0,TRUE,FALSE,4,TRUE
"160","A1E9W9198N24QL","Jul 15 2014","05:25:06",20,"Short","Social","Zero",4,"Chrome",7,"Same",1,"Novel100",2,"Novel100",2,92,"straightahead",-1,0,1,0,(Jul 15 2014 05:25:06),0,TRUE,FALSE,4,TRUE
"161","A1EOV6PR46OYP7","Jul 15 2014","12:28:51",1,"Short","Social","Zero",4,"Chrome",0,"Same",1,"squirrel",0,"",0,248,"straightahead",-1,0,0,1,(Jul 15 2014 12:28:51),0,TRUE,FALSE,4,FALSE
"162","A1EOV6PR46OYP7","Jul 15 2014","12:28:51",2,"Short","Social","Zero",4,"Chrome",0,"Same",1,"squirrel",0,"",0,40,"straightahead",-1,0,0,1,(Jul 15 2014 12:28:51),0,TRUE,FALSE,4,FALSE
"163","A1EOV6PR46OYP7","Jul 15 2014","12:28:51",3,"Short","Social","Zero",4,"Chrome",0,"Same",1,"tomato",1,"",0,1794,"straightahead",-1,0,0,1,(Jul 15 2014 12:28:51),0,TRUE,FALSE,4,FALSE
"164","A1EOV6PR46OYP7","Jul 15 2014","12:28:51",4,"Short","Social","Zero",4,"Chrome",0,"Same",1,"tomato",2,"",0,149,"straightahead",-1,0,0,1,(Jul 15 2014 12:28:51),0,TRUE,FALSE,4,FALSE
"165","A1EOV6PR46OYP7","Jul 15 2014","12:28:51",5,"Short","Social","Zero",4,"Chrome",0,"Same",1,"Novel134",1,"Novel134",1,2002,"silentRUshort",3,1,0,0,(Jul 15 2014 12:28:51),0,TRUE,FALSE,4,TRUE
"166","A1EOV6PR46OYP7","Jul 15 2014","12:28:51",6,"Short","Social","Zero",4,"Chrome",0,"Same",1,"Novel134",1,"Novel134",1,493,"straightahead",-1,0,1,0,(Jul 15 2014 12:28:51),0,TRUE,TRUE,4,TRUE
"167","A1EOV6PR46OYP7","Jul 15 2014","12:28:51",7,"Short","Social","Zero",4,"Chrome",1,"Switch",1,"Novel46",1,"Novel38",0,3735,"silentRUshort",3,1,0,0,(Jul 15 2014 12:28:51),0,TRUE,FALSE,4,FALSE
"168","A1EOV6PR46OYP7","Jul 15 2014","12:28:51",8,"Short","Social","Zero",4,"Chrome",1,"Switch",1,"Novel38",0,"Novel38",0,684,"straightahead",-1,0,1,0,(Jul 15 2014 12:28:51),0,TRUE,FALSE,4,TRUE
"169","A1EOV6PR46OYP7","Jul 15 2014","12:28:51",9,"Short","Social","Zero",4,"Chrome",2,"Same",0,"Novel40",2,"Novel40",2,137,"silentLDshort",0,1,0,0,(Jul 15 2014 12:28:51),0,TRUE,FALSE,4,TRUE
"170","A1EOV6PR46OYP7","Jul 15 2014","12:28:51",10,"Short","Social","Zero",4,"Chrome",2,"Same",0,"Novel40",0,"Novel40",2,97,"straightahead",-1,0,1,0,(Jul 15 2014 12:28:51),0,TRUE,FALSE,4,TRUE
"171","A1EOV6PR46OYP7","Jul 15 2014","12:28:51",11,"Short","Social","Zero",4,"Chrome",3,"Switch",0,"Novel83",3,"Novel45",1,192,"silentRDshort",2,1,0,0,(Jul 15 2014 12:28:51),0,TRUE,FALSE,4,FALSE
"172","A1EOV6PR46OYP7","Jul 15 2014","12:28:51",12,"Short","Social","Zero",4,"Chrome",3,"Switch",0,"Novel120",3,"Novel45",1,27,"straightahead",-1,0,1,0,(Jul 15 2014 12:28:51),0,TRUE,FALSE,4,FALSE
"173","A1EOV6PR46OYP7","Jul 15 2014","12:28:51",13,"Short","Social","Zero",4,"Chrome",4,"Same",1,"Novel29",3,"Novel29",3,381,"silentRDshort",2,1,0,0,(Jul 15 2014 12:28:51),0,TRUE,FALSE,4,TRUE
"174","A1EOV6PR46OYP7","Jul 15 2014","12:28:51",14,"Short","Social","Zero",4,"Chrome",4,"Same",1,"Novel29",3,"Novel29",3,355,"straightahead",-1,0,1,0,(Jul 15 2014 12:28:51),0,TRUE,FALSE,4,TRUE
"175","A1EOV6PR46OYP7","Jul 15 2014","12:28:51",15,"Short","Social","Zero",4,"Chrome",5,"Switch",1,"Novel18",1,"Novel77",0,164,"silentRUshort",3,1,0,0,(Jul 15 2014 12:28:51),0,TRUE,FALSE,4,FALSE
"176","A1EOV6PR46OYP7","Jul 15 2014","12:28:51",16,"Short","Social","Zero",4,"Chrome",5,"Switch",1,"Novel70",1,"Novel77",0,61,"straightahead",-1,0,1,0,(Jul 15 2014 12:28:51),0,TRUE,FALSE,4,FALSE
"177","A1EOV6PR46OYP7","Jul 15 2014","12:28:51",17,"Short","Social","Zero",4,"Chrome",6,"Same",0,"Novel22",2,"Novel22",2,140,"silentLDshort",0,1,0,0,(Jul 15 2014 12:28:51),0,TRUE,FALSE,4,TRUE
"178","A1EOV6PR46OYP7","Jul 15 2014","12:28:51",18,"Short","Social","Zero",4,"Chrome",6,"Same",0,"Novel22",3,"Novel22",2,100,"straightahead",-1,0,1,0,(Jul 15 2014 12:28:51),0,TRUE,FALSE,4,TRUE
"179","A1EOV6PR46OYP7","Jul 15 2014","12:28:51",19,"Short","Social","Zero",4,"Chrome",7,"Switch",0,"Novel110",2,"Novel15",3,138,"silentLDshort",0,1,0,0,(Jul 15 2014 12:28:51),0,TRUE,FALSE,4,FALSE
"180","A1EOV6PR46OYP7","Jul 15 2014","12:28:51",20,"Short","Social","Zero",4,"Chrome",7,"Switch",0,"Novel130",2,"Novel15",3,164,"straightahead",-1,0,1,0,(Jul 15 2014 12:28:51),0,TRUE,FALSE,4,FALSE
"181","A1FA2AJUFESR5T","Jul 15 2014","14:18:36",1,"Short","Social","Zero",4,"Chrome",0,"Same",1,"squirrel",0,"",0,13511,"straightahead",-1,0,0,1,(Jul 15 2014 14:18:36),0,TRUE,FALSE,4,FALSE
"182","A1FA2AJUFESR5T","Jul 15 2014","14:18:36",2,"Short","Social","Zero",4,"Chrome",0,"Same",1,"squirrel",0,"",0,1185,"straightahead",-1,0,0,1,(Jul 15 2014 14:18:36),0,TRUE,FALSE,4,FALSE
"183","A1FA2AJUFESR5T","Jul 15 2014","14:18:36",3,"Short","Social","Zero",4,"Chrome",0,"Same",1,"tomato",1,"",0,61,"straightahead",-1,0,0,1,(Jul 15 2014 14:18:36),0,TRUE,FALSE,4,FALSE
"184","A1FA2AJUFESR5T","Jul 15 2014","14:18:36",4,"Short","Social","Zero",4,"Chrome",0,"Same",1,"tomato",2,"",0,6,"straightahead",-1,0,0,1,(Jul 15 2014 14:18:36),0,TRUE,FALSE,4,FALSE
"185","A1FA2AJUFESR5T","Jul 15 2014","14:18:36",5,"Short","Social","Zero",4,"Chrome",0,"Same",1,"Novel84",3,"Novel84",3,7988,"silentLDshort",0,1,0,0,(Jul 15 2014 14:18:36),0,TRUE,FALSE,4,TRUE
"186","A1FA2AJUFESR5T","Jul 15 2014","14:18:36",6,"Short","Social","Zero",4,"Chrome",0,"Same",1,"Novel21",2,"Novel84",3,1129,"straightahead",-1,0,1,0,(Jul 15 2014 14:18:36),0,TRUE,TRUE,4,FALSE
"187","A1FA2AJUFESR5T","Jul 15 2014","14:18:36",7,"Short","Social","Zero",4,"Chrome",1,"Switch",1,"Novel100",0,"Novel36",2,5426,"silentRDshort",2,1,0,0,(Jul 15 2014 14:18:36),0,TRUE,FALSE,4,FALSE
"188","A1FA2AJUFESR5T","Jul 15 2014","14:18:36",8,"Short","Social","Zero",4,"Chrome",1,"Switch",1,"Novel36",2,"Novel36",2,791,"straightahead",-1,0,1,0,(Jul 15 2014 14:18:36),0,TRUE,FALSE,4,TRUE
"189","A1FA2AJUFESR5T","Jul 15 2014","14:18:36",9,"Short","Social","Zero",4,"Chrome",2,"Same",1,"Novel128",1,"Novel128",1,753,"silentRDshort",2,1,0,0,(Jul 15 2014 14:18:36),0,TRUE,FALSE,4,TRUE
"190","A1FA2AJUFESR5T","Jul 15 2014","14:18:36",10,"Short","Social","Zero",4,"Chrome",2,"Same",1,"Novel59",3,"Novel128",1,740,"straightahead",-1,0,1,0,(Jul 15 2014 14:18:36),0,TRUE,FALSE,4,FALSE
"191","A1FA2AJUFESR5T","Jul 15 2014","14:18:36",11,"Short","Social","Zero",4,"Chrome",3,"Switch",0,"Novel80",1,"Novel131",0,5320,"silentLUshort",1,1,0,0,(Jul 15 2014 14:18:36),0,TRUE,FALSE,4,FALSE
"192","A1FA2AJUFESR5T","Jul 15 2014","14:18:36",12,"Short","Social","Zero",4,"Chrome",3,"Switch",0,"Novel131",2,"Novel131",0,1045,"straightahead",-1,0,1,0,(Jul 15 2014 14:18:36),0,TRUE,FALSE,4,TRUE
"193","A1FA2AJUFESR5T","Jul 15 2014","14:18:36",13,"Short","Social","Zero",4,"Chrome",4,"Same",0,"Novel130",2,"Novel130",2,6013,"silentRUshort",3,1,0,0,(Jul 15 2014 14:18:36),0,TRUE,FALSE,4,TRUE
"194","A1FA2AJUFESR5T","Jul 15 2014","14:18:36",14,"Short","Social","Zero",4,"Chrome",4,"Same",0,"Novel130",3,"Novel130",2,3361,"straightahead",-1,0,1,0,(Jul 15 2014 14:18:36),0,TRUE,FALSE,4,TRUE
"195","A1FA2AJUFESR5T","Jul 15 2014","14:18:36",15,"Short","Social","Zero",4,"Chrome",5,"Switch",1,"Novel3",3,"Novel42",0,2373,"silentRDshort",2,1,0,0,(Jul 15 2014 14:18:36),0,TRUE,FALSE,4,FALSE
"196","A1FA2AJUFESR5T","Jul 15 2014","14:18:36",16,"Short","Social","Zero",4,"Chrome",5,"Switch",1,"Novel42",0,"Novel42",0,52,"straightahead",-1,0,1,0,(Jul 15 2014 14:18:36),0,TRUE,FALSE,4,TRUE
"197","A1FA2AJUFESR5T","Jul 15 2014","14:18:36",17,"Short","Social","Zero",4,"Chrome",6,"Same",0,"Novel137",1,"Novel137",1,349,"silentLDshort",0,1,0,0,(Jul 15 2014 14:18:36),0,TRUE,FALSE,4,TRUE
"198","A1FA2AJUFESR5T","Jul 15 2014","14:18:36",18,"Short","Social","Zero",4,"Chrome",6,"Same",0,"Novel99",2,"Novel137",1,97,"straightahead",-1,0,1,0,(Jul 15 2014 14:18:36),0,TRUE,FALSE,4,FALSE
"199","A1FA2AJUFESR5T","Jul 15 2014","14:18:36",19,"Short","Social","Zero",4,"Chrome",7,"Switch",0,"Novel116",3,"Novel10",0,1274,"silentLDshort",0,1,0,0,(Jul 15 2014 14:18:36),0,TRUE,FALSE,4,FALSE
"200","A1FA2AJUFESR5T","Jul 15 2014","14:18:36",20,"Short","Social","Zero",4,"Chrome",7,"Switch",0,"Novel10",2,"Novel10",0,677,"straightahead",-1,0,1,0,(Jul 15 2014 14:18:36),0,TRUE,FALSE,4,TRUE
"201","A1GZ8BCV75J11T","Jul 15 2014","10:21:16",1,"Short","Social","Zero",4,"Chrome",0,"Same",1,"squirrel",0,"",0,6278,"straightahead",-1,0,0,1,(Jul 15 2014 10:21:16),0,TRUE,FALSE,4,FALSE
"202","A1GZ8BCV75J11T","Jul 15 2014","10:21:16",2,"Short","Social","Zero",4,"Chrome",0,"Same",1,"squirrel",0,"",0,1267,"straightahead",-1,0,0,1,(Jul 15 2014 10:21:16),0,TRUE,FALSE,4,FALSE
"203","A1GZ8BCV75J11T","Jul 15 2014","10:21:16",3,"Short","Social","Zero",4,"Chrome",0,"Same",1,"tomato",1,"",0,1191,"straightahead",-1,0,0,1,(Jul 15 2014 10:21:16),0,TRUE,FALSE,4,FALSE
"204","A1GZ8BCV75J11T","Jul 15 2014","10:21:16",4,"Short","Social","Zero",4,"Chrome",0,"Same",1,"tomato",2,"",0,1110,"straightahead",-1,0,0,1,(Jul 15 2014 10:21:16),0,TRUE,FALSE,4,FALSE
"205","A1GZ8BCV75J11T","Jul 15 2014","10:21:16",5,"Short","Social","Zero",4,"Chrome",0,"Same",1,"Novel127",2,"Novel127",2,706,"silentLDshort",0,1,0,0,(Jul 15 2014 10:21:16),0,TRUE,FALSE,4,TRUE
"206","A1GZ8BCV75J11T","Jul 15 2014","10:21:16",6,"Short","Social","Zero",4,"Chrome",0,"Same",1,"Novel127",2,"Novel127",2,32,"straightahead",-1,0,1,0,(Jul 15 2014 10:21:16),0,TRUE,TRUE,4,TRUE
"207","A1GZ8BCV75J11T","Jul 15 2014","10:21:16",7,"Short","Social","Zero",4,"Chrome",1,"Switch",1,"Novel102",0,"Novel57",1,734,"silentLUshort",1,1,0,0,(Jul 15 2014 10:21:16),0,TRUE,FALSE,4,FALSE
"208","A1GZ8BCV75J11T","Jul 15 2014","10:21:16",8,"Short","Social","Zero",4,"Chrome",1,"Switch",1,"Novel57",1,"Novel57",1,12,"straightahead",-1,0,1,0,(Jul 15 2014 10:21:16),0,TRUE,FALSE,4,TRUE
"209","A1GZ8BCV75J11T","Jul 15 2014","10:21:16",9,"Short","Social","Zero",4,"Chrome",2,"Same",0,"Novel92",0,"Novel92",0,315,"silentLUshort",1,1,0,0,(Jul 15 2014 10:21:16),0,TRUE,FALSE,4,TRUE
"210","A1GZ8BCV75J11T","Jul 15 2014","10:21:16",10,"Short","Social","Zero",4,"Chrome",2,"Same",0,"Novel92",1,"Novel92",0,157,"straightahead",-1,0,1,0,(Jul 15 2014 10:21:16),0,TRUE,FALSE,4,TRUE
"211","A1GZ8BCV75J11T","Jul 15 2014","10:21:16",11,"Short","Social","Zero",4,"Chrome",3,"Switch",1,"Novel119",1,"Novel125",0,5,"silentRUshort",3,1,0,0,(Jul 15 2014 10:21:16),0,TRUE,FALSE,4,FALSE
"212","A1GZ8BCV75J11T","Jul 15 2014","10:21:16",12,"Short","Social","Zero",4,"Chrome",3,"Switch",1,"Novel84",2,"Novel125",0,2943,"straightahead",-1,0,1,0,(Jul 15 2014 10:21:16),0,TRUE,FALSE,4,FALSE
"213","A1GZ8BCV75J11T","Jul 15 2014","10:21:16",13,"Short","Social","Zero",4,"Chrome",4,"Same",0,"Novel56",2,"Novel56",2,361,"silentLDshort",0,1,0,0,(Jul 15 2014 10:21:16),0,TRUE,FALSE,4,TRUE
"214","A1GZ8BCV75J11T","Jul 15 2014","10:21:16",14,"Short","Social","Zero",4,"Chrome",4,"Same",0,"Novel56",0,"Novel56",2,71,"straightahead",-1,0,1,0,(Jul 15 2014 10:21:16),0,TRUE,FALSE,4,TRUE
"215","A1GZ8BCV75J11T","Jul 15 2014","10:21:16",15,"Short","Social","Zero",4,"Chrome",5,"Switch",0,"Novel109",1,"Novel8",0,653,"silentRUshort",3,1,0,0,(Jul 15 2014 10:21:16),0,TRUE,FALSE,4,FALSE
"216","A1GZ8BCV75J11T","Jul 15 2014","10:21:16",16,"Short","Social","Zero",4,"Chrome",5,"Switch",0,"Novel112",3,"Novel8",0,3043,"straightahead",-1,0,1,0,(Jul 15 2014 10:21:16),0,TRUE,FALSE,4,FALSE
"217","A1GZ8BCV75J11T","Jul 15 2014","10:21:16",17,"Short","Social","Zero",4,"Chrome",6,"Same",1,"Novel28",3,"Novel28",3,591,"silentRDshort",2,1,0,0,(Jul 15 2014 10:21:16),0,TRUE,FALSE,4,TRUE
"218","A1GZ8BCV75J11T","Jul 15 2014","10:21:16",18,"Short","Social","Zero",4,"Chrome",6,"Same",1,"Novel28",3,"Novel28",3,730,"straightahead",-1,0,1,0,(Jul 15 2014 10:21:16),0,TRUE,FALSE,4,TRUE
"219","A1GZ8BCV75J11T","Jul 15 2014","10:21:16",19,"Short","Social","Zero",4,"Chrome",7,"Switch",0,"Novel121",0,"Novel122",1,317,"silentLUshort",1,1,0,0,(Jul 15 2014 10:21:16),0,TRUE,FALSE,4,FALSE
"220","A1GZ8BCV75J11T","Jul 15 2014","10:21:16",20,"Short","Social","Zero",4,"Chrome",7,"Switch",0,"Novel122",2,"Novel122",1,731,"straightahead",-1,0,1,0,(Jul 15 2014 10:21:16),0,TRUE,FALSE,4,TRUE
"221","A1HEQK6DW6EQIT","Jul 16 2014","07:15:51",1,"Short","No-social","Zero",4,"Chrome",0,"Same",1,"squirrel",0,"",0,1001,"straightahead",-1,0,0,1,(Jul 16 2014 07:15:51),0,TRUE,FALSE,4,FALSE
"222","A1HEQK6DW6EQIT","Jul 16 2014","07:15:51",2,"Short","No-social","Zero",4,"Chrome",0,"Same",1,"squirrel",0,"",0,755,"straightahead",-1,0,0,1,(Jul 16 2014 07:15:51),0,TRUE,FALSE,4,FALSE
"223","A1HEQK6DW6EQIT","Jul 16 2014","07:15:51",3,"Short","No-social","Zero",4,"Chrome",0,"Same",1,"tomato",1,"",0,678,"straightahead",-1,0,0,1,(Jul 16 2014 07:15:51),0,TRUE,FALSE,4,FALSE
"224","A1HEQK6DW6EQIT","Jul 16 2014","07:15:51",4,"Short","No-social","Zero",4,"Chrome",0,"Same",1,"tomato",2,"",0,597,"straightahead",-1,0,0,1,(Jul 16 2014 07:15:51),0,TRUE,FALSE,4,FALSE
"225","A1HEQK6DW6EQIT","Jul 16 2014","07:15:51",5,"Short","No-social","Zero",4,"Chrome",0,"Same",1,"Novel1",2,"Novel1",2,4895,"straightahead",-1,1,0,0,(Jul 16 2014 07:15:51),0,TRUE,FALSE,4,TRUE
"226","A1HEQK6DW6EQIT","Jul 16 2014","07:15:51",6,"Short","No-social","Zero",4,"Chrome",0,"Same",1,"Novel1",2,"Novel1",2,3828,"straightahead",-1,0,1,0,(Jul 16 2014 07:15:51),0,TRUE,TRUE,4,TRUE
"227","A1HEQK6DW6EQIT","Jul 16 2014","07:15:51",7,"Short","No-social","Zero",4,"Chrome",1,"Switch",1,"Novel29",3,"Novel63",0,804,"straightahead",-1,1,0,0,(Jul 16 2014 07:15:51),0,TRUE,FALSE,4,FALSE
"228","A1HEQK6DW6EQIT","Jul 16 2014","07:15:51",8,"Short","No-social","Zero",4,"Chrome",1,"Switch",1,"Novel58",1,"Novel63",0,9610,"straightahead",-1,0,1,0,(Jul 16 2014 07:15:51),0,TRUE,FALSE,4,FALSE
"229","A1HEQK6DW6EQIT","Jul 16 2014","07:15:51",9,"Short","No-social","Zero",4,"Chrome",2,"Same",0,"Novel28",0,"Novel28",0,4157,"straightahead",-1,1,0,0,(Jul 16 2014 07:15:51),0,TRUE,FALSE,4,TRUE
"230","A1HEQK6DW6EQIT","Jul 16 2014","07:15:51",10,"Short","No-social","Zero",4,"Chrome",2,"Same",0,"Novel28",1,"Novel28",0,339,"straightahead",-1,0,1,0,(Jul 16 2014 07:15:51),0,TRUE,FALSE,4,TRUE
"231","A1HEQK6DW6EQIT","Jul 16 2014","07:15:51",11,"Short","No-social","Zero",4,"Chrome",3,"Switch",0,"Novel13",3,"Novel89",2,9941,"straightahead",-1,1,0,0,(Jul 16 2014 07:15:51),0,TRUE,FALSE,4,FALSE
"232","A1HEQK6DW6EQIT","Jul 16 2014","07:15:51",12,"Short","No-social","Zero",4,"Chrome",3,"Switch",0,"Novel89",1,"Novel89",2,2470,"straightahead",-1,0,1,0,(Jul 16 2014 07:15:51),0,TRUE,FALSE,4,TRUE
"233","A1HEQK6DW6EQIT","Jul 16 2014","07:15:51",13,"Short","No-social","Zero",4,"Chrome",4,"Same",0,"Novel68",0,"Novel68",0,77,"straightahead",-1,1,0,0,(Jul 16 2014 07:15:51),0,TRUE,FALSE,4,TRUE
"234","A1HEQK6DW6EQIT","Jul 16 2014","07:15:51",14,"Short","No-social","Zero",4,"Chrome",4,"Same",0,"Novel68",1,"Novel68",0,125,"straightahead",-1,0,1,0,(Jul 16 2014 07:15:51),0,TRUE,FALSE,4,TRUE
"235","A1HEQK6DW6EQIT","Jul 16 2014","07:15:51",15,"Short","No-social","Zero",4,"Chrome",5,"Switch",1,"Novel110",2,"Novel115",1,1277,"straightahead",-1,1,0,0,(Jul 16 2014 07:15:51),0,TRUE,FALSE,4,FALSE
"236","A1HEQK6DW6EQIT","Jul 16 2014","07:15:51",16,"Short","No-social","Zero",4,"Chrome",5,"Switch",1,"Novel115",1,"Novel115",1,915,"straightahead",-1,0,1,0,(Jul 16 2014 07:15:51),0,TRUE,FALSE,4,TRUE
"237","A1HEQK6DW6EQIT","Jul 16 2014","07:15:51",17,"Short","No-social","Zero",4,"Chrome",6,"Same",1,"Novel69",1,"Novel69",1,1869,"straightahead",-1,1,0,0,(Jul 16 2014 07:15:51),0,TRUE,FALSE,4,TRUE
"238","A1HEQK6DW6EQIT","Jul 16 2014","07:15:51",18,"Short","No-social","Zero",4,"Chrome",6,"Same",1,"Novel69",1,"Novel69",1,151,"straightahead",-1,0,1,0,(Jul 16 2014 07:15:51),0,TRUE,FALSE,4,TRUE
"239","A1HEQK6DW6EQIT","Jul 16 2014","07:15:51",19,"Short","No-social","Zero",4,"Chrome",7,"Switch",0,"Novel8",1,"Novel122",3,151,"straightahead",-1,1,0,0,(Jul 16 2014 07:15:51),0,TRUE,FALSE,4,FALSE
"240","A1HEQK6DW6EQIT","Jul 16 2014","07:15:51",20,"Short","No-social","Zero",4,"Chrome",7,"Switch",0,"Novel122",0,"Novel122",3,1893,"straightahead",-1,0,1,0,(Jul 16 2014 07:15:51),0,TRUE,FALSE,4,TRUE
"241","A1HP506HGINWSV","Jul 15 2014","05:51:43",1,"Short","No-social","Zero",4,"Chrome",0,"Switch",1,"squirrel",0,"",0,1697,"straightahead",-1,0,0,1,(Jul 15 2014 05:51:43),0,TRUE,FALSE,4,FALSE
"242","A1HP506HGINWSV","Jul 15 2014","05:51:43",2,"Short","No-social","Zero",4,"Chrome",0,"Switch",1,"squirrel",0,"",0,41,"straightahead",-1,0,0,1,(Jul 15 2014 05:51:43),0,TRUE,FALSE,4,FALSE
"243","A1HP506HGINWSV","Jul 15 2014","05:51:43",3,"Short","No-social","Zero",4,"Chrome",0,"Switch",1,"tomato",1,"",0,273,"straightahead",-1,0,0,1,(Jul 15 2014 05:51:43),0,TRUE,FALSE,4,FALSE
"244","A1HP506HGINWSV","Jul 15 2014","05:51:43",4,"Short","No-social","Zero",4,"Chrome",0,"Switch",1,"tomato",2,"",0,790,"straightahead",-1,0,0,1,(Jul 15 2014 05:51:43),0,TRUE,FALSE,4,FALSE
"245","A1HP506HGINWSV","Jul 15 2014","05:51:43",5,"Short","No-social","Zero",4,"Chrome",0,"Switch",1,"Novel129",2,"Novel38",3,1351,"straightahead",-1,1,0,0,(Jul 15 2014 05:51:43),0,TRUE,FALSE,4,FALSE
"246","A1HP506HGINWSV","Jul 15 2014","05:51:43",6,"Short","No-social","Zero",4,"Chrome",0,"Switch",1,"Novel38",3,"Novel38",3,1561,"straightahead",-1,0,1,0,(Jul 15 2014 05:51:43),0,TRUE,TRUE,4,TRUE
"247","A1HP506HGINWSV","Jul 15 2014","05:51:43",7,"Short","No-social","Zero",4,"Chrome",1,"Same",0,"Novel112",0,"Novel112",0,1690,"straightahead",-1,1,0,0,(Jul 15 2014 05:51:43),0,TRUE,FALSE,4,TRUE
"248","A1HP506HGINWSV","Jul 15 2014","05:51:43",8,"Short","No-social","Zero",4,"Chrome",1,"Same",0,"Novel112",2,"Novel112",0,851,"straightahead",-1,0,1,0,(Jul 15 2014 05:51:43),0,TRUE,FALSE,4,TRUE
"249","A1HP506HGINWSV","Jul 15 2014","05:51:43",9,"Short","No-social","Zero",4,"Chrome",2,"Switch",0,"Novel137",2,"Novel58",3,806,"straightahead",-1,1,0,0,(Jul 15 2014 05:51:43),0,TRUE,FALSE,4,FALSE
"250","A1HP506HGINWSV","Jul 15 2014","05:51:43",10,"Short","No-social","Zero",4,"Chrome",2,"Switch",0,"Novel122",0,"Novel58",3,244,"straightahead",-1,0,1,0,(Jul 15 2014 05:51:43),0,TRUE,FALSE,4,FALSE
"251","A1HP506HGINWSV","Jul 15 2014","05:51:43",11,"Short","No-social","Zero",4,"Chrome",3,"Same",1,"Novel37",1,"Novel37",1,1317,"straightahead",-1,1,0,0,(Jul 15 2014 05:51:43),0,TRUE,FALSE,4,TRUE
"252","A1HP506HGINWSV","Jul 15 2014","05:51:43",12,"Short","No-social","Zero",4,"Chrome",3,"Same",1,"Novel37",1,"Novel37",1,1025,"straightahead",-1,0,1,0,(Jul 15 2014 05:51:43),0,TRUE,FALSE,4,TRUE
"253","A1HP506HGINWSV","Jul 15 2014","05:51:43",13,"Short","No-social","Zero",4,"Chrome",4,"Switch",0,"Novel15",3,"Novel13",1,444,"straightahead",-1,1,0,0,(Jul 15 2014 05:51:43),0,TRUE,FALSE,4,FALSE
"254","A1HP506HGINWSV","Jul 15 2014","05:51:43",14,"Short","No-social","Zero",4,"Chrome",4,"Switch",0,"Novel9",0,"Novel13",1,233,"straightahead",-1,0,1,0,(Jul 15 2014 05:51:43),0,TRUE,FALSE,4,FALSE
"255","A1HP506HGINWSV","Jul 15 2014","05:51:43",15,"Short","No-social","Zero",4,"Chrome",5,"Same",0,"Novel102",1,"Novel102",1,738,"straightahead",-1,1,0,0,(Jul 15 2014 05:51:43),0,TRUE,FALSE,4,TRUE
"256","A1HP506HGINWSV","Jul 15 2014","05:51:43",16,"Short","No-social","Zero",4,"Chrome",5,"Same",0,"Novel102",3,"Novel102",1,851,"straightahead",-1,0,1,0,(Jul 15 2014 05:51:43),0,TRUE,FALSE,4,TRUE
"257","A1HP506HGINWSV","Jul 15 2014","05:51:43",17,"Short","No-social","Zero",4,"Chrome",6,"Switch",1,"Novel76",0,"Novel1",2,774,"straightahead",-1,1,0,0,(Jul 15 2014 05:51:43),0,TRUE,FALSE,4,FALSE
"258","A1HP506HGINWSV","Jul 15 2014","05:51:43",18,"Short","No-social","Zero",4,"Chrome",6,"Switch",1,"Novel123",1,"Novel1",2,95,"straightahead",-1,0,1,0,(Jul 15 2014 05:51:43),0,TRUE,FALSE,4,FALSE
"259","A1HP506HGINWSV","Jul 15 2014","05:51:43",19,"Short","No-social","Zero",4,"Chrome",7,"Same",1,"Novel128",3,"Novel128",3,4889,"straightahead",-1,1,0,0,(Jul 15 2014 05:51:43),0,TRUE,FALSE,4,TRUE
"260","A1HP506HGINWSV","Jul 15 2014","05:51:43",20,"Short","No-social","Zero",4,"Chrome",7,"Same",1,"Novel128",3,"Novel128",3,263,"straightahead",-1,0,1,0,(Jul 15 2014 05:51:43),0,TRUE,FALSE,4,TRUE
"261","A1INTE02JKRMQ7","Jul 15 2014","09:00:16",1,"Short","No-social","Zero",4,"Chrome",0,"Switch",0,"squirrel",0,"",0,527,"straightahead",-1,0,0,1,(Jul 15 2014 09:00:16),0,TRUE,FALSE,4,FALSE
"262","A1INTE02JKRMQ7","Jul 15 2014","09:00:16",2,"Short","No-social","Zero",4,"Chrome",0,"Switch",0,"squirrel",0,"",0,6518,"straightahead",-1,0,0,1,(Jul 15 2014 09:00:16),0,TRUE,FALSE,4,FALSE
"263","A1INTE02JKRMQ7","Jul 15 2014","09:00:16",3,"Short","No-social","Zero",4,"Chrome",0,"Switch",0,"tomato",1,"",0,1060,"straightahead",-1,0,0,1,(Jul 15 2014 09:00:16),0,TRUE,FALSE,4,FALSE
"264","A1INTE02JKRMQ7","Jul 15 2014","09:00:16",4,"Short","No-social","Zero",4,"Chrome",0,"Switch",0,"tomato",2,"",0,1413,"straightahead",-1,0,0,1,(Jul 15 2014 09:00:16),0,TRUE,FALSE,4,FALSE
"265","A1INTE02JKRMQ7","Jul 15 2014","09:00:16",5,"Short","No-social","Zero",4,"Chrome",0,"Switch",0,"Novel28",1,"Novel20",0,4185,"straightahead",-1,1,0,0,(Jul 15 2014 09:00:16),0,TRUE,FALSE,4,FALSE
"266","A1INTE02JKRMQ7","Jul 15 2014","09:00:16",6,"Short","No-social","Zero",4,"Chrome",0,"Switch",0,"Novel121",0,"Novel20",0,5103,"straightahead",-1,0,1,0,(Jul 15 2014 09:00:16),0,TRUE,TRUE,4,FALSE
"267","A1INTE02JKRMQ7","Jul 15 2014","09:00:16",7,"Short","No-social","Zero",4,"Chrome",1,"Same",0,"Novel48",3,"Novel48",3,3692,"straightahead",-1,1,0,0,(Jul 15 2014 09:00:16),0,TRUE,FALSE,4,TRUE
"268","A1INTE02JKRMQ7","Jul 15 2014","09:00:16",8,"Short","No-social","Zero",4,"Chrome",1,"Same",0,"Novel48",1,"Novel48",3,1349,"straightahead",-1,0,1,0,(Jul 15 2014 09:00:16),0,TRUE,FALSE,4,TRUE
"269","A1INTE02JKRMQ7","Jul 15 2014","09:00:16",9,"Short","No-social","Zero",4,"Chrome",2,"Switch",1,"Novel118",3,"Novel85",0,1886,"straightahead",-1,1,0,0,(Jul 15 2014 09:00:16),0,TRUE,FALSE,4,FALSE
"270","A1INTE02JKRMQ7","Jul 15 2014","09:00:16",10,"Short","No-social","Zero",4,"Chrome",2,"Switch",1,"Novel44",1,"Novel85",0,2555,"straightahead",-1,0,1,0,(Jul 15 2014 09:00:16),0,TRUE,FALSE,4,FALSE
"271","A1INTE02JKRMQ7","Jul 15 2014","09:00:16",11,"Short","No-social","Zero",4,"Chrome",3,"Same",1,"Novel24",0,"Novel24",0,2861,"straightahead",-1,1,0,0,(Jul 15 2014 09:00:16),0,TRUE,FALSE,4,TRUE
"272","A1INTE02JKRMQ7","Jul 15 2014","09:00:16",12,"Short","No-social","Zero",4,"Chrome",3,"Same",1,"Novel24",0,"Novel24",0,1329,"straightahead",-1,0,1,0,(Jul 15 2014 09:00:16),0,TRUE,FALSE,4,TRUE
"273","A1INTE02JKRMQ7","Jul 15 2014","09:00:16",13,"Short","No-social","Zero",4,"Chrome",4,"Switch",1,"Novel82",3,"Novel27",2,2004,"straightahead",-1,1,0,0,(Jul 15 2014 09:00:16),0,TRUE,FALSE,4,FALSE
"274","A1INTE02JKRMQ7","Jul 15 2014","09:00:16",14,"Short","No-social","Zero",4,"Chrome",4,"Switch",1,"Novel97",0,"Novel27",2,3277,"straightahead",-1,0,1,0,(Jul 15 2014 09:00:16),0,TRUE,FALSE,4,FALSE
"275","A1INTE02JKRMQ7","Jul 15 2014","09:00:16",15,"Short","No-social","Zero",4,"Chrome",5,"Same",1,"Novel61",0,"Novel61",0,1082,"straightahead",-1,1,0,0,(Jul 15 2014 09:00:16),0,TRUE,FALSE,4,TRUE
"276","A1INTE02JKRMQ7","Jul 15 2014","09:00:16",16,"Short","No-social","Zero",4,"Chrome",5,"Same",1,"Novel61",0,"Novel61",0,412,"straightahead",-1,0,1,0,(Jul 15 2014 09:00:16),0,TRUE,FALSE,4,TRUE
"277","A1INTE02JKRMQ7","Jul 15 2014","09:00:16",17,"Short","No-social","Zero",4,"Chrome",6,"Switch",0,"Novel88",1,"Novel34",0,3227,"straightahead",-1,1,0,0,(Jul 15 2014 09:00:16),0,TRUE,FALSE,4,FALSE
"278","A1INTE02JKRMQ7","Jul 15 2014","09:00:16",18,"Short","No-social","Zero",4,"Chrome",6,"Switch",0,"Novel34",3,"Novel34",0,875,"straightahead",-1,0,1,0,(Jul 15 2014 09:00:16),0,TRUE,FALSE,4,TRUE
"279","A1INTE02JKRMQ7","Jul 15 2014","09:00:16",19,"Short","No-social","Zero",4,"Chrome",7,"Same",0,"Novel74",0,"Novel74",0,3051,"straightahead",-1,1,0,0,(Jul 15 2014 09:00:16),0,TRUE,FALSE,4,TRUE
"280","A1INTE02JKRMQ7","Jul 15 2014","09:00:16",20,"Short","No-social","Zero",4,"Chrome",7,"Same",0,"Novel74",2,"Novel74",0,1165,"straightahead",-1,0,1,0,(Jul 15 2014 09:00:16),0,TRUE,FALSE,4,TRUE
"281","A1J2SF4IQEQ5OP","Jul 15 2014","19:24:12",1,"Short","Social","Zero",4,"Chrome",0,"Switch",1,"squirrel",0,"",0,133,"straightahead",-1,0,0,1,(Jul 15 2014 19:24:12),0,TRUE,FALSE,4,FALSE
"282","A1J2SF4IQEQ5OP","Jul 15 2014","19:24:12",2,"Short","Social","Zero",4,"Chrome",0,"Switch",1,"squirrel",0,"",0,819,"straightahead",-1,0,0,1,(Jul 15 2014 19:24:12),0,TRUE,FALSE,4,FALSE
"283","A1J2SF4IQEQ5OP","Jul 15 2014","19:24:12",3,"Short","Social","Zero",4,"Chrome",0,"Switch",1,"tomato",1,"",0,64,"straightahead",-1,0,0,1,(Jul 15 2014 19:24:12),0,TRUE,FALSE,4,FALSE
"284","A1J2SF4IQEQ5OP","Jul 15 2014","19:24:12",4,"Short","Social","Zero",4,"Chrome",0,"Switch",1,"tomato",2,"",0,681,"straightahead",-1,0,0,1,(Jul 15 2014 19:24:12),0,TRUE,FALSE,4,FALSE
"285","A1J2SF4IQEQ5OP","Jul 15 2014","19:24:12",5,"Short","Social","Zero",4,"Chrome",0,"Switch",1,"Novel43",2,"Novel120",1,183,"silentLDshort",0,1,0,0,(Jul 15 2014 19:24:12),0,TRUE,FALSE,4,FALSE
"286","A1J2SF4IQEQ5OP","Jul 15 2014","19:24:12",6,"Short","Social","Zero",4,"Chrome",0,"Switch",1,"Novel72",0,"Novel120",1,4816,"straightahead",-1,0,1,0,(Jul 15 2014 19:24:12),0,TRUE,TRUE,4,FALSE
"287","A1J2SF4IQEQ5OP","Jul 15 2014","19:24:12",7,"Short","Social","Zero",4,"Chrome",1,"Same",0,"Novel59",0,"Novel59",0,426,"silentLUshort",1,1,0,0,(Jul 15 2014 19:24:12),0,TRUE,FALSE,4,TRUE
"288","A1J2SF4IQEQ5OP","Jul 15 2014","19:24:12",8,"Short","Social","Zero",4,"Chrome",1,"Same",0,"Novel59",2,"Novel59",0,101,"straightahead",-1,0,1,0,(Jul 15 2014 19:24:12),0,TRUE,FALSE,4,TRUE
"289","A1J2SF4IQEQ5OP","Jul 15 2014","19:24:12",9,"Short","Social","Zero",4,"Chrome",2,"Switch",0,"Novel95",1,"Novel46",2,136,"silentRUshort",3,1,0,0,(Jul 15 2014 19:24:12),0,TRUE,FALSE,4,FALSE
"290","A1J2SF4IQEQ5OP","Jul 15 2014","19:24:12",10,"Short","Social","Zero",4,"Chrome",2,"Switch",0,"Novel102",2,"Novel46",2,1784,"straightahead",-1,0,1,0,(Jul 15 2014 19:24:12),0,TRUE,FALSE,4,FALSE
"291","A1J2SF4IQEQ5OP","Jul 15 2014","19:24:12",11,"Short","Social","Zero",4,"Chrome",3,"Same",0,"Novel33",3,"Novel33",3,381,"silentRDshort",2,1,0,0,(Jul 15 2014 19:24:12),0,TRUE,FALSE,4,TRUE
"292","A1J2SF4IQEQ5OP","Jul 15 2014","19:24:12",12,"Short","Social","Zero",4,"Chrome",3,"Same",0,"Novel33",1,"Novel33",3,434,"straightahead",-1,0,1,0,(Jul 15 2014 19:24:12),0,TRUE,FALSE,4,TRUE
"293","A1J2SF4IQEQ5OP","Jul 15 2014","19:24:12",13,"Short","Social","Zero",4,"Chrome",4,"Switch",0,"Novel131",1,"Novel7",3,205,"silentRUshort",3,1,0,0,(Jul 15 2014 19:24:12),0,TRUE,FALSE,4,FALSE
"294","A1J2SF4IQEQ5OP","Jul 15 2014","19:24:12",14,"Short","Social","Zero",4,"Chrome",4,"Switch",0,"Novel7",1,"Novel7",3,197,"straightahead",-1,0,1,0,(Jul 15 2014 19:24:12),0,TRUE,FALSE,4,TRUE
"295","A1J2SF4IQEQ5OP","Jul 15 2014","19:24:12",15,"Short","Social","Zero",4,"Chrome",5,"Same",1,"Novel139",3,"Novel139",3,223,"silentRDshort",2,1,0,0,(Jul 15 2014 19:24:12),0,TRUE,FALSE,4,TRUE
"296","A1J2SF4IQEQ5OP","Jul 15 2014","19:24:12",16,"Short","Social","Zero",4,"Chrome",5,"Same",1,"Novel139",3,"Novel139",3,322,"straightahead",-1,0,1,0,(Jul 15 2014 19:24:12),0,TRUE,FALSE,4,TRUE
"297","A1J2SF4IQEQ5OP","Jul 15 2014","19:24:12",17,"Short","Social","Zero",4,"Chrome",6,"Switch",1,"Novel138",0,"Novel113",3,286,"silentLUshort",1,1,0,0,(Jul 15 2014 19:24:12),0,TRUE,FALSE,4,FALSE
"298","A1J2SF4IQEQ5OP","Jul 15 2014","19:24:12",18,"Short","Social","Zero",4,"Chrome",6,"Switch",1,"Novel44",2,"Novel113",3,610,"straightahead",-1,0,1,0,(Jul 15 2014 19:24:12),0,TRUE,FALSE,4,FALSE
"299","A1J2SF4IQEQ5OP","Jul 15 2014","19:24:12",19,"Short","Social","Zero",4,"Chrome",7,"Same",1,"Novel58",2,"Novel58",2,65,"silentLDshort",0,1,0,0,(Jul 15 2014 19:24:12),0,TRUE,FALSE,4,TRUE
"300","A1J2SF4IQEQ5OP","Jul 15 2014","19:24:12",20,"Short","Social","Zero",4,"Chrome",7,"Same",1,"Novel58",2,"Novel58",2,24,"straightahead",-1,0,1,0,(Jul 15 2014 19:24:12),0,TRUE,FALSE,4,TRUE
"301","A1OD9OA9B34FL","Jul 16 2014","04:30:16",1,"Short","Social","Zero",4,"Safari",0,"Same",1,"squirrel",0,"",0,1310,"straightahead",-1,0,0,1,(Jul 16 2014 04:30:16),0,TRUE,FALSE,4,FALSE
"302","A1OD9OA9B34FL","Jul 16 2014","04:30:16",2,"Short","Social","Zero",4,"Safari",0,"Same",1,"squirrel",0,"",0,798,"straightahead",-1,0,0,1,(Jul 16 2014 04:30:16),0,TRUE,FALSE,4,FALSE
"303","A1OD9OA9B34FL","Jul 16 2014","04:30:16",3,"Short","Social","Zero",4,"Safari",0,"Same",1,"tomato",1,"",0,2541,"straightahead",-1,0,0,1,(Jul 16 2014 04:30:16),0,TRUE,FALSE,4,FALSE
"304","A1OD9OA9B34FL","Jul 16 2014","04:30:16",4,"Short","Social","Zero",4,"Safari",0,"Same",1,"tomato",2,"",0,2702,"straightahead",-1,0,0,1,(Jul 16 2014 04:30:16),0,TRUE,FALSE,4,FALSE
"305","A1OD9OA9B34FL","Jul 16 2014","04:30:16",5,"Short","Social","Zero",4,"Safari",0,"Same",1,"Novel20",3,"Novel20",3,3288,"silentRDshort",2,1,0,0,(Jul 16 2014 04:30:16),0,TRUE,FALSE,4,TRUE
"306","A1OD9OA9B34FL","Jul 16 2014","04:30:16",6,"Short","Social","Zero",4,"Safari",0,"Same",1,"Novel20",3,"Novel20",3,1114,"straightahead",-1,0,1,0,(Jul 16 2014 04:30:16),0,TRUE,TRUE,4,TRUE
"307","A1OD9OA9B34FL","Jul 16 2014","04:30:16",7,"Short","Social","Zero",4,"Safari",1,"Switch",0,"Novel132",1,"Novel91",0,406,"silentRUshort",3,1,0,0,(Jul 16 2014 04:30:16),0,TRUE,FALSE,4,FALSE
"308","A1OD9OA9B34FL","Jul 16 2014","04:30:16",8,"Short","Social","Zero",4,"Safari",1,"Switch",0,"Novel63",2,"Novel91",0,2922,"straightahead",-1,0,1,0,(Jul 16 2014 04:30:16),0,TRUE,FALSE,4,FALSE
"309","A1OD9OA9B34FL","Jul 16 2014","04:30:16",9,"Short","Social","Zero",4,"Safari",2,"Same",1,"Novel103",2,"Novel103",2,2065,"silentLDshort",0,1,0,0,(Jul 16 2014 04:30:16),0,TRUE,FALSE,4,TRUE
"310","A1OD9OA9B34FL","Jul 16 2014","04:30:16",10,"Short","Social","Zero",4,"Safari",2,"Same",1,"Novel103",2,"Novel103",2,10,"straightahead",-1,0,1,0,(Jul 16 2014 04:30:16),0,TRUE,FALSE,4,TRUE
"311","A1OD9OA9B34FL","Jul 16 2014","04:30:16",11,"Short","Social","Zero",4,"Safari",3,"Switch",1,"Novel6",0,"Novel126",3,410,"silentLUshort",1,1,0,0,(Jul 16 2014 04:30:16),0,TRUE,FALSE,4,FALSE
"312","A1OD9OA9B34FL","Jul 16 2014","04:30:16",12,"Short","Social","Zero",4,"Safari",3,"Switch",1,"Novel2",0,"Novel126",3,3927,"straightahead",-1,0,1,0,(Jul 16 2014 04:30:16),0,TRUE,FALSE,4,FALSE
"313","A1OD9OA9B34FL","Jul 16 2014","04:30:16",13,"Short","Social","Zero",4,"Safari",4,"Same",0,"Novel8",2,"Novel8",2,2859,"silentLDshort",0,1,0,0,(Jul 16 2014 04:30:16),0,TRUE,FALSE,4,TRUE
"314","A1OD9OA9B34FL","Jul 16 2014","04:30:16",14,"Short","Social","Zero",4,"Safari",4,"Same",0,"Novel8",0,"Novel8",2,5226,"straightahead",-1,0,1,0,(Jul 16 2014 04:30:16),0,TRUE,FALSE,4,TRUE
"315","A1OD9OA9B34FL","Jul 16 2014","04:30:16",15,"Short","Social","Zero",4,"Safari",5,"Switch",0,"Novel43",1,"Novel71",2,2929,"silentRUshort",3,1,0,0,(Jul 16 2014 04:30:16),0,TRUE,FALSE,4,FALSE
"316","A1OD9OA9B34FL","Jul 16 2014","04:30:16",16,"Short","Social","Zero",4,"Safari",5,"Switch",0,"Novel71",1,"Novel71",2,5727,"straightahead",-1,0,1,0,(Jul 16 2014 04:30:16),0,TRUE,FALSE,4,TRUE
"317","A1OD9OA9B34FL","Jul 16 2014","04:30:16",17,"Short","Social","Zero",4,"Safari",6,"Same",0,"Novel116",0,"Novel116",0,4246,"silentLUshort",1,1,0,0,(Jul 16 2014 04:30:16),0,TRUE,FALSE,4,TRUE
"318","A1OD9OA9B34FL","Jul 16 2014","04:30:16",18,"Short","Social","Zero",4,"Safari",6,"Same",0,"Novel116",3,"Novel116",0,4445,"straightahead",-1,0,1,0,(Jul 16 2014 04:30:16),0,TRUE,FALSE,4,TRUE
"319","A1OD9OA9B34FL","Jul 16 2014","04:30:16",19,"Short","Social","Zero",4,"Safari",7,"Switch",1,"Novel3",2,"Novel135",0,3988,"silentLDshort",0,1,0,0,(Jul 16 2014 04:30:16),0,TRUE,FALSE,4,FALSE
"320","A1OD9OA9B34FL","Jul 16 2014","04:30:16",20,"Short","Social","Zero",4,"Safari",7,"Switch",1,"Novel135",0,"Novel135",0,93,"straightahead",-1,0,1,0,(Jul 16 2014 04:30:16),0,TRUE,FALSE,4,TRUE
"321","A1OJ3UBSRZWVQ9","Jul 15 2014","17:24:18",1,"Short","Social","Zero",4,"Chrome",0,"Switch",0,"squirrel",0,"",0,1251,"straightahead",-1,0,0,1,(Jul 15 2014 17:24:18),0,TRUE,FALSE,4,FALSE
"322","A1OJ3UBSRZWVQ9","Jul 15 2014","17:24:18",2,"Short","Social","Zero",4,"Chrome",0,"Switch",0,"squirrel",0,"",0,328,"straightahead",-1,0,0,1,(Jul 15 2014 17:24:18),0,TRUE,FALSE,4,FALSE
"323","A1OJ3UBSRZWVQ9","Jul 15 2014","17:24:18",3,"Short","Social","Zero",4,"Chrome",0,"Switch",0,"tomato",1,"",0,127,"straightahead",-1,0,0,1,(Jul 15 2014 17:24:18),0,TRUE,FALSE,4,FALSE
"324","A1OJ3UBSRZWVQ9","Jul 15 2014","17:24:18",4,"Short","Social","Zero",4,"Chrome",0,"Switch",0,"tomato",2,"",0,100,"straightahead",-1,0,0,1,(Jul 15 2014 17:24:18),0,TRUE,FALSE,4,FALSE
"325","A1OJ3UBSRZWVQ9","Jul 15 2014","17:24:18",5,"Short","Social","Zero",4,"Chrome",0,"Switch",0,"Novel110",3,"Novel56",1,1113,"silentRDshort",2,1,0,0,(Jul 15 2014 17:24:18),0,TRUE,FALSE,4,FALSE
"326","A1OJ3UBSRZWVQ9","Jul 15 2014","17:24:18",6,"Short","Social","Zero",4,"Chrome",0,"Switch",0,"Novel73",3,"Novel56",1,2957,"straightahead",-1,0,1,0,(Jul 15 2014 17:24:18),0,TRUE,TRUE,4,FALSE
"327","A1OJ3UBSRZWVQ9","Jul 15 2014","17:24:18",7,"Short","Social","Zero",4,"Chrome",1,"Same",1,"Novel20",3,"Novel20",3,194,"silentRDshort",2,1,0,0,(Jul 15 2014 17:24:18),0,TRUE,FALSE,4,TRUE
"328","A1OJ3UBSRZWVQ9","Jul 15 2014","17:24:18",8,"Short","Social","Zero",4,"Chrome",1,"Same",1,"Novel20",3,"Novel20",3,119,"straightahead",-1,0,1,0,(Jul 15 2014 17:24:18),0,TRUE,FALSE,4,TRUE
"329","A1OJ3UBSRZWVQ9","Jul 15 2014","17:24:18",9,"Short","Social","Zero",4,"Chrome",2,"Switch",1,"Novel78",3,"Novel18",1,225,"silentRDshort",2,1,0,0,(Jul 15 2014 17:24:18),0,TRUE,FALSE,4,FALSE
"330","A1OJ3UBSRZWVQ9","Jul 15 2014","17:24:18",10,"Short","Social","Zero",4,"Chrome",2,"Switch",1,"Novel115",0,"Novel18",1,1853,"straightahead",-1,0,1,0,(Jul 15 2014 17:24:18),0,TRUE,FALSE,4,FALSE
"331","A1OJ3UBSRZWVQ9","Jul 15 2014","17:24:18",11,"Short","Social","Zero",4,"Chrome",3,"Same",0,"Novel76",0,"Novel76",0,251,"silentLUshort",1,1,0,0,(Jul 15 2014 17:24:18),0,TRUE,FALSE,4,TRUE
"332","A1OJ3UBSRZWVQ9","Jul 15 2014","17:24:18",12,"Short","Social","Zero",4,"Chrome",3,"Same",0,"Novel76",3,"Novel76",0,273,"straightahead",-1,0,1,0,(Jul 15 2014 17:24:18),0,TRUE,FALSE,4,TRUE
"333","A1OJ3UBSRZWVQ9","Jul 15 2014","17:24:18",13,"Short","Social","Zero",4,"Chrome",4,"Switch",0,"Novel42",1,"Novel59",2,263,"silentRUshort",3,1,0,0,(Jul 15 2014 17:24:18),0,TRUE,FALSE,4,FALSE
"334","A1OJ3UBSRZWVQ9","Jul 15 2014","17:24:18",14,"Short","Social","Zero",4,"Chrome",4,"Switch",0,"Novel82",3,"Novel59",2,33,"straightahead",-1,0,1,0,(Jul 15 2014 17:24:18),0,TRUE,FALSE,4,FALSE
"335","A1OJ3UBSRZWVQ9","Jul 15 2014","17:24:18",15,"Short","Social","Zero",4,"Chrome",5,"Same",1,"Novel130",3,"Novel130",3,129,"silentRDshort",2,1,0,0,(Jul 15 2014 17:24:18),0,TRUE,FALSE,4,TRUE
"336","A1OJ3UBSRZWVQ9","Jul 15 2014","17:24:18",16,"Short","Social","Zero",4,"Chrome",5,"Same",1,"Novel130",3,"Novel130",3,171,"straightahead",-1,0,1,0,(Jul 15 2014 17:24:18),0,TRUE,FALSE,4,TRUE
"337","A1OJ3UBSRZWVQ9","Jul 15 2014","17:24:18",17,"Short","Social","Zero",4,"Chrome",6,"Switch",1,"Novel55",2,"Novel83",1,180,"silentLDshort",0,1,0,0,(Jul 15 2014 17:24:18),0,TRUE,FALSE,4,FALSE
"338","A1OJ3UBSRZWVQ9","Jul 15 2014","17:24:18",18,"Short","Social","Zero",4,"Chrome",6,"Switch",1,"Novel83",1,"Novel83",1,79,"straightahead",-1,0,1,0,(Jul 15 2014 17:24:18),0,TRUE,FALSE,4,TRUE
"339","A1OJ3UBSRZWVQ9","Jul 15 2014","17:24:18",19,"Short","Social","Zero",4,"Chrome",7,"Same",0,"Novel70",2,"Novel70",2,112,"silentLDshort",0,1,0,0,(Jul 15 2014 17:24:18),0,TRUE,FALSE,4,TRUE
"340","A1OJ3UBSRZWVQ9","Jul 15 2014","17:24:18",20,"Short","Social","Zero",4,"Chrome",7,"Same",0,"Novel70",1,"Novel70",2,61,"straightahead",-1,0,1,0,(Jul 15 2014 17:24:18),0,TRUE,FALSE,4,TRUE
"341","A1QZXUONOI6YH1","Jul 15 2014","17:31:40",1,"Short","No-social","Zero",4,"Chrome",0,"Same",0,"squirrel",0,"",0,3445,"straightahead",-1,0,0,1,(Jul 15 2014 17:31:40),0,TRUE,FALSE,4,FALSE
"342","A1QZXUONOI6YH1","Jul 15 2014","17:31:40",2,"Short","No-social","Zero",4,"Chrome",0,"Same",0,"squirrel",0,"",0,173,"straightahead",-1,0,0,1,(Jul 15 2014 17:31:40),0,TRUE,FALSE,4,FALSE
"343","A1QZXUONOI6YH1","Jul 15 2014","17:31:40",3,"Short","No-social","Zero",4,"Chrome",0,"Same",0,"tomato",1,"",0,1110,"straightahead",-1,0,0,1,(Jul 15 2014 17:31:40),0,TRUE,FALSE,4,FALSE
"344","A1QZXUONOI6YH1","Jul 15 2014","17:31:40",4,"Short","No-social","Zero",4,"Chrome",0,"Same",0,"tomato",2,"",0,275,"straightahead",-1,0,0,1,(Jul 15 2014 17:31:40),0,TRUE,FALSE,4,FALSE
"345","A1QZXUONOI6YH1","Jul 15 2014","17:31:40",5,"Short","No-social","Zero",4,"Chrome",0,"Same",0,"Novel130",2,"Novel130",2,1038,"straightahead",-1,1,0,0,(Jul 15 2014 17:31:40),0,TRUE,FALSE,4,TRUE
"346","A1QZXUONOI6YH1","Jul 15 2014","17:31:40",6,"Short","No-social","Zero",4,"Chrome",0,"Same",0,"Novel130",0,"Novel130",2,1387,"straightahead",-1,0,1,0,(Jul 15 2014 17:31:40),0,TRUE,TRUE,4,TRUE
"347","A1QZXUONOI6YH1","Jul 15 2014","17:31:40",7,"Short","No-social","Zero",4,"Chrome",1,"Switch",1,"Novel66",2,"Novel139",0,626,"straightahead",-1,1,0,0,(Jul 15 2014 17:31:40),0,TRUE,FALSE,4,FALSE
"348","A1QZXUONOI6YH1","Jul 15 2014","17:31:40",8,"Short","No-social","Zero",4,"Chrome",1,"Switch",1,"Novel111",3,"Novel139",0,324,"straightahead",-1,0,1,0,(Jul 15 2014 17:31:40),0,TRUE,FALSE,4,FALSE
"349","A1QZXUONOI6YH1","Jul 15 2014","17:31:40",9,"Short","No-social","Zero",4,"Chrome",2,"Same",1,"Novel10",0,"Novel10",0,1078,"straightahead",-1,1,0,0,(Jul 15 2014 17:31:40),0,TRUE,FALSE,4,TRUE
"350","A1QZXUONOI6YH1","Jul 15 2014","17:31:40",10,"Short","No-social","Zero",4,"Chrome",2,"Same",1,"Novel131",1,"Novel10",0,1002,"straightahead",-1,0,1,0,(Jul 15 2014 17:31:40),0,TRUE,FALSE,4,FALSE
"351","A1QZXUONOI6YH1","Jul 15 2014","17:31:40",11,"Short","No-social","Zero",4,"Chrome",3,"Switch",1,"Novel134",0,"Novel14",2,1707,"straightahead",-1,1,0,0,(Jul 15 2014 17:31:40),0,TRUE,FALSE,4,FALSE
"352","A1QZXUONOI6YH1","Jul 15 2014","17:31:40",12,"Short","No-social","Zero",4,"Chrome",3,"Switch",1,"Novel14",2,"Novel14",2,436,"straightahead",-1,0,1,0,(Jul 15 2014 17:31:40),0,TRUE,FALSE,4,TRUE
"353","A1QZXUONOI6YH1","Jul 15 2014","17:31:40",13,"Short","No-social","Zero",4,"Chrome",4,"Same",1,"Novel117",1,"Novel117",1,1173,"straightahead",-1,1,0,0,(Jul 15 2014 17:31:40),0,TRUE,FALSE,4,TRUE
"354","A1QZXUONOI6YH1","Jul 15 2014","17:31:40",14,"Short","No-social","Zero",4,"Chrome",4,"Same",1,"Novel117",1,"Novel117",1,827,"straightahead",-1,0,1,0,(Jul 15 2014 17:31:40),0,TRUE,FALSE,4,TRUE
"355","A1QZXUONOI6YH1","Jul 15 2014","17:31:40",15,"Short","No-social","Zero",4,"Chrome",5,"Switch",0,"Novel129",2,"Novel113",3,3348,"straightahead",-1,1,0,0,(Jul 15 2014 17:31:40),0,TRUE,FALSE,4,FALSE
"356","A1QZXUONOI6YH1","Jul 15 2014","17:31:40",16,"Short","No-social","Zero",4,"Chrome",5,"Switch",0,"Novel113",0,"Novel113",3,861,"straightahead",-1,0,1,0,(Jul 15 2014 17:31:40),0,TRUE,FALSE,4,TRUE
"357","A1QZXUONOI6YH1","Jul 15 2014","17:31:40",17,"Short","No-social","Zero",4,"Chrome",6,"Same",0,"Novel33",3,"Novel33",3,115,"straightahead",-1,1,0,0,(Jul 15 2014 17:31:40),0,TRUE,FALSE,4,TRUE
"358","A1QZXUONOI6YH1","Jul 15 2014","17:31:40",18,"Short","No-social","Zero",4,"Chrome",6,"Same",0,"Novel33",2,"Novel33",3,1055,"straightahead",-1,0,1,0,(Jul 15 2014 17:31:40),0,TRUE,FALSE,4,TRUE
"359","A1QZXUONOI6YH1","Jul 15 2014","17:31:40",19,"Short","No-social","Zero",4,"Chrome",7,"Switch",0,"Novel78",1,"Novel19",3,1002,"straightahead",-1,1,0,0,(Jul 15 2014 17:31:40),0,TRUE,FALSE,4,FALSE
"360","A1QZXUONOI6YH1","Jul 15 2014","17:31:40",20,"Short","No-social","Zero",4,"Chrome",7,"Switch",0,"Novel76",3,"Novel19",3,228,"straightahead",-1,0,1,0,(Jul 15 2014 17:31:40),0,TRUE,FALSE,4,FALSE
"361","A1SV84ZUAQK3K0","Jul 16 2014","00:52:27",1,"Short","No-social","Zero",4,"Safari",0,"Same",1,"squirrel",0,"",0,3141,"straightahead",-1,0,0,1,(Jul 16 2014 00:52:27),0,TRUE,FALSE,4,FALSE
"362","A1SV84ZUAQK3K0","Jul 16 2014","00:52:27",2,"Short","No-social","Zero",4,"Safari",0,"Same",1,"squirrel",0,"",0,121,"straightahead",-1,0,0,1,(Jul 16 2014 00:52:27),0,TRUE,FALSE,4,FALSE
"363","A1SV84ZUAQK3K0","Jul 16 2014","00:52:27",3,"Short","No-social","Zero",4,"Safari",0,"Same",1,"tomato",1,"",0,232,"straightahead",-1,0,0,1,(Jul 16 2014 00:52:27),0,TRUE,FALSE,4,FALSE
"364","A1SV84ZUAQK3K0","Jul 16 2014","00:52:27",4,"Short","No-social","Zero",4,"Safari",0,"Same",1,"tomato",2,"",0,241,"straightahead",-1,0,0,1,(Jul 16 2014 00:52:27),0,TRUE,FALSE,4,FALSE
"365","A1SV84ZUAQK3K0","Jul 16 2014","00:52:27",5,"Short","No-social","Zero",4,"Safari",0,"Same",1,"Novel3",3,"Novel3",3,3103,"straightahead",-1,1,0,0,(Jul 16 2014 00:52:27),0,TRUE,FALSE,4,TRUE
"366","A1SV84ZUAQK3K0","Jul 16 2014","00:52:27",6,"Short","No-social","Zero",4,"Safari",0,"Same",1,"Novel3",3,"Novel3",3,601,"straightahead",-1,0,1,0,(Jul 16 2014 00:52:27),0,TRUE,TRUE,4,TRUE
"367","A1SV84ZUAQK3K0","Jul 16 2014","00:52:27",7,"Short","No-social","Zero",4,"Safari",1,"Switch",1,"Novel133",0,"Novel52",1,1058,"straightahead",-1,1,0,0,(Jul 16 2014 00:52:27),0,TRUE,FALSE,4,FALSE
"368","A1SV84ZUAQK3K0","Jul 16 2014","00:52:27",8,"Short","No-social","Zero",4,"Safari",1,"Switch",1,"Novel52",1,"Novel52",1,1098,"straightahead",-1,0,1,0,(Jul 16 2014 00:52:27),0,TRUE,FALSE,4,TRUE
"369","A1SV84ZUAQK3K0","Jul 16 2014","00:52:27",9,"Short","No-social","Zero",4,"Safari",2,"Same",1,"Novel56",1,"Novel56",1,709,"straightahead",-1,1,0,0,(Jul 16 2014 00:52:27),0,TRUE,FALSE,4,TRUE
"370","A1SV84ZUAQK3K0","Jul 16 2014","00:52:27",10,"Short","No-social","Zero",4,"Safari",2,"Same",1,"Novel56",1,"Novel56",1,567,"straightahead",-1,0,1,0,(Jul 16 2014 00:52:27),0,TRUE,FALSE,4,TRUE
"371","A1SV84ZUAQK3K0","Jul 16 2014","00:52:27",11,"Short","No-social","Zero",4,"Safari",3,"Switch",1,"Novel60",2,"Novel103",1,1084,"straightahead",-1,1,0,0,(Jul 16 2014 00:52:27),0,TRUE,FALSE,4,FALSE
"372","A1SV84ZUAQK3K0","Jul 16 2014","00:52:27",12,"Short","No-social","Zero",4,"Safari",3,"Switch",1,"Novel103",1,"Novel103",1,213,"straightahead",-1,0,1,0,(Jul 16 2014 00:52:27),0,TRUE,FALSE,4,TRUE
"373","A1SV84ZUAQK3K0","Jul 16 2014","00:52:27",13,"Short","No-social","Zero",4,"Safari",4,"Same",0,"Novel87",2,"Novel87",2,1010,"straightahead",-1,1,0,0,(Jul 16 2014 00:52:27),0,TRUE,FALSE,4,TRUE
"374","A1SV84ZUAQK3K0","Jul 16 2014","00:52:27",14,"Short","No-social","Zero",4,"Safari",4,"Same",0,"Novel87",1,"Novel87",2,343,"straightahead",-1,0,1,0,(Jul 16 2014 00:52:27),0,TRUE,FALSE,4,TRUE
"375","A1SV84ZUAQK3K0","Jul 16 2014","00:52:27",15,"Short","No-social","Zero",4,"Safari",5,"Switch",0,"Novel16",1,"Novel64",2,2429,"straightahead",-1,1,0,0,(Jul 16 2014 00:52:27),0,TRUE,FALSE,4,FALSE
"376","A1SV84ZUAQK3K0","Jul 16 2014","00:52:27",16,"Short","No-social","Zero",4,"Safari",5,"Switch",0,"Novel64",0,"Novel64",2,884,"straightahead",-1,0,1,0,(Jul 16 2014 00:52:27),0,TRUE,FALSE,4,TRUE
"377","A1SV84ZUAQK3K0","Jul 16 2014","00:52:27",17,"Short","No-social","Zero",4,"Safari",6,"Same",0,"Novel18",0,"Novel18",0,1609,"straightahead",-1,1,0,0,(Jul 16 2014 00:52:27),0,TRUE,FALSE,4,TRUE
"378","A1SV84ZUAQK3K0","Jul 16 2014","00:52:27",18,"Short","No-social","Zero",4,"Safari",6,"Same",0,"Novel18",3,"Novel18",0,9,"straightahead",-1,0,1,0,(Jul 16 2014 00:52:27),0,TRUE,FALSE,4,TRUE
"379","A1SV84ZUAQK3K0","Jul 16 2014","00:52:27",19,"Short","No-social","Zero",4,"Safari",7,"Switch",0,"Novel92",2,"Novel63",0,530,"straightahead",-1,1,0,0,(Jul 16 2014 00:52:27),0,TRUE,FALSE,4,FALSE
"380","A1SV84ZUAQK3K0","Jul 16 2014","00:52:27",20,"Short","No-social","Zero",4,"Safari",7,"Switch",0,"Novel63",3,"Novel63",0,866,"straightahead",-1,0,1,0,(Jul 16 2014 00:52:27),0,TRUE,FALSE,4,TRUE
"381","A1TRRCRQTHRYDY","Jul 15 2014","09:10:44",1,"Short","Social","Zero",4,"Chrome",0,"Same",0,"squirrel",0,"",0,98,"straightahead",-1,0,0,1,(Jul 15 2014 09:10:44),0,TRUE,FALSE,4,FALSE
"382","A1TRRCRQTHRYDY","Jul 15 2014","09:10:44",2,"Short","Social","Zero",4,"Chrome",0,"Same",0,"squirrel",0,"",0,334,"straightahead",-1,0,0,1,(Jul 15 2014 09:10:44),0,TRUE,FALSE,4,FALSE
"383","A1TRRCRQTHRYDY","Jul 15 2014","09:10:44",3,"Short","Social","Zero",4,"Chrome",0,"Same",0,"tomato",1,"",0,359,"straightahead",-1,0,0,1,(Jul 15 2014 09:10:44),0,TRUE,FALSE,4,FALSE
"384","A1TRRCRQTHRYDY","Jul 15 2014","09:10:44",4,"Short","Social","Zero",4,"Chrome",0,"Same",0,"tomato",2,"",0,286,"straightahead",-1,0,0,1,(Jul 15 2014 09:10:44),0,TRUE,FALSE,4,FALSE
"385","A1TRRCRQTHRYDY","Jul 15 2014","09:10:44",5,"Short","Social","Zero",4,"Chrome",0,"Same",0,"Novel139",2,"Novel139",2,82,"silentLDshort",0,1,0,0,(Jul 15 2014 09:10:44),0,TRUE,FALSE,4,TRUE
"386","A1TRRCRQTHRYDY","Jul 15 2014","09:10:44",6,"Short","Social","Zero",4,"Chrome",0,"Same",0,"Novel139",1,"Novel139",2,1471,"straightahead",-1,0,1,0,(Jul 15 2014 09:10:44),0,TRUE,TRUE,4,TRUE
"387","A1TRRCRQTHRYDY","Jul 15 2014","09:10:44",7,"Short","Social","Zero",4,"Chrome",1,"Switch",1,"Novel92",3,"Novel23",1,29,"silentRDshort",2,1,0,0,(Jul 15 2014 09:10:44),0,TRUE,FALSE,4,FALSE
"388","A1TRRCRQTHRYDY","Jul 15 2014","09:10:44",8,"Short","Social","Zero",4,"Chrome",1,"Switch",1,"Novel28",0,"Novel23",1,82,"straightahead",-1,0,1,0,(Jul 15 2014 09:10:44),0,TRUE,FALSE,4,FALSE
"389","A1TRRCRQTHRYDY","Jul 15 2014","09:10:44",9,"Short","Social","Zero",4,"Chrome",2,"Same",1,"Novel50",3,"Novel50",3,422,"silentRDshort",2,1,0,0,(Jul 15 2014 09:10:44),0,TRUE,FALSE,4,TRUE
"390","A1TRRCRQTHRYDY","Jul 15 2014","09:10:44",10,"Short","Social","Zero",4,"Chrome",2,"Same",1,"Novel50",3,"Novel50",3,1545,"straightahead",-1,0,1,0,(Jul 15 2014 09:10:44),0,TRUE,FALSE,4,TRUE
"391","A1TRRCRQTHRYDY","Jul 15 2014","09:10:44",11,"Short","Social","Zero",4,"Chrome",3,"Switch",0,"Novel62",0,"Novel13",2,174,"silentLUshort",1,1,0,0,(Jul 15 2014 09:10:44),0,TRUE,FALSE,4,FALSE
"392","A1TRRCRQTHRYDY","Jul 15 2014","09:10:44",12,"Short","Social","Zero",4,"Chrome",3,"Switch",0,"Novel13",1,"Novel13",2,630,"straightahead",-1,0,1,0,(Jul 15 2014 09:10:44),0,TRUE,FALSE,4,TRUE
"393","A1TRRCRQTHRYDY","Jul 15 2014","09:10:44",13,"Short","Social","Zero",4,"Chrome",4,"Same",1,"Novel129",1,"Novel129",1,739,"silentRUshort",3,1,0,0,(Jul 15 2014 09:10:44),0,TRUE,FALSE,4,TRUE
"394","A1TRRCRQTHRYDY","Jul 15 2014","09:10:44",14,"Short","Social","Zero",4,"Chrome",4,"Same",1,"Novel129",1,"Novel129",1,572,"straightahead",-1,0,1,0,(Jul 15 2014 09:10:44),0,TRUE,FALSE,4,TRUE
"395","A1TRRCRQTHRYDY","Jul 15 2014","09:10:44",15,"Short","Social","Zero",4,"Chrome",5,"Switch",1,"Novel122",3,"Novel120",2,367,"silentRDshort",2,1,0,0,(Jul 15 2014 09:10:44),0,TRUE,FALSE,4,FALSE
"396","A1TRRCRQTHRYDY","Jul 15 2014","09:10:44",16,"Short","Social","Zero",4,"Chrome",5,"Switch",1,"Novel120",2,"Novel120",2,131,"straightahead",-1,0,1,0,(Jul 15 2014 09:10:44),0,TRUE,FALSE,4,TRUE
"397","A1TRRCRQTHRYDY","Jul 15 2014","09:10:44",17,"Short","Social","Zero",4,"Chrome",6,"Same",0,"Novel67",3,"Novel67",3,40,"silentRDshort",2,1,0,0,(Jul 15 2014 09:10:44),0,TRUE,FALSE,4,TRUE
"398","A1TRRCRQTHRYDY","Jul 15 2014","09:10:44",18,"Short","Social","Zero",4,"Chrome",6,"Same",0,"Novel61",3,"Novel67",3,446,"straightahead",-1,0,1,0,(Jul 15 2014 09:10:44),0,TRUE,FALSE,4,FALSE
"399","A1TRRCRQTHRYDY","Jul 15 2014","09:10:44",19,"Short","Social","Zero",4,"Chrome",7,"Switch",0,"Novel58",2,"Novel56",3,436,"silentLDshort",0,1,0,0,(Jul 15 2014 09:10:44),0,TRUE,FALSE,4,FALSE
"400","A1TRRCRQTHRYDY","Jul 15 2014","09:10:44",20,"Short","Social","Zero",4,"Chrome",7,"Switch",0,"Novel56",2,"Novel56",3,187,"straightahead",-1,0,1,0,(Jul 15 2014 09:10:44),0,TRUE,FALSE,4,TRUE
"401","A1WUQ217QN5Y99","Jul 15 2014","17:31:31",1,"Short","No-social","Zero",4,"Firefox",0,"Same",0,"squirrel",0,"",0,5418,"straightahead",-1,0,0,1,(Jul 15 2014 17:31:31),0,TRUE,FALSE,4,FALSE
"402","A1WUQ217QN5Y99","Jul 15 2014","17:31:31",2,"Short","No-social","Zero",4,"Firefox",0,"Same",0,"squirrel",0,"",0,623,"straightahead",-1,0,0,1,(Jul 15 2014 17:31:31),0,TRUE,FALSE,4,FALSE
"403","A1WUQ217QN5Y99","Jul 15 2014","17:31:31",3,"Short","No-social","Zero",4,"Firefox",0,"Same",0,"tomato",1,"",0,951,"straightahead",-1,0,0,1,(Jul 15 2014 17:31:31),0,TRUE,FALSE,4,FALSE
"404","A1WUQ217QN5Y99","Jul 15 2014","17:31:31",4,"Short","No-social","Zero",4,"Firefox",0,"Same",0,"tomato",2,"",0,325,"straightahead",-1,0,0,1,(Jul 15 2014 17:31:31),0,TRUE,FALSE,4,FALSE
"405","A1WUQ217QN5Y99","Jul 15 2014","17:31:31",5,"Short","No-social","Zero",4,"Firefox",0,"Same",0,"Novel40",3,"Novel40",3,1677,"straightahead",-1,1,0,0,(Jul 15 2014 17:31:31),0,TRUE,FALSE,4,TRUE
"406","A1WUQ217QN5Y99","Jul 15 2014","17:31:31",6,"Short","No-social","Zero",4,"Firefox",0,"Same",0,"Novel40",1,"Novel40",3,662,"straightahead",-1,0,1,0,(Jul 15 2014 17:31:31),0,TRUE,TRUE,4,TRUE
"407","A1WUQ217QN5Y99","Jul 15 2014","17:31:31",7,"Short","No-social","Zero",4,"Firefox",1,"Switch",1,"Novel125",2,"Novel12",3,1290,"straightahead",-1,1,0,0,(Jul 15 2014 17:31:31),0,TRUE,FALSE,4,FALSE
"408","A1WUQ217QN5Y99","Jul 15 2014","17:31:31",8,"Short","No-social","Zero",4,"Firefox",1,"Switch",1,"Novel75",1,"Novel12",3,1063,"straightahead",-1,0,1,0,(Jul 15 2014 17:31:31),0,TRUE,FALSE,4,FALSE
"409","A1WUQ217QN5Y99","Jul 15 2014","17:31:31",9,"Short","No-social","Zero",4,"Firefox",2,"Same",1,"Novel129",0,"Novel129",0,1801,"straightahead",-1,1,0,0,(Jul 15 2014 17:31:31),0,TRUE,FALSE,4,TRUE
"410","A1WUQ217QN5Y99","Jul 15 2014","17:31:31",10,"Short","No-social","Zero",4,"Firefox",2,"Same",1,"Novel129",0,"Novel129",0,264,"straightahead",-1,0,1,0,(Jul 15 2014 17:31:31),0,TRUE,FALSE,4,TRUE
"411","A1WUQ217QN5Y99","Jul 15 2014","17:31:31",11,"Short","No-social","Zero",4,"Firefox",3,"Switch",0,"Novel88",2,"Novel61",3,827,"straightahead",-1,1,0,0,(Jul 15 2014 17:31:31),0,TRUE,FALSE,4,FALSE
"412","A1WUQ217QN5Y99","Jul 15 2014","17:31:31",12,"Short","No-social","Zero",4,"Firefox",3,"Switch",0,"Novel61",2,"Novel61",3,998,"straightahead",-1,0,1,0,(Jul 15 2014 17:31:31),0,TRUE,FALSE,4,TRUE
"413","A1WUQ217QN5Y99","Jul 15 2014","17:31:31",13,"Short","No-social","Zero",4,"Firefox",4,"Same",0,"Novel38",3,"Novel38",3,1416,"straightahead",-1,1,0,0,(Jul 15 2014 17:31:31),0,TRUE,FALSE,4,TRUE
"414","A1WUQ217QN5Y99","Jul 15 2014","17:31:31",14,"Short","No-social","Zero",4,"Firefox",4,"Same",0,"Novel38",2,"Novel38",3,130,"straightahead",-1,0,1,0,(Jul 15 2014 17:31:31),0,TRUE,FALSE,4,TRUE
"415","A1WUQ217QN5Y99","Jul 15 2014","17:31:31",15,"Short","No-social","Zero",4,"Firefox",5,"Switch",1,"Novel30",0,"Novel51",3,1258,"straightahead",-1,1,0,0,(Jul 15 2014 17:31:31),0,TRUE,FALSE,4,FALSE
"416","A1WUQ217QN5Y99","Jul 15 2014","17:31:31",16,"Short","No-social","Zero",4,"Firefox",5,"Switch",1,"Novel71",0,"Novel51",3,877,"straightahead",-1,0,1,0,(Jul 15 2014 17:31:31),0,TRUE,FALSE,4,FALSE
"417","A1WUQ217QN5Y99","Jul 15 2014","17:31:31",17,"Short","No-social","Zero",4,"Firefox",6,"Same",1,"Novel93",2,"Novel93",2,1458,"straightahead",-1,1,0,0,(Jul 15 2014 17:31:31),0,TRUE,FALSE,4,TRUE
"418","A1WUQ217QN5Y99","Jul 15 2014","17:31:31",18,"Short","No-social","Zero",4,"Firefox",6,"Same",1,"Novel93",2,"Novel93",2,732,"straightahead",-1,0,1,0,(Jul 15 2014 17:31:31),0,TRUE,FALSE,4,TRUE
"419","A1WUQ217QN5Y99","Jul 15 2014","17:31:31",19,"Short","No-social","Zero",4,"Firefox",7,"Switch",0,"Novel83",2,"Novel68",1,267,"straightahead",-1,1,0,0,(Jul 15 2014 17:31:31),0,TRUE,FALSE,4,FALSE
"420","A1WUQ217QN5Y99","Jul 15 2014","17:31:31",20,"Short","No-social","Zero",4,"Firefox",7,"Switch",0,"Novel19",1,"Novel68",1,1374,"straightahead",-1,0,1,0,(Jul 15 2014 17:31:31),0,TRUE,FALSE,4,FALSE
"421","A1X5K008EQDM4X","Jul 15 2014","07:47:53",1,"Short","Social","Zero",4,"Chrome",0,"Switch",1,"squirrel",0,"",0,1884,"straightahead",-1,0,0,1,(Jul 15 2014 07:47:53),0,TRUE,FALSE,4,FALSE
"422","A1X5K008EQDM4X","Jul 15 2014","07:47:53",2,"Short","Social","Zero",4,"Chrome",0,"Switch",1,"squirrel",0,"",0,461,"straightahead",-1,0,0,1,(Jul 15 2014 07:47:53),0,TRUE,FALSE,4,FALSE
"423","A1X5K008EQDM4X","Jul 15 2014","07:47:53",3,"Short","Social","Zero",4,"Chrome",0,"Switch",1,"tomato",1,"",0,159,"straightahead",-1,0,0,1,(Jul 15 2014 07:47:53),0,TRUE,FALSE,4,FALSE
"424","A1X5K008EQDM4X","Jul 15 2014","07:47:53",4,"Short","Social","Zero",4,"Chrome",0,"Switch",1,"tomato",2,"",0,124,"straightahead",-1,0,0,1,(Jul 15 2014 07:47:53),0,TRUE,FALSE,4,FALSE
"425","A1X5K008EQDM4X","Jul 15 2014","07:47:53",5,"Short","Social","Zero",4,"Chrome",0,"Switch",1,"Novel26",1,"Novel112",0,612,"silentRUshort",3,1,0,0,(Jul 15 2014 07:47:53),0,TRUE,FALSE,4,FALSE
"426","A1X5K008EQDM4X","Jul 15 2014","07:47:53",6,"Short","Social","Zero",4,"Chrome",0,"Switch",1,"Novel86",2,"Novel112",0,85,"straightahead",-1,0,1,0,(Jul 15 2014 07:47:53),0,TRUE,TRUE,4,FALSE
"427","A1X5K008EQDM4X","Jul 15 2014","07:47:53",7,"Short","Social","Zero",4,"Chrome",1,"Same",0,"Novel24",3,"Novel24",3,598,"silentRDshort",2,1,0,0,(Jul 15 2014 07:47:53),0,TRUE,FALSE,4,TRUE
"428","A1X5K008EQDM4X","Jul 15 2014","07:47:53",8,"Short","Social","Zero",4,"Chrome",1,"Same",0,"Novel24",0,"Novel24",3,10,"straightahead",-1,0,1,0,(Jul 15 2014 07:47:53),0,TRUE,FALSE,4,TRUE
"429","A1X5K008EQDM4X","Jul 15 2014","07:47:53",9,"Short","Social","Zero",4,"Chrome",2,"Switch",0,"Novel94",3,"Novel113",0,189,"silentRDshort",2,1,0,0,(Jul 15 2014 07:47:53),0,TRUE,FALSE,4,FALSE
"430","A1X5K008EQDM4X","Jul 15 2014","07:47:53",10,"Short","Social","Zero",4,"Chrome",2,"Switch",0,"Novel97",1,"Novel113",0,4273,"straightahead",-1,0,1,0,(Jul 15 2014 07:47:53),0,TRUE,FALSE,4,FALSE
"431","A1X5K008EQDM4X","Jul 15 2014","07:47:53",11,"Short","Social","Zero",4,"Chrome",3,"Same",0,"Novel111",3,"Novel111",3,350,"silentRDshort",2,1,0,0,(Jul 15 2014 07:47:53),0,TRUE,FALSE,4,TRUE
"432","A1X5K008EQDM4X","Jul 15 2014","07:47:53",12,"Short","Social","Zero",4,"Chrome",3,"Same",0,"Novel111",2,"Novel111",3,1761,"straightahead",-1,0,1,0,(Jul 15 2014 07:47:53),0,TRUE,FALSE,4,TRUE
"433","A1X5K008EQDM4X","Jul 15 2014","07:47:53",13,"Short","Social","Zero",4,"Chrome",4,"Switch",1,"Novel12",1,"Novel67",0,3802,"silentRUshort",3,1,0,0,(Jul 15 2014 07:47:53),0,TRUE,FALSE,4,FALSE
"434","A1X5K008EQDM4X","Jul 15 2014","07:47:53",14,"Short","Social","Zero",4,"Chrome",4,"Switch",1,"Novel53",1,"Novel67",0,570,"straightahead",-1,0,1,0,(Jul 15 2014 07:47:53),0,TRUE,FALSE,4,FALSE
"435","A1X5K008EQDM4X","Jul 15 2014","07:47:53",15,"Short","Social","Zero",4,"Chrome",5,"Same",1,"Novel128",3,"Novel128",3,148,"silentRDshort",2,1,0,0,(Jul 15 2014 07:47:53),0,TRUE,FALSE,4,TRUE
"436","A1X5K008EQDM4X","Jul 15 2014","07:47:53",16,"Short","Social","Zero",4,"Chrome",5,"Same",1,"Novel128",3,"Novel128",3,315,"straightahead",-1,0,1,0,(Jul 15 2014 07:47:53),0,TRUE,FALSE,4,TRUE
"437","A1X5K008EQDM4X","Jul 15 2014","07:47:53",17,"Short","Social","Zero",4,"Chrome",6,"Switch",0,"Novel52",1,"Novel81",2,578,"silentRUshort",3,1,0,0,(Jul 15 2014 07:47:53),0,TRUE,FALSE,4,FALSE
"438","A1X5K008EQDM4X","Jul 15 2014","07:47:53",18,"Short","Social","Zero",4,"Chrome",6,"Switch",0,"Novel16",0,"Novel81",2,7,"straightahead",-1,0,1,0,(Jul 15 2014 07:47:53),0,TRUE,FALSE,4,FALSE
"439","A1X5K008EQDM4X","Jul 15 2014","07:47:53",19,"Short","Social","Zero",4,"Chrome",7,"Same",1,"Novel96",0,"Novel96",0,474,"silentLUshort",1,1,0,0,(Jul 15 2014 07:47:53),0,TRUE,FALSE,4,TRUE
"440","A1X5K008EQDM4X","Jul 15 2014","07:47:53",20,"Short","Social","Zero",4,"Chrome",7,"Same",1,"Novel96",0,"Novel96",0,110,"straightahead",-1,0,1,0,(Jul 15 2014 07:47:53),0,TRUE,FALSE,4,TRUE
"441","A1Y4OINMVNLBS7","Jul 16 2014","03:12:05",1,"Short","No-social","Zero",4,"Chrome",0,"Same",1,"squirrel",0,"",0,3726,"straightahead",-1,0,0,1,(Jul 16 2014 03:12:05),0,TRUE,FALSE,4,FALSE
"442","A1Y4OINMVNLBS7","Jul 16 2014","03:12:05",2,"Short","No-social","Zero",4,"Chrome",0,"Same",1,"squirrel",0,"",0,3583,"straightahead",-1,0,0,1,(Jul 16 2014 03:12:05),0,TRUE,FALSE,4,FALSE
"443","A1Y4OINMVNLBS7","Jul 16 2014","03:12:05",3,"Short","No-social","Zero",4,"Chrome",0,"Same",1,"tomato",1,"",0,3892,"straightahead",-1,0,0,1,(Jul 16 2014 03:12:05),0,TRUE,FALSE,4,FALSE
"444","A1Y4OINMVNLBS7","Jul 16 2014","03:12:05",4,"Short","No-social","Zero",4,"Chrome",0,"Same",1,"tomato",2,"",0,1561,"straightahead",-1,0,0,1,(Jul 16 2014 03:12:05),0,TRUE,FALSE,4,FALSE
"445","A1Y4OINMVNLBS7","Jul 16 2014","03:12:05",5,"Short","No-social","Zero",4,"Chrome",0,"Same",1,"Novel88",3,"Novel88",3,3555,"straightahead",-1,1,0,0,(Jul 16 2014 03:12:05),0,TRUE,FALSE,4,TRUE
"446","A1Y4OINMVNLBS7","Jul 16 2014","03:12:05",6,"Short","No-social","Zero",4,"Chrome",0,"Same",1,"Novel88",3,"Novel88",3,4518,"straightahead",-1,0,1,0,(Jul 16 2014 03:12:05),0,TRUE,TRUE,4,TRUE
"447","A1Y4OINMVNLBS7","Jul 16 2014","03:12:05",7,"Short","No-social","Zero",4,"Chrome",1,"Switch",1,"Novel13",1,"Novel54",2,3591,"straightahead",-1,1,0,0,(Jul 16 2014 03:12:05),0,TRUE,FALSE,4,FALSE
"448","A1Y4OINMVNLBS7","Jul 16 2014","03:12:05",8,"Short","No-social","Zero",4,"Chrome",1,"Switch",1,"Novel57",3,"Novel54",2,938,"straightahead",-1,0,1,0,(Jul 16 2014 03:12:05),0,TRUE,FALSE,4,FALSE
"449","A1Y4OINMVNLBS7","Jul 16 2014","03:12:05",9,"Short","No-social","Zero",4,"Chrome",2,"Same",1,"Novel114",3,"Novel114",3,2594,"straightahead",-1,1,0,0,(Jul 16 2014 03:12:05),0,TRUE,FALSE,4,TRUE
"450","A1Y4OINMVNLBS7","Jul 16 2014","03:12:05",10,"Short","No-social","Zero",4,"Chrome",2,"Same",1,"Novel114",3,"Novel114",3,731,"straightahead",-1,0,1,0,(Jul 16 2014 03:12:05),0,TRUE,FALSE,4,TRUE
"451","A1Y4OINMVNLBS7","Jul 16 2014","03:12:05",11,"Short","No-social","Zero",4,"Chrome",3,"Switch",0,"Novel55",0,"Novel89",2,853,"straightahead",-1,1,0,0,(Jul 16 2014 03:12:05),0,TRUE,FALSE,4,FALSE
"452","A1Y4OINMVNLBS7","Jul 16 2014","03:12:05",12,"Short","No-social","Zero",4,"Chrome",3,"Switch",0,"Novel77",3,"Novel89",2,2140,"straightahead",-1,0,1,0,(Jul 16 2014 03:12:05),0,TRUE,FALSE,4,FALSE
"453","A1Y4OINMVNLBS7","Jul 16 2014","03:12:05",13,"Short","No-social","Zero",4,"Chrome",4,"Same",0,"Novel70",3,"Novel70",3,71,"straightahead",-1,1,0,0,(Jul 16 2014 03:12:05),0,TRUE,FALSE,4,TRUE
"454","A1Y4OINMVNLBS7","Jul 16 2014","03:12:05",14,"Short","No-social","Zero",4,"Chrome",4,"Same",0,"Novel70",0,"Novel70",3,681,"straightahead",-1,0,1,0,(Jul 16 2014 03:12:05),0,TRUE,FALSE,4,TRUE
"455","A1Y4OINMVNLBS7","Jul 16 2014","03:12:05",15,"Short","No-social","Zero",4,"Chrome",5,"Switch",0,"Novel41",2,"Novel43",0,255,"straightahead",-1,1,0,0,(Jul 16 2014 03:12:05),0,TRUE,FALSE,4,FALSE
"456","A1Y4OINMVNLBS7","Jul 16 2014","03:12:05",16,"Short","No-social","Zero",4,"Chrome",5,"Switch",0,"Novel43",1,"Novel43",0,2377,"straightahead",-1,0,1,0,(Jul 16 2014 03:12:05),0,TRUE,FALSE,4,TRUE
"457","A1Y4OINMVNLBS7","Jul 16 2014","03:12:05",17,"Short","No-social","Zero",4,"Chrome",6,"Same",0,"Novel12",1,"Novel12",1,864,"straightahead",-1,1,0,0,(Jul 16 2014 03:12:05),0,TRUE,FALSE,4,TRUE
"458","A1Y4OINMVNLBS7","Jul 16 2014","03:12:05",18,"Short","No-social","Zero",4,"Chrome",6,"Same",0,"Novel12",3,"Novel12",1,923,"straightahead",-1,0,1,0,(Jul 16 2014 03:12:05),0,TRUE,FALSE,4,TRUE
"459","A1Y4OINMVNLBS7","Jul 16 2014","03:12:05",19,"Short","No-social","Zero",4,"Chrome",7,"Switch",1,"Novel75",2,"Novel129",0,1578,"straightahead",-1,1,0,0,(Jul 16 2014 03:12:05),0,TRUE,FALSE,4,FALSE
"460","A1Y4OINMVNLBS7","Jul 16 2014","03:12:05",20,"Short","No-social","Zero",4,"Chrome",7,"Switch",1,"Novel115",3,"Novel129",0,137,"straightahead",-1,0,1,0,(Jul 16 2014 03:12:05),0,TRUE,FALSE,4,FALSE
"461","A21HDHQPENLF2X","Jul 15 2014","01:58:50",1,"Short","No-social","Zero",4,"Chrome",0,"Switch",1,"squirrel",0,"",0,168,"straightahead",-1,0,0,1,(Jul 15 2014 01:58:50),0,TRUE,FALSE,4,FALSE
"462","A21HDHQPENLF2X","Jul 15 2014","01:58:50",2,"Short","No-social","Zero",4,"Chrome",0,"Switch",1,"squirrel",0,"",0,346,"straightahead",-1,0,0,1,(Jul 15 2014 01:58:50),0,TRUE,FALSE,4,FALSE
"463","A21HDHQPENLF2X","Jul 15 2014","01:58:50",3,"Short","No-social","Zero",4,"Chrome",0,"Switch",1,"tomato",1,"",0,619,"straightahead",-1,0,0,1,(Jul 15 2014 01:58:50),0,TRUE,FALSE,4,FALSE
"464","A21HDHQPENLF2X","Jul 15 2014","01:58:50",4,"Short","No-social","Zero",4,"Chrome",0,"Switch",1,"tomato",2,"",0,297,"straightahead",-1,0,0,1,(Jul 15 2014 01:58:50),0,TRUE,FALSE,4,FALSE
"465","A21HDHQPENLF2X","Jul 15 2014","01:58:50",5,"Short","No-social","Zero",4,"Chrome",0,"Switch",1,"Novel7",2,"Novel75",1,259,"straightahead",-1,1,0,0,(Jul 15 2014 01:58:50),0,TRUE,FALSE,4,FALSE
"466","A21HDHQPENLF2X","Jul 15 2014","01:58:50",6,"Short","No-social","Zero",4,"Chrome",0,"Switch",1,"Novel75",1,"Novel75",1,1591,"straightahead",-1,0,1,0,(Jul 15 2014 01:58:50),0,TRUE,TRUE,4,TRUE
"467","A21HDHQPENLF2X","Jul 15 2014","01:58:50",7,"Short","No-social","Zero",4,"Chrome",1,"Same",1,"Novel77",3,"Novel77",3,1398,"straightahead",-1,1,0,0,(Jul 15 2014 01:58:50),0,TRUE,FALSE,4,TRUE
"468","A21HDHQPENLF2X","Jul 15 2014","01:58:50",8,"Short","No-social","Zero",4,"Chrome",1,"Same",1,"Novel77",3,"Novel77",3,42,"straightahead",-1,0,1,0,(Jul 15 2014 01:58:50),0,TRUE,FALSE,4,TRUE
"469","A21HDHQPENLF2X","Jul 15 2014","01:58:50",9,"Short","No-social","Zero",4,"Chrome",2,"Switch",1,"Novel112",2,"Novel31",1,1202,"straightahead",-1,1,0,0,(Jul 15 2014 01:58:50),0,TRUE,FALSE,4,FALSE
"470","A21HDHQPENLF2X","Jul 15 2014","01:58:50",10,"Short","No-social","Zero",4,"Chrome",2,"Switch",1,"Novel31",1,"Novel31",1,883,"straightahead",-1,0,1,0,(Jul 15 2014 01:58:50),0,TRUE,FALSE,4,TRUE
"471","A21HDHQPENLF2X","Jul 15 2014","01:58:50",11,"Short","No-social","Zero",4,"Chrome",3,"Same",0,"Novel93",0,"Novel93",0,1705,"straightahead",-1,1,0,0,(Jul 15 2014 01:58:50),0,TRUE,FALSE,4,TRUE
"472","A21HDHQPENLF2X","Jul 15 2014","01:58:50",12,"Short","No-social","Zero",4,"Chrome",3,"Same",0,"Novel93",2,"Novel93",0,2376,"straightahead",-1,0,1,0,(Jul 15 2014 01:58:50),0,TRUE,FALSE,4,TRUE
"473","A21HDHQPENLF2X","Jul 15 2014","01:58:50",13,"Short","No-social","Zero",4,"Chrome",4,"Switch",0,"Novel69",0,"Novel113",3,788,"straightahead",-1,1,0,0,(Jul 15 2014 01:58:50),0,TRUE,FALSE,4,FALSE
"474","A21HDHQPENLF2X","Jul 15 2014","01:58:50",14,"Short","No-social","Zero",4,"Chrome",4,"Switch",0,"Novel113",2,"Novel113",3,252,"straightahead",-1,0,1,0,(Jul 15 2014 01:58:50),0,TRUE,FALSE,4,TRUE
"475","A21HDHQPENLF2X","Jul 15 2014","01:58:50",15,"Short","No-social","Zero",4,"Chrome",5,"Same",0,"Novel30",3,"Novel30",3,312,"straightahead",-1,1,0,0,(Jul 15 2014 01:58:50),0,TRUE,FALSE,4,TRUE
"476","A21HDHQPENLF2X","Jul 15 2014","01:58:50",16,"Short","No-social","Zero",4,"Chrome",5,"Same",0,"Novel30",0,"Novel30",3,262,"straightahead",-1,0,1,0,(Jul 15 2014 01:58:50),0,TRUE,FALSE,4,TRUE
"477","A21HDHQPENLF2X","Jul 15 2014","01:58:50",17,"Short","No-social","Zero",4,"Chrome",6,"Switch",0,"Novel16",0,"Novel15",1,1070,"straightahead",-1,1,0,0,(Jul 15 2014 01:58:50),0,TRUE,FALSE,4,FALSE
"478","A21HDHQPENLF2X","Jul 15 2014","01:58:50",18,"Short","No-social","Zero",4,"Chrome",6,"Switch",0,"Novel15",0,"Novel15",1,177,"straightahead",-1,0,1,0,(Jul 15 2014 01:58:50),0,TRUE,FALSE,4,TRUE
"479","A21HDHQPENLF2X","Jul 15 2014","01:58:50",19,"Short","No-social","Zero",4,"Chrome",7,"Same",1,"Novel33",3,"Novel33",3,422,"straightahead",-1,1,0,0,(Jul 15 2014 01:58:50),0,TRUE,FALSE,4,TRUE
"480","A21HDHQPENLF2X","Jul 15 2014","01:58:50",20,"Short","No-social","Zero",4,"Chrome",7,"Same",1,"Novel33",3,"Novel33",3,303,"straightahead",-1,0,1,0,(Jul 15 2014 01:58:50),0,TRUE,FALSE,4,TRUE
"481","A26Y6N343ZN8E5","Jul 15 2014","07:11:30",1,"Short","Social","Zero",4,"Chrome",0,"Switch",1,"squirrel",0,"",0,9957,"straightahead",-1,0,0,1,(Jul 15 2014 07:11:30),0,TRUE,FALSE,4,FALSE
"482","A26Y6N343ZN8E5","Jul 15 2014","07:11:30",2,"Short","Social","Zero",4,"Chrome",0,"Switch",1,"squirrel",0,"",0,495,"straightahead",-1,0,0,1,(Jul 15 2014 07:11:30),0,TRUE,FALSE,4,FALSE
"483","A26Y6N343ZN8E5","Jul 15 2014","07:11:30",3,"Short","Social","Zero",4,"Chrome",0,"Switch",1,"tomato",1,"",0,663,"straightahead",-1,0,0,1,(Jul 15 2014 07:11:30),0,TRUE,FALSE,4,FALSE
"484","A26Y6N343ZN8E5","Jul 15 2014","07:11:30",4,"Short","Social","Zero",4,"Chrome",0,"Switch",1,"tomato",2,"",0,666,"straightahead",-1,0,0,1,(Jul 15 2014 07:11:30),0,TRUE,FALSE,4,FALSE
"485","A26Y6N343ZN8E5","Jul 15 2014","07:11:30",5,"Short","Social","Zero",4,"Chrome",0,"Switch",1,"Novel38",3,"Novel132",1,952,"silentLDshort",0,1,0,0,(Jul 15 2014 07:11:30),0,TRUE,FALSE,4,FALSE
"486","A26Y6N343ZN8E5","Jul 15 2014","07:11:30",6,"Short","Social","Zero",4,"Chrome",0,"Switch",1,"Novel132",1,"Novel132",1,319,"straightahead",-1,0,1,0,(Jul 15 2014 07:11:30),0,TRUE,TRUE,4,TRUE
"487","A26Y6N343ZN8E5","Jul 15 2014","07:11:30",7,"Short","Social","Zero",4,"Chrome",1,"Same",0,"Novel15",3,"Novel15",3,46,"silentLDshort",0,1,0,0,(Jul 15 2014 07:11:30),0,TRUE,FALSE,4,TRUE
"488","A26Y6N343ZN8E5","Jul 15 2014","07:11:30",8,"Short","Social","Zero",4,"Chrome",1,"Same",0,"Novel15",2,"Novel15",3,1355,"straightahead",-1,0,1,0,(Jul 15 2014 07:11:30),0,TRUE,FALSE,4,TRUE
"489","A26Y6N343ZN8E5","Jul 15 2014","07:11:30",9,"Short","Social","Zero",4,"Chrome",2,"Switch",0,"Novel91",1,"Novel65",2,2639,"silentRDshort",2,1,0,0,(Jul 15 2014 07:11:30),0,TRUE,FALSE,4,FALSE
"490","A26Y6N343ZN8E5","Jul 15 2014","07:11:30",10,"Short","Social","Zero",4,"Chrome",2,"Switch",0,"Novel65",3,"Novel65",2,14,"straightahead",-1,0,1,0,(Jul 15 2014 07:11:30),0,TRUE,FALSE,4,TRUE
"491","A26Y6N343ZN8E5","Jul 15 2014","07:11:30",11,"Short","Social","Zero",4,"Chrome",3,"Same",1,"Novel134",3,"Novel134",3,593,"silentRDshort",2,1,0,0,(Jul 15 2014 07:11:30),0,TRUE,FALSE,4,TRUE
"492","A26Y6N343ZN8E5","Jul 15 2014","07:11:30",12,"Short","Social","Zero",4,"Chrome",3,"Same",1,"Novel134",3,"Novel134",3,117,"straightahead",-1,0,1,0,(Jul 15 2014 07:11:30),0,TRUE,FALSE,4,TRUE
"493","A26Y6N343ZN8E5","Jul 15 2014","07:11:30",13,"Short","Social","Zero",4,"Chrome",4,"Switch",0,"Novel95",0,"Novel128",2,320,"silentRUshort",3,1,0,0,(Jul 15 2014 07:11:30),0,TRUE,FALSE,4,FALSE
"494","A26Y6N343ZN8E5","Jul 15 2014","07:11:30",14,"Short","Social","Zero",4,"Chrome",4,"Switch",0,"Novel128",3,"Novel128",2,1410,"straightahead",-1,0,1,0,(Jul 15 2014 07:11:30),0,TRUE,FALSE,4,TRUE
"495","A26Y6N343ZN8E5","Jul 15 2014","07:11:30",15,"Short","Social","Zero",4,"Chrome",5,"Same",0,"Novel19",1,"Novel19",1,86,"silentRDshort",2,1,0,0,(Jul 15 2014 07:11:30),0,TRUE,FALSE,4,TRUE
"496","A26Y6N343ZN8E5","Jul 15 2014","07:11:30",16,"Short","Social","Zero",4,"Chrome",5,"Same",0,"Novel19",2,"Novel19",1,239,"straightahead",-1,0,1,0,(Jul 15 2014 07:11:30),0,TRUE,FALSE,4,TRUE
"497","A26Y6N343ZN8E5","Jul 15 2014","07:11:30",17,"Short","Social","Zero",4,"Chrome",6,"Switch",1,"Novel45",3,"Novel21",1,752,"silentLDshort",0,1,0,0,(Jul 15 2014 07:11:30),0,TRUE,FALSE,4,FALSE
"498","A26Y6N343ZN8E5","Jul 15 2014","07:11:30",18,"Short","Social","Zero",4,"Chrome",6,"Switch",1,"Novel21",1,"Novel21",1,622,"straightahead",-1,0,1,0,(Jul 15 2014 07:11:30),0,TRUE,FALSE,4,TRUE
"499","A26Y6N343ZN8E5","Jul 15 2014","07:11:30",19,"Short","Social","Zero",4,"Chrome",7,"Same",1,"Novel102",0,"Novel102",0,1538,"silentRUshort",3,1,0,0,(Jul 15 2014 07:11:30),0,TRUE,FALSE,4,TRUE
"500","A26Y6N343ZN8E5","Jul 15 2014","07:11:30",20,"Short","Social","Zero",4,"Chrome",7,"Same",1,"Novel102",0,"Novel102",0,204,"straightahead",-1,0,1,0,(Jul 15 2014 07:11:30),0,TRUE,FALSE,4,TRUE
"501","A2ALS6H2M58RJ5","Jul 15 2014","11:19:32",1,"Short","No-social","Zero",4,"Chrome",0,"Switch",1,"squirrel",0,"",0,1993,"straightahead",-1,0,0,1,(Jul 15 2014 11:19:32),0,TRUE,FALSE,4,FALSE
"502","A2ALS6H2M58RJ5","Jul 15 2014","11:19:32",2,"Short","No-social","Zero",4,"Chrome",0,"Switch",1,"squirrel",0,"",0,500,"straightahead",-1,0,0,1,(Jul 15 2014 11:19:32),0,TRUE,FALSE,4,FALSE
"503","A2ALS6H2M58RJ5","Jul 15 2014","11:19:32",3,"Short","No-social","Zero",4,"Chrome",0,"Switch",1,"tomato",1,"",0,186,"straightahead",-1,0,0,1,(Jul 15 2014 11:19:32),0,TRUE,FALSE,4,FALSE
"504","A2ALS6H2M58RJ5","Jul 15 2014","11:19:32",4,"Short","No-social","Zero",4,"Chrome",0,"Switch",1,"tomato",2,"",0,1212,"straightahead",-1,0,0,1,(Jul 15 2014 11:19:32),0,TRUE,FALSE,4,FALSE
"505","A2ALS6H2M58RJ5","Jul 15 2014","11:19:32",5,"Short","No-social","Zero",4,"Chrome",0,"Switch",1,"Novel49",1,"Novel129",0,4428,"straightahead",-1,1,0,0,(Jul 15 2014 11:19:32),0,TRUE,FALSE,4,FALSE
"506","A2ALS6H2M58RJ5","Jul 15 2014","11:19:32",6,"Short","No-social","Zero",4,"Chrome",0,"Switch",1,"Novel23",2,"Novel129",0,1305,"straightahead",-1,0,1,0,(Jul 15 2014 11:19:32),0,TRUE,TRUE,4,FALSE
"507","A2ALS6H2M58RJ5","Jul 15 2014","11:19:32",7,"Short","No-social","Zero",4,"Chrome",1,"Same",0,"Novel95",1,"Novel95",1,221,"straightahead",-1,1,0,0,(Jul 15 2014 11:19:32),0,TRUE,FALSE,4,TRUE
"508","A2ALS6H2M58RJ5","Jul 15 2014","11:19:32",8,"Short","No-social","Zero",4,"Chrome",1,"Same",0,"Novel95",3,"Novel95",1,723,"straightahead",-1,0,1,0,(Jul 15 2014 11:19:32),0,TRUE,FALSE,4,TRUE
"509","A2ALS6H2M58RJ5","Jul 15 2014","11:19:32",9,"Short","No-social","Zero",4,"Chrome",2,"Switch",1,"Novel83",0,"Novel20",2,424,"straightahead",-1,1,0,0,(Jul 15 2014 11:19:32),0,TRUE,FALSE,4,FALSE
"510","A2ALS6H2M58RJ5","Jul 15 2014","11:19:32",10,"Short","No-social","Zero",4,"Chrome",2,"Switch",1,"Novel20",2,"Novel20",2,314,"straightahead",-1,0,1,0,(Jul 15 2014 11:19:32),0,TRUE,FALSE,4,TRUE
"511","A2ALS6H2M58RJ5","Jul 15 2014","11:19:32",11,"Short","No-social","Zero",4,"Chrome",3,"Same",0,"Novel94",1,"Novel94",1,376,"straightahead",-1,1,0,0,(Jul 15 2014 11:19:32),0,TRUE,FALSE,4,TRUE
"512","A2ALS6H2M58RJ5","Jul 15 2014","11:19:32",12,"Short","No-social","Zero",4,"Chrome",3,"Same",0,"Novel94",3,"Novel94",1,498,"straightahead",-1,0,1,0,(Jul 15 2014 11:19:32),0,TRUE,FALSE,4,TRUE
