"submit.date","submit.time","trial.num","gazeLength","condition","interval","numPic","browser","itemNum","trialType","chosen","chosenIdx","kept","keptIdx","rt","face","faceIdx","example_trial","exposure_trial","test_trial","day.and.time","intervalNum","include","first.trial","numPicN","correct","subids"
"Aug 08 2014","18:28:37",1,"Short","No-socialFirst","Zero",4,"Chrome",0,"Switch","squirrel",0,"",0,5461,"straightahead",-1,1,0,0,(Aug 08 2014 18:28:37),0,TRUE,FALSE,4,FALSE,"1"
"Aug 08 2014","18:28:37",2,"Short","No-socialFirst","Zero",4,"Chrome",0,"Switch","squirrel",0,"",0,1976,"straightahead",-1,1,0,0,(Aug 08 2014 18:28:37),0,TRUE,FALSE,4,FALSE,"1"
"Aug 08 2014","18:28:37",3,"Short","No-socialFirst","Zero",4,"Chrome",0,"Switch","tomato",1,"",0,105,"straightahead",-1,1,0,0,(Aug 08 2014 18:28:37),0,TRUE,FALSE,4,FALSE,"1"
"Aug 08 2014","18:28:37",4,"Short","No-socialFirst","Zero",4,"Chrome",0,"Switch","tomato",2,"",0,559,"straightahead",-1,1,0,0,(Aug 08 2014 18:28:37),0,TRUE,FALSE,4,FALSE,"1"
"Aug 08 2014","18:28:37",5,"Short","No-socialFirst","Zero",4,"Chrome",0,"Switch","Novel24",1,"Novel132",2,15059,"straightahead",-1,0,1,0,(Aug 08 2014 18:28:37),0,TRUE,FALSE,4,FALSE,"1"
"Aug 08 2014","18:28:37",6,"Short","No-socialFirst","Zero",4,"Chrome",0,"Switch","Novel132",2,"Novel132",2,2727,"straightahead",-1,0,0,1,(Aug 08 2014 18:28:37),0,TRUE,TRUE,4,TRUE,"1"
"Aug 08 2014","18:28:37",7,"Short","No-socialFirst","Zero",4,"Chrome",1,"Same","Novel117",1,"Novel117",1,9593,"straightahead",-1,0,1,0,(Aug 08 2014 18:28:37),0,TRUE,FALSE,4,TRUE,"1"
"Aug 08 2014","18:28:37",8,"Short","No-socialFirst","Zero",4,"Chrome",1,"Same","Novel117",1,"Novel117",1,1453,"straightahead",-1,0,0,1,(Aug 08 2014 18:28:37),0,TRUE,FALSE,4,TRUE,"1"
"Aug 08 2014","18:28:37",9,"Short","No-socialFirst","Zero",4,"Chrome",2,"Switch","Novel52",0,"Novel21",3,1395,"straightahead",-1,0,1,0,(Aug 08 2014 18:28:37),0,TRUE,FALSE,4,FALSE,"1"
"Aug 08 2014","18:28:37",10,"Short","No-socialFirst","Zero",4,"Chrome",2,"Switch","Novel21",1,"Novel21",3,1308,"straightahead",-1,0,0,1,(Aug 08 2014 18:28:37),0,TRUE,FALSE,4,TRUE,"1"
"Aug 08 2014","18:28:37",11,"Short","No-socialFirst","Zero",4,"Chrome",3,"Same","Novel68",0,"Novel68",0,5152,"straightahead",-1,0,1,0,(Aug 08 2014 18:28:37),0,TRUE,FALSE,4,TRUE,"1"
"Aug 08 2014","18:28:37",12,"Short","No-socialFirst","Zero",4,"Chrome",3,"Same","Novel68",0,"Novel68",0,3201,"straightahead",-1,0,0,1,(Aug 08 2014 18:28:37),0,TRUE,FALSE,4,TRUE,"1"
"Aug 08 2014","18:28:37",13,"Short","No-socialFirst","Zero",4,"Chrome",4,"Switch","Novel76",3,"Novel79",1,2834,"straightahead",-1,0,1,0,(Aug 08 2014 18:28:37),0,TRUE,FALSE,4,FALSE,"1"
"Aug 08 2014","18:28:37",14,"Short","No-socialFirst","Zero",4,"Chrome",4,"Switch","Novel79",1,"Novel79",1,5173,"straightahead",-1,0,0,1,(Aug 08 2014 18:28:37),0,TRUE,FALSE,4,TRUE,"1"
"Aug 08 2014","18:28:37",15,"Short","No-socialFirst","Zero",4,"Chrome",5,"Same","Novel127",1,"Novel127",1,2171,"straightahead",-1,0,1,0,(Aug 08 2014 18:28:37),0,TRUE,FALSE,4,TRUE,"1"
"Aug 08 2014","18:28:37",16,"Short","No-socialFirst","Zero",4,"Chrome",5,"Same","Novel123",1,"Novel127",1,1118,"straightahead",-1,0,0,1,(Aug 08 2014 18:28:37),0,TRUE,FALSE,4,FALSE,"1"
"Aug 08 2014","18:28:37",17,"Short","No-socialFirst","Zero",4,"Chrome",6,"Switch","Novel73",0,"Novel124",1,2359,"straightahead",-1,0,1,0,(Aug 08 2014 18:28:37),0,TRUE,FALSE,4,FALSE,"1"
"Aug 08 2014","18:28:37",18,"Short","No-socialFirst","Zero",4,"Chrome",6,"Switch","Novel63",1,"Novel124",1,4533,"straightahead",-1,0,0,1,(Aug 08 2014 18:28:37),0,TRUE,FALSE,4,FALSE,"1"
"Aug 08 2014","18:28:37",19,"Short","No-socialFirst","Zero",4,"Chrome",7,"Same","Novel98",2,"Novel98",2,2322,"straightahead",-1,0,1,0,(Aug 08 2014 18:28:37),0,TRUE,FALSE,4,TRUE,"1"
"Aug 08 2014","18:28:37",20,"Short","No-socialFirst","Zero",4,"Chrome",7,"Same","Novel98",3,"Novel98",2,1509,"straightahead",-1,0,0,1,(Aug 08 2014 18:28:37),0,TRUE,FALSE,4,TRUE,"1"
"Aug 08 2014","18:28:37",21,"Short","No-socialFirst","Zero",4,"Chrome",8,"Switch","Novel107",3,"Novel6",2,922,"silentRDmedium",2,0,1,0,(Aug 08 2014 18:28:37),0,TRUE,FALSE,4,FALSE,"1"
"Aug 08 2014","18:28:37",22,"Short","No-socialFirst","Zero",4,"Chrome",8,"Switch","Novel116",2,"Novel6",2,3182,"straightahead",-1,0,0,1,(Aug 08 2014 18:28:37),0,TRUE,FALSE,4,FALSE,"1"
"Aug 08 2014","18:28:37",23,"Short","No-socialFirst","Zero",4,"Chrome",9,"Same","Novel134",3,"Novel134",3,671,"silentRDmedium",2,0,1,0,(Aug 08 2014 18:28:37),0,TRUE,FALSE,4,TRUE,"1"
"Aug 08 2014","18:28:37",24,"Short","No-socialFirst","Zero",4,"Chrome",9,"Same","Novel134",2,"Novel134",3,7,"straightahead",-1,0,0,1,(Aug 08 2014 18:28:37),0,TRUE,FALSE,4,TRUE,"1"
"Aug 08 2014","18:28:37",25,"Short","No-socialFirst","Zero",4,"Chrome",10,"Switch","Novel15",1,"Novel16",2,423,"silentRUmedium",3,0,1,0,(Aug 08 2014 18:28:37),0,TRUE,FALSE,4,FALSE,"1"
"Aug 08 2014","18:28:37",26,"Short","No-socialFirst","Zero",4,"Chrome",10,"Switch","Novel17",2,"Novel16",2,423,"straightahead",-1,0,0,1,(Aug 08 2014 18:28:37),0,TRUE,FALSE,4,FALSE,"1"
"Aug 08 2014","18:28:37",27,"Short","No-socialFirst","Zero",4,"Chrome",11,"Same","Novel10",1,"Novel10",1,323,"silentRUmedium",3,0,1,0,(Aug 08 2014 18:28:37),0,TRUE,FALSE,4,TRUE,"1"
"Aug 08 2014","18:28:37",28,"Short","No-socialFirst","Zero",4,"Chrome",11,"Same","Novel10",2,"Novel10",1,820,"straightahead",-1,0,0,1,(Aug 08 2014 18:28:37),0,TRUE,FALSE,4,TRUE,"1"
"Aug 08 2014","18:28:37",29,"Short","No-socialFirst","Zero",4,"Chrome",12,"Switch","Novel5",3,"Novel126",1,249,"silentRDmedium",2,0,1,0,(Aug 08 2014 18:28:37),0,TRUE,FALSE,4,FALSE,"1"
"Aug 08 2014","18:28:37",30,"Short","No-socialFirst","Zero",4,"Chrome",12,"Switch","Novel104",0,"Novel126",1,1051,"straightahead",-1,0,0,1,(Aug 08 2014 18:28:37),0,TRUE,FALSE,4,FALSE,"1"
"Aug 08 2014","18:28:37",31,"Short","No-socialFirst","Zero",4,"Chrome",13,"Same","Novel125",3,"Novel125",3,1055,"silentRDmedium",2,0,1,0,(Aug 08 2014 18:28:37),0,TRUE,FALSE,4,TRUE,"1"
"Aug 08 2014","18:28:37",32,"Short","No-socialFirst","Zero",4,"Chrome",13,"Same","Novel61",0,"Novel125",3,1436,"straightahead",-1,0,0,1,(Aug 08 2014 18:28:37),0,TRUE,FALSE,4,FALSE,"1"
"Aug 08 2014","18:28:37",33,"Short","No-socialFirst","Zero",4,"Chrome",14,"Switch","Novel66",3,"Novel94",1,596,"silentRDmedium",2,0,1,0,(Aug 08 2014 18:28:37),0,TRUE,FALSE,4,FALSE,"1"
"Aug 08 2014","18:28:37",34,"Short","No-socialFirst","Zero",4,"Chrome",14,"Switch","Novel71",0,"Novel94",1,1409,"straightahead",-1,0,0,1,(Aug 08 2014 18:28:37),0,TRUE,FALSE,4,FALSE,"1"
"Aug 08 2014","18:28:37",35,"Short","No-socialFirst","Zero",4,"Chrome",15,"Same","Novel103",2,"Novel103",2,613,"silentLDmedium",0,0,1,0,(Aug 08 2014 18:28:37),0,TRUE,FALSE,4,TRUE,"1"
"Aug 08 2014","18:28:37",36,"Short","No-socialFirst","Zero",4,"Chrome",15,"Same","Novel103",1,"Novel103",2,494,"straightahead",-1,0,0,1,(Aug 08 2014 18:28:37),0,TRUE,FALSE,4,TRUE,"1"
"Aug 08 2014","17:31:36",1,"Short","SocialFirst","Zero",4,"Chrome",0,"Same","squirrel",0,"",0,3191,"straightahead",-1,1,0,0,(Aug 08 2014 17:31:36),0,TRUE,FALSE,4,FALSE,"2"
"Aug 08 2014","17:31:36",2,"Short","SocialFirst","Zero",4,"Chrome",0,"Same","squirrel",0,"",0,651,"straightahead",-1,1,0,0,(Aug 08 2014 17:31:36),0,TRUE,FALSE,4,FALSE,"2"
"Aug 08 2014","17:31:36",3,"Short","SocialFirst","Zero",4,"Chrome",0,"Same","tomato",1,"",0,1401,"straightahead",-1,1,0,0,(Aug 08 2014 17:31:36),0,TRUE,FALSE,4,FALSE,"2"
"Aug 08 2014","17:31:36",4,"Short","SocialFirst","Zero",4,"Chrome",0,"Same","tomato",2,"",0,410,"straightahead",-1,1,0,0,(Aug 08 2014 17:31:36),0,TRUE,FALSE,4,FALSE,"2"
"Aug 08 2014","17:31:36",5,"Short","SocialFirst","Zero",4,"Chrome",0,"Same","Novel4",1,"Novel4",1,4700,"silentLDshort",0,0,1,0,(Aug 08 2014 17:31:36),0,TRUE,FALSE,4,TRUE,"2"
"Aug 08 2014","17:31:36",6,"Short","SocialFirst","Zero",4,"Chrome",0,"Same","Novel4",1,"Novel4",1,1286,"straightahead",-1,0,0,1,(Aug 08 2014 17:31:36),0,TRUE,TRUE,4,TRUE,"2"
"Aug 08 2014","17:31:36",7,"Short","SocialFirst","Zero",4,"Chrome",1,"Switch","Novel17",0,"Novel116",2,3242,"silentRUshort",3,0,1,0,(Aug 08 2014 17:31:36),0,TRUE,FALSE,4,FALSE,"2"
"Aug 08 2014","17:31:36",8,"Short","SocialFirst","Zero",4,"Chrome",1,"Switch","Novel7",1,"Novel116",2,4179,"straightahead",-1,0,0,1,(Aug 08 2014 17:31:36),0,TRUE,FALSE,4,FALSE,"2"
"Aug 08 2014","17:31:36",9,"Short","SocialFirst","Zero",4,"Chrome",2,"Same","Novel138",0,"Novel138",0,2985,"silentLDshort",0,0,1,0,(Aug 08 2014 17:31:36),0,TRUE,FALSE,4,TRUE,"2"
"Aug 08 2014","17:31:36",10,"Short","SocialFirst","Zero",4,"Chrome",2,"Same","Novel138",2,"Novel138",0,552,"straightahead",-1,0,0,1,(Aug 08 2014 17:31:36),0,TRUE,FALSE,4,TRUE,"2"
"Aug 08 2014","17:31:36",11,"Short","SocialFirst","Zero",4,"Chrome",3,"Switch","Novel92",1,"Novel103",2,1822,"silentLDshort",0,0,1,0,(Aug 08 2014 17:31:36),0,TRUE,FALSE,4,FALSE,"2"
"Aug 08 2014","17:31:36",12,"Short","SocialFirst","Zero",4,"Chrome",3,"Switch","Novel111",1,"Novel103",2,2578,"straightahead",-1,0,0,1,(Aug 08 2014 17:31:36),0,TRUE,FALSE,4,FALSE,"2"
"Aug 08 2014","17:31:36",13,"Short","SocialFirst","Zero",4,"Chrome",4,"Same","Novel76",0,"Novel76",0,5616,"silentRUshort",3,0,1,0,(Aug 08 2014 17:31:36),0,TRUE,FALSE,4,TRUE,"2"
"Aug 08 2014","17:31:36",14,"Short","SocialFirst","Zero",4,"Chrome",4,"Same","Novel76",0,"Novel76",0,319,"straightahead",-1,0,0,1,(Aug 08 2014 17:31:36),0,TRUE,FALSE,4,TRUE,"2"
"Aug 08 2014","17:31:36",15,"Short","SocialFirst","Zero",4,"Chrome",5,"Switch","Novel70",1,"Novel23",2,2457,"silentRUshort",3,0,1,0,(Aug 08 2014 17:31:36),0,TRUE,FALSE,4,FALSE,"2"
"Aug 08 2014","17:31:36",16,"Short","SocialFirst","Zero",4,"Chrome",5,"Switch","Novel23",2,"Novel23",2,301,"straightahead",-1,0,0,1,(Aug 08 2014 17:31:36),0,TRUE,FALSE,4,TRUE,"2"
"Aug 08 2014","17:31:36",17,"Short","SocialFirst","Zero",4,"Chrome",6,"Same","Novel90",3,"Novel90",3,2152,"silentRUshort",3,0,1,0,(Aug 08 2014 17:31:36),0,TRUE,FALSE,4,TRUE,"2"
"Aug 08 2014","17:31:36",18,"Short","SocialFirst","Zero",4,"Chrome",6,"Same","Novel90",1,"Novel90",3,5,"straightahead",-1,0,0,1,(Aug 08 2014 17:31:36),0,TRUE,FALSE,4,TRUE,"2"
"Aug 08 2014","17:31:36",19,"Short","SocialFirst","Zero",4,"Chrome",7,"Switch","Novel65",3,"Novel113",0,4281,"silentLDshort",0,0,1,0,(Aug 08 2014 17:31:36),0,TRUE,FALSE,4,FALSE,"2"
"Aug 08 2014","17:31:36",20,"Short","SocialFirst","Zero",4,"Chrome",7,"Switch","Novel113",1,"Novel113",0,350,"straightahead",-1,0,0,1,(Aug 08 2014 17:31:36),0,TRUE,FALSE,4,TRUE,"2"
"Aug 08 2014","17:31:36",21,"Short","SocialFirst","Zero",4,"Chrome",8,"Same","Novel59",0,"Novel59",0,2579,"straightahead",-1,0,1,0,(Aug 08 2014 17:31:36),0,TRUE,FALSE,4,TRUE,"2"
"Aug 08 2014","17:31:36",22,"Short","SocialFirst","Zero",4,"Chrome",8,"Same","Novel59",2,"Novel59",0,47,"straightahead",-1,0,0,1,(Aug 08 2014 17:31:36),0,TRUE,FALSE,4,TRUE,"2"
"Aug 08 2014","17:31:36",23,"Short","SocialFirst","Zero",4,"Chrome",9,"Switch","Novel19",3,"Novel83",1,1832,"straightahead",-1,0,1,0,(Aug 08 2014 17:31:36),0,TRUE,FALSE,4,FALSE,"2"
"Aug 08 2014","17:31:36",24,"Short","SocialFirst","Zero",4,"Chrome",9,"Switch","Novel15",1,"Novel83",1,901,"straightahead",-1,0,0,1,(Aug 08 2014 17:31:36),0,TRUE,FALSE,4,FALSE,"2"
"Aug 08 2014","17:31:36",25,"Short","SocialFirst","Zero",4,"Chrome",10,"Same","Novel80",3,"Novel80",3,4128,"straightahead",-1,0,1,0,(Aug 08 2014 17:31:36),0,TRUE,FALSE,4,TRUE,"2"
"Aug 08 2014","17:31:36",26,"Short","SocialFirst","Zero",4,"Chrome",10,"Same","Novel80",0,"Novel80",3,446,"straightahead",-1,0,0,1,(Aug 08 2014 17:31:36),0,TRUE,FALSE,4,TRUE,"2"
"Aug 08 2014","17:31:36",27,"Short","SocialFirst","Zero",4,"Chrome",11,"Switch","Novel96",2,"Novel137",3,1045,"straightahead",-1,0,1,0,(Aug 08 2014 17:31:36),0,TRUE,FALSE,4,FALSE,"2"
"Aug 08 2014","17:31:36",28,"Short","SocialFirst","Zero",4,"Chrome",11,"Switch","Novel137",2,"Novel137",3,502,"straightahead",-1,0,0,1,(Aug 08 2014 17:31:36),0,TRUE,FALSE,4,TRUE,"2"
"Aug 08 2014","17:31:36",29,"Short","SocialFirst","Zero",4,"Chrome",12,"Same","Novel77",1,"Novel77",1,1898,"straightahead",-1,0,1,0,(Aug 08 2014 17:31:36),0,TRUE,FALSE,4,TRUE,"2"
"Aug 08 2014","17:31:36",30,"Short","SocialFirst","Zero",4,"Chrome",12,"Same","Novel77",0,"Novel77",1,1198,"straightahead",-1,0,0,1,(Aug 08 2014 17:31:36),0,TRUE,FALSE,4,TRUE,"2"
"Aug 08 2014","17:31:36",31,"Short","SocialFirst","Zero",4,"Chrome",13,"Switch","Novel40",3,"Novel21",1,1344,"straightahead",-1,0,1,0,(Aug 08 2014 17:31:36),0,TRUE,FALSE,4,FALSE,"2"
"Aug 08 2014","17:31:36",32,"Short","SocialFirst","Zero",4,"Chrome",13,"Switch","Novel21",2,"Novel21",1,181,"straightahead",-1,0,0,1,(Aug 08 2014 17:31:36),0,TRUE,FALSE,4,TRUE,"2"
"Aug 08 2014","17:31:36",33,"Short","SocialFirst","Zero",4,"Chrome",14,"Same","Novel8",1,"Novel8",1,1517,"straightahead",-1,0,1,0,(Aug 08 2014 17:31:36),0,TRUE,FALSE,4,TRUE,"2"
"Aug 08 2014","17:31:36",34,"Short","SocialFirst","Zero",4,"Chrome",14,"Same","Novel8",2,"Novel8",1,1036,"straightahead",-1,0,0,1,(Aug 08 2014 17:31:36),0,TRUE,FALSE,4,TRUE,"2"
"Aug 08 2014","17:31:36",35,"Short","SocialFirst","Zero",4,"Chrome",15,"Switch","Novel34",1,"Novel91",0,522,"straightahead",-1,0,1,0,(Aug 08 2014 17:31:36),0,TRUE,FALSE,4,FALSE,"2"
"Aug 08 2014","17:31:36",36,"Short","SocialFirst","Zero",4,"Chrome",15,"Switch","Novel91",1,"Novel91",0,617,"straightahead",-1,0,0,1,(Aug 08 2014 17:31:36),0,TRUE,FALSE,4,TRUE,"2"
"Aug 08 2014","13:55:09",1,"Short","No-socialFirst","Zero",4,"Chrome",0,"Switch","squirrel",0,"",0,366,"straightahead",-1,1,0,0,(Aug 08 2014 13:55:09),0,TRUE,FALSE,4,FALSE,"3"
"Aug 08 2014","13:55:09",2,"Short","No-socialFirst","Zero",4,"Chrome",0,"Switch","squirrel",0,"",0,670,"straightahead",-1,1,0,0,(Aug 08 2014 13:55:09),0,TRUE,FALSE,4,FALSE,"3"
"Aug 08 2014","13:55:09",3,"Short","No-socialFirst","Zero",4,"Chrome",0,"Switch","tomato",1,"",0,452,"straightahead",-1,1,0,0,(Aug 08 2014 13:55:09),0,TRUE,FALSE,4,FALSE,"3"
"Aug 08 2014","13:55:09",4,"Short","No-socialFirst","Zero",4,"Chrome",0,"Switch","tomato",2,"",0,1069,"straightahead",-1,1,0,0,(Aug 08 2014 13:55:09),0,TRUE,FALSE,4,FALSE,"3"
"Aug 08 2014","13:55:09",5,"Short","No-socialFirst","Zero",4,"Chrome",0,"Switch","Novel62",0,"Novel23",1,634,"straightahead",-1,0,1,0,(Aug 08 2014 13:55:09),0,TRUE,FALSE,4,FALSE,"3"
"Aug 08 2014","13:55:09",6,"Short","No-socialFirst","Zero",4,"Chrome",0,"Switch","Novel103",1,"Novel23",1,865,"straightahead",-1,0,0,1,(Aug 08 2014 13:55:09),0,TRUE,TRUE,4,FALSE,"3"
"Aug 08 2014","13:55:09",7,"Short","No-socialFirst","Zero",4,"Chrome",1,"Same","Novel44",2,"Novel44",2,44,"straightahead",-1,0,1,0,(Aug 08 2014 13:55:09),0,TRUE,FALSE,4,TRUE,"3"
"Aug 08 2014","13:55:09",8,"Short","No-socialFirst","Zero",4,"Chrome",1,"Same","Novel44",2,"Novel44",2,176,"straightahead",-1,0,0,1,(Aug 08 2014 13:55:09),0,TRUE,FALSE,4,TRUE,"3"
"Aug 08 2014","13:55:09",9,"Short","No-socialFirst","Zero",4,"Chrome",2,"Switch","Novel19",1,"Novel80",0,29,"straightahead",-1,0,1,0,(Aug 08 2014 13:55:09),0,TRUE,FALSE,4,FALSE,"3"
"Aug 08 2014","13:55:09",10,"Short","No-socialFirst","Zero",4,"Chrome",2,"Switch","Novel139",2,"Novel80",0,758,"straightahead",-1,0,0,1,(Aug 08 2014 13:55:09),0,TRUE,FALSE,4,FALSE,"3"
"Aug 08 2014","13:55:09",11,"Short","No-socialFirst","Zero",4,"Chrome",3,"Same","Novel71",1,"Novel71",1,626,"straightahead",-1,0,1,0,(Aug 08 2014 13:55:09),0,TRUE,FALSE,4,TRUE,"3"
"Aug 08 2014","13:55:09",12,"Short","No-socialFirst","Zero",4,"Chrome",3,"Same","Novel72",2,"Novel71",1,387,"straightahead",-1,0,0,1,(Aug 08 2014 13:55:09),0,TRUE,FALSE,4,FALSE,"3"
"Aug 08 2014","13:55:09",13,"Short","No-socialFirst","Zero",4,"Chrome",4,"Switch","Novel123",1,"Novel76",2,136,"straightahead",-1,0,1,0,(Aug 08 2014 13:55:09),0,TRUE,FALSE,4,FALSE,"3"
"Aug 08 2014","13:55:09",14,"Short","No-socialFirst","Zero",4,"Chrome",4,"Switch","Novel97",0,"Novel76",2,224,"straightahead",-1,0,0,1,(Aug 08 2014 13:55:09),0,TRUE,FALSE,4,FALSE,"3"
"Aug 08 2014","13:55:09",15,"Short","No-socialFirst","Zero",4,"Chrome",5,"Same","Novel127",3,"Novel127",3,181,"straightahead",-1,0,1,0,(Aug 08 2014 13:55:09),0,TRUE,FALSE,4,TRUE,"3"
"Aug 08 2014","13:55:09",16,"Short","No-socialFirst","Zero",4,"Chrome",5,"Same","Novel127",1,"Novel127",3,673,"straightahead",-1,0,0,1,(Aug 08 2014 13:55:09),0,TRUE,FALSE,4,TRUE,"3"
"Aug 08 2014","13:55:09",17,"Short","No-socialFirst","Zero",4,"Chrome",6,"Switch","Novel130",2,"Novel11",1,567,"straightahead",-1,0,1,0,(Aug 08 2014 13:55:09),0,TRUE,FALSE,4,FALSE,"3"
"Aug 08 2014","13:55:09",18,"Short","No-socialFirst","Zero",4,"Chrome",6,"Switch","Novel136",3,"Novel11",1,37,"straightahead",-1,0,0,1,(Aug 08 2014 13:55:09),0,TRUE,FALSE,4,FALSE,"3"
"Aug 08 2014","13:55:09",19,"Short","No-socialFirst","Zero",4,"Chrome",7,"Same","Novel124",1,"Novel124",1,476,"straightahead",-1,0,1,0,(Aug 08 2014 13:55:09),0,TRUE,FALSE,4,TRUE,"3"
"Aug 08 2014","13:55:09",20,"Short","No-socialFirst","Zero",4,"Chrome",7,"Same","Novel124",0,"Novel124",1,6798,"straightahead",-1,0,0,1,(Aug 08 2014 13:55:09),0,TRUE,FALSE,4,TRUE,"3"
"Aug 08 2014","13:55:09",21,"Short","No-socialFirst","Zero",4,"Chrome",8,"Switch","Novel2",1,"Novel102",2,559,"silentRDmedium",2,0,1,0,(Aug 08 2014 13:55:09),0,TRUE,FALSE,4,FALSE,"3"
"Aug 08 2014","13:55:09",22,"Short","No-socialFirst","Zero",4,"Chrome",8,"Switch","Novel24",2,"Novel102",2,561,"straightahead",-1,0,0,1,(Aug 08 2014 13:55:09),0,TRUE,FALSE,4,FALSE,"3"
"Aug 08 2014","13:55:09",23,"Short","No-socialFirst","Zero",4,"Chrome",9,"Same","Novel36",3,"Novel36",3,315,"silentLUmedium",1,0,1,0,(Aug 08 2014 13:55:09),0,TRUE,FALSE,4,TRUE,"3"
"Aug 08 2014","13:55:09",24,"Short","No-socialFirst","Zero",4,"Chrome",9,"Same","Novel52",0,"Novel36",3,244,"straightahead",-1,0,0,1,(Aug 08 2014 13:55:09),0,TRUE,FALSE,4,FALSE,"3"
"Aug 08 2014","13:55:09",25,"Short","No-socialFirst","Zero",4,"Chrome",10,"Switch","Novel4",2,"Novel50",3,31,"silentRDmedium",2,0,1,0,(Aug 08 2014 13:55:09),0,TRUE,FALSE,4,FALSE,"3"
"Aug 08 2014","13:55:09",26,"Short","No-socialFirst","Zero",4,"Chrome",10,"Switch","Novel35",3,"Novel50",3,3130,"straightahead",-1,0,0,1,(Aug 08 2014 13:55:09),0,TRUE,FALSE,4,FALSE,"3"
"Aug 08 2014","13:55:09",27,"Short","No-socialFirst","Zero",4,"Chrome",11,"Same","Novel140",0,"Novel140",0,779,"silentLDmedium",0,0,1,0,(Aug 08 2014 13:55:09),0,TRUE,FALSE,4,TRUE,"3"
"Aug 08 2014","13:55:09",28,"Short","No-socialFirst","Zero",4,"Chrome",11,"Same","Novel140",1,"Novel140",0,178,"straightahead",-1,0,0,1,(Aug 08 2014 13:55:09),0,TRUE,FALSE,4,TRUE,"3"
"Aug 08 2014","13:55:09",29,"Short","No-socialFirst","Zero",4,"Chrome",12,"Switch","Novel10",2,"Novel89",1,54,"silentLDmedium",0,0,1,0,(Aug 08 2014 13:55:09),0,TRUE,FALSE,4,FALSE,"3"
"Aug 08 2014","13:55:09",30,"Short","No-socialFirst","Zero",4,"Chrome",12,"Switch","Novel82",3,"Novel89",1,297,"straightahead",-1,0,0,1,(Aug 08 2014 13:55:09),0,TRUE,FALSE,4,FALSE,"3"
"Aug 08 2014","13:55:09",31,"Short","No-socialFirst","Zero",4,"Chrome",13,"Same","Novel100",0,"Novel100",0,65,"silentLDmedium",0,0,1,0,(Aug 08 2014 13:55:09),0,TRUE,FALSE,4,TRUE,"3"
"Aug 08 2014","13:55:09",32,"Short","No-socialFirst","Zero",4,"Chrome",13,"Same","Novel31",1,"Novel100",0,71,"straightahead",-1,0,0,1,(Aug 08 2014 13:55:09),0,TRUE,FALSE,4,FALSE,"3"
"Aug 08 2014","13:55:09",33,"Short","No-socialFirst","Zero",4,"Chrome",14,"Switch","Novel104",3,"Novel135",2,143,"silentLUmedium",1,0,1,0,(Aug 08 2014 13:55:09),0,TRUE,FALSE,4,FALSE,"3"
"Aug 08 2014","13:55:09",34,"Short","No-socialFirst","Zero",4,"Chrome",14,"Switch","Novel135",1,"Novel135",2,369,"straightahead",-1,0,0,1,(Aug 08 2014 13:55:09),0,TRUE,FALSE,4,TRUE,"3"
"Aug 08 2014","13:55:09",35,"Short","No-socialFirst","Zero",4,"Chrome",15,"Same","Novel94",2,"Novel94",2,157,"silentRUmedium",3,0,1,0,(Aug 08 2014 13:55:09),0,TRUE,FALSE,4,TRUE,"3"
"Aug 08 2014","13:55:09",36,"Short","No-socialFirst","Zero",4,"Chrome",15,"Same","Novel94",0,"Novel94",2,78,"straightahead",-1,0,0,1,(Aug 08 2014 13:55:09),0,TRUE,FALSE,4,TRUE,"3"
"Aug 08 2014","13:53:00",1,"Short","SocialFirst","Zero",4,"Firefox",0,"Switch","squirrel",0,"",0,1071,"straightahead",-1,1,0,0,(Aug 08 2014 13:53:00),0,TRUE,FALSE,4,FALSE,"4"
"Aug 08 2014","13:53:00",2,"Short","SocialFirst","Zero",4,"Firefox",0,"Switch","squirrel",0,"",0,122,"straightahead",-1,1,0,0,(Aug 08 2014 13:53:00),0,TRUE,FALSE,4,FALSE,"4"
"Aug 08 2014","13:53:00",3,"Short","SocialFirst","Zero",4,"Firefox",0,"Switch","tomato",1,"",0,368,"straightahead",-1,1,0,0,(Aug 08 2014 13:53:00),0,TRUE,FALSE,4,FALSE,"4"
"Aug 08 2014","13:53:00",4,"Short","SocialFirst","Zero",4,"Firefox",0,"Switch","tomato",2,"",0,50,"straightahead",-1,1,0,0,(Aug 08 2014 13:53:00),0,TRUE,FALSE,4,FALSE,"4"
"Aug 08 2014","13:53:00",5,"Short","SocialFirst","Zero",4,"Firefox",0,"Switch","Novel21",2,"Novel76",3,1123,"silentRDshort",2,0,1,0,(Aug 08 2014 13:53:00),0,TRUE,FALSE,4,FALSE,"4"
"Aug 08 2014","13:53:00",6,"Short","SocialFirst","Zero",4,"Firefox",0,"Switch","Novel136",0,"Novel76",3,2095,"straightahead",-1,0,0,1,(Aug 08 2014 13:53:00),0,TRUE,TRUE,4,FALSE,"4"
"Aug 08 2014","13:53:00",7,"Short","SocialFirst","Zero",4,"Firefox",1,"Same","Novel24",0,"Novel24",0,1803,"silentRUshort",3,0,1,0,(Aug 08 2014 13:53:00),0,TRUE,FALSE,4,TRUE,"4"
"Aug 08 2014","13:53:00",8,"Short","SocialFirst","Zero",4,"Firefox",1,"Same","Novel24",0,"Novel24",0,855,"straightahead",-1,0,0,1,(Aug 08 2014 13:53:00),0,TRUE,FALSE,4,TRUE,"4"
"Aug 08 2014","13:53:00",9,"Short","SocialFirst","Zero",4,"Firefox",2,"Switch","Novel120",1,"Novel74",2,5094,"silentRDshort",2,0,1,0,(Aug 08 2014 13:53:00),0,TRUE,FALSE,4,FALSE,"4"
"Aug 08 2014","13:53:00",10,"Short","SocialFirst","Zero",4,"Firefox",2,"Switch","Novel74",0,"Novel74",2,125,"straightahead",-1,0,0,1,(Aug 08 2014 13:53:00),0,TRUE,FALSE,4,TRUE,"4"
"Aug 08 2014","13:53:00",11,"Short","SocialFirst","Zero",4,"Firefox",3,"Same","Novel95",1,"Novel95",1,895,"silentLDshort",0,0,1,0,(Aug 08 2014 13:53:00),0,TRUE,FALSE,4,TRUE,"4"
"Aug 08 2014","13:53:00",12,"Short","SocialFirst","Zero",4,"Firefox",3,"Same","Novel95",1,"Novel95",1,427,"straightahead",-1,0,0,1,(Aug 08 2014 13:53:00),0,TRUE,FALSE,4,TRUE,"4"
"Aug 08 2014","13:53:00",13,"Short","SocialFirst","Zero",4,"Firefox",4,"Switch","Novel91",1,"Novel106",3,1946,"silentRUshort",3,0,1,0,(Aug 08 2014 13:53:00),0,TRUE,FALSE,4,FALSE,"4"
"Aug 08 2014","13:53:00",14,"Short","SocialFirst","Zero",4,"Firefox",4,"Switch","Novel106",3,"Novel106",3,67,"straightahead",-1,0,0,1,(Aug 08 2014 13:53:00),0,TRUE,FALSE,4,TRUE,"4"
"Aug 08 2014","13:53:00",15,"Short","SocialFirst","Zero",4,"Firefox",5,"Same","Novel4",3,"Novel4",3,1151,"silentLDshort",0,0,1,0,(Aug 08 2014 13:53:00),0,TRUE,FALSE,4,TRUE,"4"
"Aug 08 2014","13:53:00",16,"Short","SocialFirst","Zero",4,"Firefox",5,"Same","Novel4",2,"Novel4",3,300,"straightahead",-1,0,0,1,(Aug 08 2014 13:53:00),0,TRUE,FALSE,4,TRUE,"4"
"Aug 08 2014","13:53:00",17,"Short","SocialFirst","Zero",4,"Firefox",6,"Switch","Novel116",1,"Novel108",2,1558,"silentRDshort",2,0,1,0,(Aug 08 2014 13:53:00),0,TRUE,FALSE,4,FALSE,"4"
"Aug 08 2014","13:53:00",18,"Short","SocialFirst","Zero",4,"Firefox",6,"Switch","Novel108",2,"Novel108",2,544,"straightahead",-1,0,0,1,(Aug 08 2014 13:53:00),0,TRUE,FALSE,4,TRUE,"4"
"Aug 08 2014","13:53:00",19,"Short","SocialFirst","Zero",4,"Firefox",7,"Same","Novel92",2,"Novel92",2,806,"silentLDshort",0,0,1,0,(Aug 08 2014 13:53:00),0,TRUE,FALSE,4,TRUE,"4"
"Aug 08 2014","13:53:00",20,"Short","SocialFirst","Zero",4,"Firefox",7,"Same","Novel92",3,"Novel92",2,39,"straightahead",-1,0,0,1,(Aug 08 2014 13:53:00),0,TRUE,FALSE,4,TRUE,"4"
"Aug 08 2014","13:53:00",21,"Short","SocialFirst","Zero",4,"Firefox",8,"Switch","Novel58",1,"Novel15",0,1735,"straightahead",-1,0,1,0,(Aug 08 2014 13:53:00),0,TRUE,FALSE,4,FALSE,"4"
"Aug 08 2014","13:53:00",22,"Short","SocialFirst","Zero",4,"Firefox",8,"Switch","Novel15",1,"Novel15",0,35,"straightahead",-1,0,0,1,(Aug 08 2014 13:53:00),0,TRUE,FALSE,4,TRUE,"4"
"Aug 08 2014","13:53:00",23,"Short","SocialFirst","Zero",4,"Firefox",9,"Same","Novel130",0,"Novel130",0,2262,"straightahead",-1,0,1,0,(Aug 08 2014 13:53:00),0,TRUE,FALSE,4,TRUE,"4"
"Aug 08 2014","13:53:00",24,"Short","SocialFirst","Zero",4,"Firefox",9,"Same","Novel130",3,"Novel130",0,883,"straightahead",-1,0,0,1,(Aug 08 2014 13:53:00),0,TRUE,FALSE,4,TRUE,"4"
"Aug 08 2014","13:53:00",25,"Short","SocialFirst","Zero",4,"Firefox",10,"Switch","Novel51",0,"Novel103",3,966,"straightahead",-1,0,1,0,(Aug 08 2014 13:53:00),0,TRUE,FALSE,4,FALSE,"4"
"Aug 08 2014","13:53:00",26,"Short","SocialFirst","Zero",4,"Firefox",10,"Switch","Novel27",3,"Novel103",3,559,"straightahead",-1,0,0,1,(Aug 08 2014 13:53:00),0,TRUE,FALSE,4,FALSE,"4"
"Aug 08 2014","13:53:00",27,"Short","SocialFirst","Zero",4,"Firefox",11,"Same","Novel128",3,"Novel128",3,1305,"straightahead",-1,0,1,0,(Aug 08 2014 13:53:00),0,TRUE,FALSE,4,TRUE,"4"
"Aug 08 2014","13:53:00",28,"Short","SocialFirst","Zero",4,"Firefox",11,"Same","Novel128",0,"Novel128",3,20,"straightahead",-1,0,0,1,(Aug 08 2014 13:53:00),0,TRUE,FALSE,4,TRUE,"4"
"Aug 08 2014","13:53:00",29,"Short","SocialFirst","Zero",4,"Firefox",12,"Switch","Novel137",3,"Novel132",2,3276,"straightahead",-1,0,1,0,(Aug 08 2014 13:53:00),0,TRUE,FALSE,4,FALSE,"4"
"Aug 08 2014","13:53:00",30,"Short","SocialFirst","Zero",4,"Firefox",12,"Switch","Novel96",0,"Novel132",2,199,"straightahead",-1,0,0,1,(Aug 08 2014 13:53:00),0,TRUE,FALSE,4,FALSE,"4"
"Aug 08 2014","13:53:00",31,"Short","SocialFirst","Zero",4,"Firefox",13,"Same","Novel65",2,"Novel65",2,1073,"straightahead",-1,0,1,0,(Aug 08 2014 13:53:00),0,TRUE,FALSE,4,TRUE,"4"
"Aug 08 2014","13:53:00",32,"Short","SocialFirst","Zero",4,"Firefox",13,"Same","Novel65",3,"Novel65",2,73,"straightahead",-1,0,0,1,(Aug 08 2014 13:53:00),0,TRUE,FALSE,4,TRUE,"4"
"Aug 08 2014","13:53:00",33,"Short","SocialFirst","Zero",4,"Firefox",14,"Switch","Novel59",2,"Novel44",0,787,"straightahead",-1,0,1,0,(Aug 08 2014 13:53:00),0,TRUE,FALSE,4,FALSE,"4"
"Aug 08 2014","13:53:00",34,"Short","SocialFirst","Zero",4,"Firefox",14,"Switch","Novel44",2,"Novel44",0,176,"straightahead",-1,0,0,1,(Aug 08 2014 13:53:00),0,TRUE,FALSE,4,TRUE,"4"
"Aug 08 2014","13:53:00",35,"Short","SocialFirst","Zero",4,"Firefox",15,"Same","Novel16",0,"Novel16",0,695,"straightahead",-1,0,1,0,(Aug 08 2014 13:53:00),0,TRUE,FALSE,4,TRUE,"4"
"Aug 08 2014","13:53:00",36,"Short","SocialFirst","Zero",4,"Firefox",15,"Same","Novel16",2,"Novel16",0,77,"straightahead",-1,0,0,1,(Aug 08 2014 13:53:00),0,TRUE,FALSE,4,TRUE,"4"
"Aug 08 2014","17:59:21",1,"Short","No-socialFirst","Zero",4,"Chrome",0,"Switch","squirrel",0,"",0,3958,"straightahead",-1,1,0,0,(Aug 08 2014 17:59:21),0,TRUE,FALSE,4,FALSE,"5"
"Aug 08 2014","17:59:21",2,"Short","No-socialFirst","Zero",4,"Chrome",0,"Switch","squirrel",0,"",0,1987,"straightahead",-1,1,0,0,(Aug 08 2014 17:59:21),0,TRUE,FALSE,4,FALSE,"5"
"Aug 08 2014","17:59:21",3,"Short","No-socialFirst","Zero",4,"Chrome",0,"Switch","tomato",1,"",0,610,"straightahead",-1,1,0,0,(Aug 08 2014 17:59:21),0,TRUE,FALSE,4,FALSE,"5"
"Aug 08 2014","17:59:21",4,"Short","No-socialFirst","Zero",4,"Chrome",0,"Switch","tomato",2,"",0,533,"straightahead",-1,1,0,0,(Aug 08 2014 17:59:21),0,TRUE,FALSE,4,FALSE,"5"
"Aug 08 2014","17:59:21",5,"Short","No-socialFirst","Zero",4,"Chrome",0,"Switch","Novel101",1,"Novel39",3,6645,"straightahead",-1,0,1,0,(Aug 08 2014 17:59:21),0,TRUE,FALSE,4,FALSE,"5"
"Aug 08 2014","17:59:21",6,"Short","No-socialFirst","Zero",4,"Chrome",0,"Switch","Novel39",3,"Novel39",3,2657,"straightahead",-1,0,0,1,(Aug 08 2014 17:59:21),0,TRUE,TRUE,4,TRUE,"5"
"Aug 08 2014","17:59:21",7,"Short","No-socialFirst","Zero",4,"Chrome",1,"Same","Novel137",2,"Novel137",2,3784,"straightahead",-1,0,1,0,(Aug 08 2014 17:59:21),0,TRUE,FALSE,4,TRUE,"5"
"Aug 08 2014","17:59:21",8,"Short","No-socialFirst","Zero",4,"Chrome",1,"Same","Novel137",3,"Novel137",2,883,"straightahead",-1,0,0,1,(Aug 08 2014 17:59:21),0,TRUE,FALSE,4,TRUE,"5"
"Aug 08 2014","17:59:21",9,"Short","No-socialFirst","Zero",4,"Chrome",2,"Switch","Novel66",0,"Novel96",3,1161,"straightahead",-1,0,1,0,(Aug 08 2014 17:59:21),0,TRUE,FALSE,4,FALSE,"5"
"Aug 08 2014","17:59:21",10,"Short","No-socialFirst","Zero",4,"Chrome",2,"Switch","Novel96",2,"Novel96",3,2219,"straightahead",-1,0,0,1,(Aug 08 2014 17:59:21),0,TRUE,FALSE,4,TRUE,"5"
"Aug 08 2014","17:59:21",11,"Short","No-socialFirst","Zero",4,"Chrome",3,"Same","Novel32",1,"Novel32",1,1861,"straightahead",-1,0,1,0,(Aug 08 2014 17:59:21),0,TRUE,FALSE,4,TRUE,"5"
"Aug 08 2014","17:59:21",12,"Short","No-socialFirst","Zero",4,"Chrome",3,"Same","Novel32",1,"Novel32",1,596,"straightahead",-1,0,0,1,(Aug 08 2014 17:59:21),0,TRUE,FALSE,4,TRUE,"5"
"Aug 08 2014","17:59:21",13,"Short","No-socialFirst","Zero",4,"Chrome",4,"Switch","Novel30",3,"Novel108",2,3224,"straightahead",-1,0,1,0,(Aug 08 2014 17:59:21),0,TRUE,FALSE,4,FALSE,"5"
"Aug 08 2014","17:59:21",14,"Short","No-socialFirst","Zero",4,"Chrome",4,"Switch","Novel108",2,"Novel108",2,690,"straightahead",-1,0,0,1,(Aug 08 2014 17:59:21),0,TRUE,FALSE,4,TRUE,"5"
"Aug 08 2014","17:59:21",15,"Short","No-socialFirst","Zero",4,"Chrome",5,"Same","Novel78",2,"Novel78",2,3875,"straightahead",-1,0,1,0,(Aug 08 2014 17:59:21),0,TRUE,FALSE,4,TRUE,"5"
"Aug 08 2014","17:59:21",16,"Short","No-socialFirst","Zero",4,"Chrome",5,"Same","Novel78",2,"Novel78",2,610,"straightahead",-1,0,0,1,(Aug 08 2014 17:59:21),0,TRUE,FALSE,4,TRUE,"5"
"Aug 08 2014","17:59:21",17,"Short","No-socialFirst","Zero",4,"Chrome",6,"Switch","Novel83",0,"Novel71",3,2299,"straightahead",-1,0,1,0,(Aug 08 2014 17:59:21),0,TRUE,FALSE,4,FALSE,"5"
"Aug 08 2014","17:59:21",18,"Short","No-socialFirst","Zero",4,"Chrome",6,"Switch","Novel71",1,"Novel71",3,521,"straightahead",-1,0,0,1,(Aug 08 2014 17:59:21),0,TRUE,FALSE,4,TRUE,"5"
"Aug 08 2014","17:59:21",19,"Short","No-socialFirst","Zero",4,"Chrome",7,"Same","Novel1",3,"Novel1",3,3570,"straightahead",-1,0,1,0,(Aug 08 2014 17:59:21),0,TRUE,FALSE,4,TRUE,"5"
"Aug 08 2014","17:59:21",20,"Short","No-socialFirst","Zero",4,"Chrome",7,"Same","Novel1",0,"Novel1",3,1162,"straightahead",-1,0,0,1,(Aug 08 2014 17:59:21),0,TRUE,FALSE,4,TRUE,"5"
"Aug 08 2014","17:59:21",21,"Short","No-socialFirst","Zero",4,"Chrome",8,"Switch","Novel45",2,"Novel36",0,5171,"silentLDmedium",0,0,1,0,(Aug 08 2014 17:59:21),0,TRUE,FALSE,4,FALSE,"5"
"Aug 08 2014","17:59:21",22,"Short","No-socialFirst","Zero",4,"Chrome",8,"Switch","Novel36",3,"Novel36",0,1202,"straightahead",-1,0,0,1,(Aug 08 2014 17:59:21),0,TRUE,FALSE,4,TRUE,"5"
"Aug 08 2014","17:59:21",23,"Short","No-socialFirst","Zero",4,"Chrome",9,"Same","Novel20",2,"Novel20",2,4645,"silentLUmedium",1,0,1,0,(Aug 08 2014 17:59:21),0,TRUE,FALSE,4,TRUE,"5"
"Aug 08 2014","17:59:21",24,"Short","No-socialFirst","Zero",4,"Chrome",9,"Same","Novel20",1,"Novel20",2,1411,"straightahead",-1,0,0,1,(Aug 08 2014 17:59:21),0,TRUE,FALSE,4,TRUE,"5"
"Aug 08 2014","17:59:21",25,"Short","No-socialFirst","Zero",4,"Chrome",10,"Switch","Novel95",0,"Novel8",2,5698,"silentLDmedium",0,0,1,0,(Aug 08 2014 17:59:21),0,TRUE,FALSE,4,FALSE,"5"
"Aug 08 2014","17:59:21",26,"Short","No-socialFirst","Zero",4,"Chrome",10,"Switch","Novel8",1,"Novel8",2,1721,"straightahead",-1,0,0,1,(Aug 08 2014 17:59:21),0,TRUE,FALSE,4,TRUE,"5"
"Aug 08 2014","17:59:21",27,"Short","No-socialFirst","Zero",4,"Chrome",11,"Same","Novel109",1,"Novel109",1,5888,"silentRDmedium",2,0,1,0,(Aug 08 2014 17:59:21),0,TRUE,FALSE,4,TRUE,"5"
"Aug 08 2014","17:59:21",28,"Short","No-socialFirst","Zero",4,"Chrome",11,"Same","Novel109",0,"Novel109",1,480,"straightahead",-1,0,0,1,(Aug 08 2014 17:59:21),0,TRUE,FALSE,4,TRUE,"5"
"Aug 08 2014","17:59:21",29,"Short","No-socialFirst","Zero",4,"Chrome",12,"Switch","Novel19",3,"Novel6",2,5099,"silentRUmedium",3,0,1,0,(Aug 08 2014 17:59:21),0,TRUE,FALSE,4,FALSE,"5"
"Aug 08 2014","17:59:21",30,"Short","No-socialFirst","Zero",4,"Chrome",12,"Switch","Novel6",1,"Novel6",2,2387,"straightahead",-1,0,0,1,(Aug 08 2014 17:59:21),0,TRUE,FALSE,4,TRUE,"5"
"Aug 08 2014","17:59:21",31,"Short","No-socialFirst","Zero",4,"Chrome",13,"Same","Novel13",2,"Novel13",2,7092,"silentLUmedium",1,0,1,0,(Aug 08 2014 17:59:21),0,TRUE,FALSE,4,TRUE,"5"
"Aug 08 2014","17:59:21",32,"Short","No-socialFirst","Zero",4,"Chrome",13,"Same","Novel13",3,"Novel13",2,457,"straightahead",-1,0,0,1,(Aug 08 2014 17:59:21),0,TRUE,FALSE,4,TRUE,"5"
"Aug 08 2014","17:59:21",33,"Short","No-socialFirst","Zero",4,"Chrome",14,"Switch","Novel70",0,"Novel79",3,10428,"silentRDmedium",2,0,1,0,(Aug 08 2014 17:59:21),0,TRUE,FALSE,4,FALSE,"5"
"Aug 08 2014","17:59:21",34,"Short","No-socialFirst","Zero",4,"Chrome",14,"Switch","Novel79",2,"Novel79",3,1474,"straightahead",-1,0,0,1,(Aug 08 2014 17:59:21),0,TRUE,FALSE,4,TRUE,"5"
"Aug 08 2014","17:59:21",35,"Short","No-socialFirst","Zero",4,"Chrome",15,"Same","Novel15",3,"Novel15",3,2818,"silentLDmedium",0,0,1,0,(Aug 08 2014 17:59:21),0,TRUE,FALSE,4,TRUE,"5"
"Aug 08 2014","17:59:21",36,"Short","No-socialFirst","Zero",4,"Chrome",15,"Same","Novel15",2,"Novel15",3,449,"straightahead",-1,0,0,1,(Aug 08 2014 17:59:21),0,TRUE,FALSE,4,TRUE,"5"
"Aug 08 2014","18:01:42",1,"Short","No-socialFirst","Zero",4,"Chrome",0,"Same","squirrel",0,"",0,6121,"straightahead",-1,1,0,0,(Aug 08 2014 18:01:42),0,TRUE,FALSE,4,FALSE,"6"
"Aug 08 2014","18:01:42",2,"Short","No-socialFirst","Zero",4,"Chrome",0,"Same","squirrel",0,"",0,334,"straightahead",-1,1,0,0,(Aug 08 2014 18:01:42),0,TRUE,FALSE,4,FALSE,"6"
"Aug 08 2014","18:01:42",3,"Short","No-socialFirst","Zero",4,"Chrome",0,"Same","tomato",1,"",0,515,"straightahead",-1,1,0,0,(Aug 08 2014 18:01:42),0,TRUE,FALSE,4,FALSE,"6"
"Aug 08 2014","18:01:42",4,"Short","No-socialFirst","Zero",4,"Chrome",0,"Same","tomato",2,"",0,2539,"straightahead",-1,1,0,0,(Aug 08 2014 18:01:42),0,TRUE,FALSE,4,FALSE,"6"
"Aug 08 2014","18:01:42",5,"Short","No-socialFirst","Zero",4,"Chrome",0,"Same","Novel130",3,"Novel130",3,4803,"straightahead",-1,0,1,0,(Aug 08 2014 18:01:42),0,TRUE,FALSE,4,TRUE,"6"
"Aug 08 2014","18:01:42",6,"Short","No-socialFirst","Zero",4,"Chrome",0,"Same","Novel130",3,"Novel130",3,3340,"straightahead",-1,0,0,1,(Aug 08 2014 18:01:42),0,TRUE,TRUE,4,TRUE,"6"
"Aug 08 2014","18:01:42",7,"Short","No-socialFirst","Zero",4,"Chrome",1,"Switch","Novel86",2,"Novel137",3,5244,"straightahead",-1,0,1,0,(Aug 08 2014 18:01:42),0,TRUE,FALSE,4,FALSE,"6"
"Aug 08 2014","18:01:42",8,"Short","No-socialFirst","Zero",4,"Chrome",1,"Switch","Novel115",1,"Novel137",3,2688,"straightahead",-1,0,0,1,(Aug 08 2014 18:01:42),0,TRUE,FALSE,4,FALSE,"6"
"Aug 08 2014","18:01:42",9,"Short","No-socialFirst","Zero",4,"Chrome",2,"Same","Novel91",0,"Novel91",0,1382,"straightahead",-1,0,1,0,(Aug 08 2014 18:01:42),0,TRUE,FALSE,4,TRUE,"6"
"Aug 08 2014","18:01:42",10,"Short","No-socialFirst","Zero",4,"Chrome",2,"Same","Novel91",0,"Novel91",0,210,"straightahead",-1,0,0,1,(Aug 08 2014 18:01:42),0,TRUE,FALSE,4,TRUE,"6"
"Aug 08 2014","18:01:42",11,"Short","No-socialFirst","Zero",4,"Chrome",3,"Switch","Novel106",2,"Novel90",0,3574,"straightahead",-1,0,1,0,(Aug 08 2014 18:01:42),0,TRUE,FALSE,4,FALSE,"6"
"Aug 08 2014","18:01:42",12,"Short","No-socialFirst","Zero",4,"Chrome",3,"Switch","Novel69",0,"Novel90",0,1405,"straightahead",-1,0,0,1,(Aug 08 2014 18:01:42),0,TRUE,FALSE,4,FALSE,"6"
"Aug 08 2014","18:01:42",13,"Short","No-socialFirst","Zero",4,"Chrome",4,"Same","Novel5",3,"Novel5",3,855,"straightahead",-1,0,1,0,(Aug 08 2014 18:01:42),0,TRUE,FALSE,4,TRUE,"6"
"Aug 08 2014","18:01:42",14,"Short","No-socialFirst","Zero",4,"Chrome",4,"Same","Novel5",0,"Novel5",3,1575,"straightahead",-1,0,0,1,(Aug 08 2014 18:01:42),0,TRUE,FALSE,4,TRUE,"6"
"Aug 08 2014","18:01:42",15,"Short","No-socialFirst","Zero",4,"Chrome",5,"Switch","Novel52",3,"Novel48",2,1476,"straightahead",-1,0,1,0,(Aug 08 2014 18:01:42),0,TRUE,FALSE,4,FALSE,"6"
"Aug 08 2014","18:01:42",16,"Short","No-socialFirst","Zero",4,"Chrome",5,"Switch","Novel11",3,"Novel48",2,2294,"straightahead",-1,0,0,1,(Aug 08 2014 18:01:42),0,TRUE,FALSE,4,FALSE,"6"
"Aug 08 2014","18:01:42",17,"Short","No-socialFirst","Zero",4,"Chrome",6,"Same","Novel94",1,"Novel94",1,995,"straightahead",-1,0,1,0,(Aug 08 2014 18:01:42),0,TRUE,FALSE,4,TRUE,"6"
"Aug 08 2014","18:01:42",18,"Short","No-socialFirst","Zero",4,"Chrome",6,"Same","Novel94",0,"Novel94",1,230,"straightahead",-1,0,0,1,(Aug 08 2014 18:01:42),0,TRUE,FALSE,4,TRUE,"6"
"Aug 08 2014","18:01:42",19,"Short","No-socialFirst","Zero",4,"Chrome",7,"Switch","Novel132",0,"Novel65",3,974,"straightahead",-1,0,1,0,(Aug 08 2014 18:01:42),0,TRUE,FALSE,4,FALSE,"6"
"Aug 08 2014","18:01:42",20,"Short","No-socialFirst","Zero",4,"Chrome",7,"Switch","Novel12",1,"Novel65",3,697,"straightahead",-1,0,0,1,(Aug 08 2014 18:01:42),0,TRUE,FALSE,4,FALSE,"6"
"Aug 08 2014","18:01:42",21,"Short","No-socialFirst","Zero",4,"Chrome",8,"Same","Novel19",1,"Novel19",1,1163,"silentRUmedium",3,0,1,0,(Aug 08 2014 18:01:42),0,TRUE,FALSE,4,TRUE,"6"
"Aug 08 2014","18:01:42",22,"Short","No-socialFirst","Zero",4,"Chrome",8,"Same","Novel19",0,"Novel19",1,254,"straightahead",-1,0,0,1,(Aug 08 2014 18:01:42),0,TRUE,FALSE,4,TRUE,"6"
"Aug 08 2014","18:01:42",23,"Short","No-socialFirst","Zero",4,"Chrome",9,"Switch","Novel107",1,"Novel140",0,505,"silentRUmedium",3,0,1,0,(Aug 08 2014 18:01:42),0,TRUE,FALSE,4,FALSE,"6"
"Aug 08 2014","18:01:42",24,"Short","No-socialFirst","Zero",4,"Chrome",9,"Switch","Novel21",1,"Novel140",0,1542,"straightahead",-1,0,0,1,(Aug 08 2014 18:01:42),0,TRUE,FALSE,4,FALSE,"6"
"Aug 08 2014","18:01:42",25,"Short","No-socialFirst","Zero",4,"Chrome",10,"Same","Novel138",0,"Novel138",0,1440,"silentLUmedium",1,0,1,0,(Aug 08 2014 18:01:42),0,TRUE,FALSE,4,TRUE,"6"
"Aug 08 2014","18:01:42",26,"Short","No-socialFirst","Zero",4,"Chrome",10,"Same","Novel138",2,"Novel138",0,76,"straightahead",-1,0,0,1,(Aug 08 2014 18:01:42),0,TRUE,FALSE,4,TRUE,"6"
"Aug 08 2014","18:01:42",27,"Short","No-socialFirst","Zero",4,"Chrome",11,"Switch","Novel8",3,"Novel123",1,543,"silentRDmedium",2,0,1,0,(Aug 08 2014 18:01:42),0,TRUE,FALSE,4,FALSE,"6"
"Aug 08 2014","18:01:42",28,"Short","No-socialFirst","Zero",4,"Chrome",11,"Switch","Novel113",1,"Novel123",1,3562,"straightahead",-1,0,0,1,(Aug 08 2014 18:01:42),0,TRUE,FALSE,4,FALSE,"6"
"Aug 08 2014","18:01:42",29,"Short","No-socialFirst","Zero",4,"Chrome",12,"Same","Novel81",2,"Novel81",2,841,"silentLDmedium",0,0,1,0,(Aug 08 2014 18:01:42),0,TRUE,FALSE,4,TRUE,"6"
"Aug 08 2014","18:01:42",30,"Short","No-socialFirst","Zero",4,"Chrome",12,"Same","Novel81",1,"Novel81",2,999,"straightahead",-1,0,0,1,(Aug 08 2014 18:01:42),0,TRUE,FALSE,4,TRUE,"6"
"Aug 08 2014","18:01:42",31,"Short","No-socialFirst","Zero",4,"Chrome",13,"Switch","Novel102",2,"Novel79",3,899,"silentLDmedium",0,0,1,0,(Aug 08 2014 18:01:42),0,TRUE,FALSE,4,FALSE,"6"
"Aug 08 2014","18:01:42",32,"Short","No-socialFirst","Zero",4,"Chrome",13,"Switch","Novel78",2,"Novel79",3,658,"straightahead",-1,0,0,1,(Aug 08 2014 18:01:42),0,TRUE,FALSE,4,FALSE,"6"
"Aug 08 2014","18:01:42",33,"Short","No-socialFirst","Zero",4,"Chrome",14,"Same","Novel15",2,"Novel15",2,495,"silentLDmedium",0,0,1,0,(Aug 08 2014 18:01:42),0,TRUE,FALSE,4,TRUE,"6"
"Aug 08 2014","18:01:42",34,"Short","No-socialFirst","Zero",4,"Chrome",14,"Same","Novel15",3,"Novel15",2,1208,"straightahead",-1,0,0,1,(Aug 08 2014 18:01:42),0,TRUE,FALSE,4,TRUE,"6"
"Aug 08 2014","18:01:42",35,"Short","No-socialFirst","Zero",4,"Chrome",15,"Switch","Novel28",1,"Novel7",0,326,"silentRUmedium",3,0,1,0,(Aug 08 2014 18:01:42),0,TRUE,FALSE,4,FALSE,"6"
"Aug 08 2014","18:01:42",36,"Short","No-socialFirst","Zero",4,"Chrome",15,"Switch","Novel42",1,"Novel7",0,1170,"straightahead",-1,0,0,1,(Aug 08 2014 18:01:42),0,TRUE,FALSE,4,FALSE,"6"
"Aug 08 2014","14:06:53",1,"Short","No-socialFirst","Zero",4,"Chrome",0,"Switch","squirrel",0,"",0,1701,"straightahead",-1,1,0,0,(Aug 08 2014 14:06:53),0,TRUE,FALSE,4,FALSE,"7"
"Aug 08 2014","14:06:53",2,"Short","No-socialFirst","Zero",4,"Chrome",0,"Switch","squirrel",0,"",0,2221,"straightahead",-1,1,0,0,(Aug 08 2014 14:06:53),0,TRUE,FALSE,4,FALSE,"7"
"Aug 08 2014","14:06:53",3,"Short","No-socialFirst","Zero",4,"Chrome",0,"Switch","tomato",1,"",0,852,"straightahead",-1,1,0,0,(Aug 08 2014 14:06:53),0,TRUE,FALSE,4,FALSE,"7"
"Aug 08 2014","14:06:53",4,"Short","No-socialFirst","Zero",4,"Chrome",0,"Switch","tomato",2,"",0,673,"straightahead",-1,1,0,0,(Aug 08 2014 14:06:53),0,TRUE,FALSE,4,FALSE,"7"
"Aug 08 2014","14:06:53",5,"Short","No-socialFirst","Zero",4,"Chrome",0,"Switch","Novel68",2,"Novel22",0,3020,"straightahead",-1,0,1,0,(Aug 08 2014 14:06:53),0,TRUE,FALSE,4,FALSE,"7"
"Aug 08 2014","14:06:53",6,"Short","No-socialFirst","Zero",4,"Chrome",0,"Switch","Novel77",1,"Novel22",0,4044,"straightahead",-1,0,0,1,(Aug 08 2014 14:06:53),0,TRUE,TRUE,4,FALSE,"7"
"Aug 08 2014","14:06:53",7,"Short","No-socialFirst","Zero",4,"Chrome",1,"Same","Novel138",0,"Novel138",0,5966,"straightahead",-1,0,1,0,(Aug 08 2014 14:06:53),0,TRUE,FALSE,4,TRUE,"7"
"Aug 08 2014","14:06:53",8,"Short","No-socialFirst","Zero",4,"Chrome",1,"Same","Novel89",3,"Novel138",0,2496,"straightahead",-1,0,0,1,(Aug 08 2014 14:06:53),0,TRUE,FALSE,4,FALSE,"7"
"Aug 08 2014","14:06:53",9,"Short","No-socialFirst","Zero",4,"Chrome",2,"Switch","Novel103",2,"Novel3",0,2545,"straightahead",-1,0,1,0,(Aug 08 2014 14:06:53),0,TRUE,FALSE,4,FALSE,"7"
"Aug 08 2014","14:06:53",10,"Short","No-socialFirst","Zero",4,"Chrome",2,"Switch","Novel15",0,"Novel3",0,1269,"straightahead",-1,0,0,1,(Aug 08 2014 14:06:53),0,TRUE,FALSE,4,FALSE,"7"
"Aug 08 2014","14:06:53",11,"Short","No-socialFirst","Zero",4,"Chrome",3,"Same","Novel118",2,"Novel118",2,1929,"straightahead",-1,0,1,0,(Aug 08 2014 14:06:53),0,TRUE,FALSE,4,TRUE,"7"
"Aug 08 2014","14:06:53",12,"Short","No-socialFirst","Zero",4,"Chrome",3,"Same","Novel69",2,"Novel118",2,292,"straightahead",-1,0,0,1,(Aug 08 2014 14:06:53),0,TRUE,FALSE,4,FALSE,"7"
"Aug 08 2014","14:06:53",13,"Short","No-socialFirst","Zero",4,"Chrome",4,"Switch","Novel67",0,"Novel4",1,3708,"straightahead",-1,0,1,0,(Aug 08 2014 14:06:53),0,TRUE,FALSE,4,FALSE,"7"
"Aug 08 2014","14:06:53",14,"Short","No-socialFirst","Zero",4,"Chrome",4,"Switch","Novel37",2,"Novel4",1,2714,"straightahead",-1,0,0,1,(Aug 08 2014 14:06:53),0,TRUE,FALSE,4,FALSE,"7"
"Aug 08 2014","14:06:53",15,"Short","No-socialFirst","Zero",4,"Chrome",5,"Same","Novel50",3,"Novel50",3,598,"straightahead",-1,0,1,0,(Aug 08 2014 14:06:53),0,TRUE,FALSE,4,TRUE,"7"
"Aug 08 2014","14:06:53",16,"Short","No-socialFirst","Zero",4,"Chrome",5,"Same","Novel57",1,"Novel50",3,1198,"straightahead",-1,0,0,1,(Aug 08 2014 14:06:53),0,TRUE,FALSE,4,FALSE,"7"
"Aug 08 2014","14:06:53",17,"Short","No-socialFirst","Zero",4,"Chrome",6,"Switch","Novel125",2,"Novel29",0,1729,"straightahead",-1,0,1,0,(Aug 08 2014 14:06:53),0,TRUE,FALSE,4,FALSE,"7"
"Aug 08 2014","14:06:53",18,"Short","No-socialFirst","Zero",4,"Chrome",6,"Switch","Novel83",1,"Novel29",0,1620,"straightahead",-1,0,0,1,(Aug 08 2014 14:06:53),0,TRUE,FALSE,4,FALSE,"7"
"Aug 08 2014","14:06:53",19,"Short","No-socialFirst","Zero",4,"Chrome",7,"Same","Novel12",2,"Novel12",2,1353,"straightahead",-1,0,1,0,(Aug 08 2014 14:06:53),0,TRUE,FALSE,4,TRUE,"7"
"Aug 08 2014","14:06:53",20,"Short","No-socialFirst","Zero",4,"Chrome",7,"Same","Novel111",0,"Novel12",2,1382,"straightahead",-1,0,0,1,(Aug 08 2014 14:06:53),0,TRUE,FALSE,4,FALSE,"7"
"Aug 08 2014","14:06:53",21,"Short","No-socialFirst","Zero",4,"Chrome",8,"Switch","Novel18",3,"Novel1",0,1322,"silentRDmedium",2,0,1,0,(Aug 08 2014 14:06:53),0,TRUE,FALSE,4,FALSE,"7"
"Aug 08 2014","14:06:53",22,"Short","No-socialFirst","Zero",4,"Chrome",8,"Switch","Novel137",2,"Novel1",0,2763,"straightahead",-1,0,0,1,(Aug 08 2014 14:06:53),0,TRUE,FALSE,4,FALSE,"7"
"Aug 08 2014","14:06:53",23,"Short","No-socialFirst","Zero",4,"Chrome",9,"Same","Novel56",2,"Novel56",2,258,"silentLDmedium",0,0,1,0,(Aug 08 2014 14:06:53),0,TRUE,FALSE,4,TRUE,"7"
"Aug 08 2014","14:06:53",24,"Short","No-socialFirst","Zero",4,"Chrome",9,"Same","Novel56",3,"Novel56",2,1951,"straightahead",-1,0,0,1,(Aug 08 2014 14:06:53),0,TRUE,FALSE,4,TRUE,"7"
"Aug 08 2014","14:06:53",25,"Short","No-socialFirst","Zero",4,"Chrome",10,"Switch","Novel105",1,"Novel113",3,1980,"silentRDmedium",2,0,1,0,(Aug 08 2014 14:06:53),0,TRUE,FALSE,4,FALSE,"7"
"Aug 08 2014","14:06:53",26,"Short","No-socialFirst","Zero",4,"Chrome",10,"Switch","Novel46",1,"Novel113",3,80,"straightahead",-1,0,0,1,(Aug 08 2014 14:06:53),0,TRUE,FALSE,4,FALSE,"7"
"Aug 08 2014","14:06:53",27,"Short","No-socialFirst","Zero",4,"Chrome",11,"Same","Novel65",2,"Novel65",2,836,"silentLDmedium",0,0,1,0,(Aug 08 2014 14:06:53),0,TRUE,FALSE,4,TRUE,"7"
"Aug 08 2014","14:06:53",28,"Short","No-socialFirst","Zero",4,"Chrome",11,"Same","Novel65",1,"Novel65",2,1380,"straightahead",-1,0,0,1,(Aug 08 2014 14:06:53),0,TRUE,FALSE,4,TRUE,"7"
"Aug 08 2014","14:06:53",29,"Short","No-socialFirst","Zero",4,"Chrome",12,"Switch","Novel126",2,"Novel92",0,856,"silentLDmedium",0,0,1,0,(Aug 08 2014 14:06:53),0,TRUE,FALSE,4,FALSE,"7"
"Aug 08 2014","14:06:53",30,"Short","No-socialFirst","Zero",4,"Chrome",12,"Switch","Novel121",1,"Novel92",0,788,"straightahead",-1,0,0,1,(Aug 08 2014 14:06:53),0,TRUE,FALSE,4,FALSE,"7"
"Aug 08 2014","14:06:53",31,"Short","No-socialFirst","Zero",4,"Chrome",13,"Same","Novel112",0,"Novel112",0,644,"silentLUmedium",1,0,1,0,(Aug 08 2014 14:06:53),0,TRUE,FALSE,4,TRUE,"7"
"Aug 08 2014","14:06:53",32,"Short","No-socialFirst","Zero",4,"Chrome",13,"Same","Novel45",1,"Novel112",0,1601,"straightahead",-1,0,0,1,(Aug 08 2014 14:06:53),0,TRUE,FALSE,4,FALSE,"7"
"Aug 08 2014","14:06:53",33,"Short","No-socialFirst","Zero",4,"Chrome",14,"Switch","Novel86",1,"Novel59",0,60,"silentRUmedium",3,0,1,0,(Aug 08 2014 14:06:53),0,TRUE,FALSE,4,FALSE,"7"
"Aug 08 2014","14:06:53",34,"Short","No-socialFirst","Zero",4,"Chrome",14,"Switch","Novel39",1,"Novel59",0,108,"straightahead",-1,0,0,1,(Aug 08 2014 14:06:53),0,TRUE,FALSE,4,FALSE,"7"
"Aug 08 2014","14:06:53",35,"Short","No-socialFirst","Zero",4,"Chrome",15,"Same","Novel70",0,"Novel70",0,897,"silentLUmedium",1,0,1,0,(Aug 08 2014 14:06:53),0,TRUE,FALSE,4,TRUE,"7"
"Aug 08 2014","14:06:53",36,"Short","No-socialFirst","Zero",4,"Chrome",15,"Same","Novel70",1,"Novel70",0,216,"straightahead",-1,0,0,1,(Aug 08 2014 14:06:53),0,TRUE,FALSE,4,TRUE,"7"
"Aug 08 2014","13:54:09",1,"Short","SocialFirst","Zero",4,"Chrome",0,"Same","squirrel",0,"",0,1938,"straightahead",-1,1,0,0,(Aug 08 2014 13:54:09),0,TRUE,FALSE,4,FALSE,"8"
"Aug 08 2014","13:54:09",2,"Short","SocialFirst","Zero",4,"Chrome",0,"Same","squirrel",0,"",0,905,"straightahead",-1,1,0,0,(Aug 08 2014 13:54:09),0,TRUE,FALSE,4,FALSE,"8"
"Aug 08 2014","13:54:09",3,"Short","SocialFirst","Zero",4,"Chrome",0,"Same","tomato",1,"",0,809,"straightahead",-1,1,0,0,(Aug 08 2014 13:54:09),0,TRUE,FALSE,4,FALSE,"8"
"Aug 08 2014","13:54:09",4,"Short","SocialFirst","Zero",4,"Chrome",0,"Same","tomato",2,"",0,1007,"straightahead",-1,1,0,0,(Aug 08 2014 13:54:09),0,TRUE,FALSE,4,FALSE,"8"
"Aug 08 2014","13:54:09",5,"Short","SocialFirst","Zero",4,"Chrome",0,"Same","Novel127",0,"Novel127",0,14066,"silentLDshort",0,0,1,0,(Aug 08 2014 13:54:09),0,TRUE,FALSE,4,TRUE,"8"
"Aug 08 2014","13:54:09",6,"Short","SocialFirst","Zero",4,"Chrome",0,"Same","Novel127",0,"Novel127",0,474,"straightahead",-1,0,0,1,(Aug 08 2014 13:54:09),0,TRUE,TRUE,4,TRUE,"8"
"Aug 08 2014","13:54:09",7,"Short","SocialFirst","Zero",4,"Chrome",1,"Switch","Novel96",1,"Novel67",2,3237,"silentRUshort",3,0,1,0,(Aug 08 2014 13:54:09),0,TRUE,FALSE,4,FALSE,"8"
"Aug 08 2014","13:54:09",8,"Short","SocialFirst","Zero",4,"Chrome",1,"Switch","Novel34",0,"Novel67",2,8992,"straightahead",-1,0,0,1,(Aug 08 2014 13:54:09),0,TRUE,FALSE,4,FALSE,"8"
"Aug 08 2014","13:54:09",9,"Short","SocialFirst","Zero",4,"Chrome",2,"Same","Novel29",0,"Novel29",0,2090,"silentLUshort",1,0,1,0,(Aug 08 2014 13:54:09),0,TRUE,FALSE,4,TRUE,"8"
"Aug 08 2014","13:54:09",10,"Short","SocialFirst","Zero",4,"Chrome",2,"Same","Novel29",3,"Novel29",0,1319,"straightahead",-1,0,0,1,(Aug 08 2014 13:54:09),0,TRUE,FALSE,4,TRUE,"8"
"Aug 08 2014","13:54:09",11,"Short","SocialFirst","Zero",4,"Chrome",3,"Switch","Novel64",0,"Novel55",1,1496,"silentLDshort",0,0,1,0,(Aug 08 2014 13:54:09),0,TRUE,FALSE,4,FALSE,"8"
"Aug 08 2014","13:54:09",12,"Short","SocialFirst","Zero",4,"Chrome",3,"Switch","Novel38",0,"Novel55",1,4903,"straightahead",-1,0,0,1,(Aug 08 2014 13:54:09),0,TRUE,FALSE,4,FALSE,"8"
"Aug 08 2014","13:54:09",13,"Short","SocialFirst","Zero",4,"Chrome",4,"Same","Novel15",0,"Novel15",0,2752,"silentRDshort",2,0,1,0,(Aug 08 2014 13:54:09),0,TRUE,FALSE,4,TRUE,"8"
"Aug 08 2014","13:54:09",14,"Short","SocialFirst","Zero",4,"Chrome",4,"Same","Novel15",0,"Novel15",0,342,"straightahead",-1,0,0,1,(Aug 08 2014 13:54:09),0,TRUE,FALSE,4,TRUE,"8"
"Aug 08 2014","13:54:09",15,"Short","SocialFirst","Zero",4,"Chrome",5,"Switch","Novel41",3,"Novel124",1,5040,"silentLDshort",0,0,1,0,(Aug 08 2014 13:54:09),0,TRUE,FALSE,4,FALSE,"8"
"Aug 08 2014","13:54:09",16,"Short","SocialFirst","Zero",4,"Chrome",5,"Switch","Novel45",0,"Novel124",1,4359,"straightahead",-1,0,0,1,(Aug 08 2014 13:54:09),0,TRUE,FALSE,4,FALSE,"8"
"Aug 08 2014","13:54:09",17,"Short","SocialFirst","Zero",4,"Chrome",6,"Same","Novel118",0,"Novel118",0,11265,"silentRUshort",3,0,1,0,(Aug 08 2014 13:54:09),0,TRUE,FALSE,4,TRUE,"8"
"Aug 08 2014","13:54:09",18,"Short","SocialFirst","Zero",4,"Chrome",6,"Same","Novel105",0,"Novel118",0,7455,"straightahead",-1,0,0,1,(Aug 08 2014 13:54:09),0,TRUE,FALSE,4,FALSE,"8"
"Aug 08 2014","13:54:09",19,"Short","SocialFirst","Zero",4,"Chrome",7,"Switch","Novel70",0,"Novel76",3,4267,"silentLUshort",1,0,1,0,(Aug 08 2014 13:54:09),0,TRUE,FALSE,4,FALSE,"8"
"Aug 08 2014","13:54:09",20,"Short","SocialFirst","Zero",4,"Chrome",7,"Switch","Novel76",0,"Novel76",3,4375,"straightahead",-1,0,0,1,(Aug 08 2014 13:54:09),0,TRUE,FALSE,4,TRUE,"8"
"Aug 08 2014","13:54:09",21,"Short","SocialFirst","Zero",4,"Chrome",8,"Same","Novel78",2,"Novel78",2,7268,"straightahead",-1,0,1,0,(Aug 08 2014 13:54:09),0,TRUE,FALSE,4,TRUE,"8"
"Aug 08 2014","13:54:09",22,"Short","SocialFirst","Zero",4,"Chrome",8,"Same","Novel78",1,"Novel78",2,1799,"straightahead",-1,0,0,1,(Aug 08 2014 13:54:09),0,TRUE,FALSE,4,TRUE,"8"
"Aug 08 2014","13:54:09",23,"Short","SocialFirst","Zero",4,"Chrome",9,"Switch","Novel83",0,"Novel81",3,842,"straightahead",-1,0,1,0,(Aug 08 2014 13:54:09),0,TRUE,FALSE,4,FALSE,"8"
"Aug 08 2014","13:54:09",24,"Short","SocialFirst","Zero",4,"Chrome",9,"Switch","Novel5",0,"Novel81",3,2695,"straightahead",-1,0,0,1,(Aug 08 2014 13:54:09),0,TRUE,FALSE,4,FALSE,"8"
"Aug 08 2014","13:54:09",25,"Short","SocialFirst","Zero",4,"Chrome",10,"Same","Novel88",0,"Novel88",0,993,"straightahead",-1,0,1,0,(Aug 08 2014 13:54:09),0,TRUE,FALSE,4,TRUE,"8"
"Aug 08 2014","13:54:09",26,"Short","SocialFirst","Zero",4,"Chrome",10,"Same","Novel88",1,"Novel88",0,395,"straightahead",-1,0,0,1,(Aug 08 2014 13:54:09),0,TRUE,FALSE,4,TRUE,"8"
"Aug 08 2014","13:54:09",27,"Short","SocialFirst","Zero",4,"Chrome",11,"Switch","Novel25",3,"Novel17",0,2159,"straightahead",-1,0,1,0,(Aug 08 2014 13:54:09),0,TRUE,FALSE,4,FALSE,"8"
"Aug 08 2014","13:54:09",28,"Short","SocialFirst","Zero",4,"Chrome",11,"Switch","Novel110",0,"Novel17",0,6463,"straightahead",-1,0,0,1,(Aug 08 2014 13:54:09),0,TRUE,FALSE,4,FALSE,"8"
"Aug 08 2014","13:54:09",29,"Short","SocialFirst","Zero",4,"Chrome",12,"Same","Novel98",1,"Novel98",1,3675,"straightahead",-1,0,1,0,(Aug 08 2014 13:54:09),0,TRUE,FALSE,4,TRUE,"8"
"Aug 08 2014","13:54:09",30,"Short","SocialFirst","Zero",4,"Chrome",12,"Same","Novel98",3,"Novel98",1,64,"straightahead",-1,0,0,1,(Aug 08 2014 13:54:09),0,TRUE,FALSE,4,TRUE,"8"
"Aug 08 2014","13:54:09",31,"Short","SocialFirst","Zero",4,"Chrome",13,"Switch","Novel94",2,"Novel97",3,2594,"straightahead",-1,0,1,0,(Aug 08 2014 13:54:09),0,TRUE,FALSE,4,FALSE,"8"
"Aug 08 2014","13:54:09",32,"Short","SocialFirst","Zero",4,"Chrome",13,"Switch","Novel4",2,"Novel97",3,2703,"straightahead",-1,0,0,1,(Aug 08 2014 13:54:09),0,TRUE,FALSE,4,FALSE,"8"
"Aug 08 2014","13:54:09",33,"Short","SocialFirst","Zero",4,"Chrome",14,"Same","Novel65",1,"Novel65",1,2339,"straightahead",-1,0,1,0,(Aug 08 2014 13:54:09),0,TRUE,FALSE,4,TRUE,"8"
"Aug 08 2014","13:54:09",34,"Short","SocialFirst","Zero",4,"Chrome",14,"Same","Novel65",2,"Novel65",1,375,"straightahead",-1,0,0,1,(Aug 08 2014 13:54:09),0,TRUE,FALSE,4,TRUE,"8"
"Aug 08 2014","13:54:09",35,"Short","SocialFirst","Zero",4,"Chrome",15,"Switch","Novel138",3,"Novel58",2,2835,"straightahead",-1,0,1,0,(Aug 08 2014 13:54:09),0,TRUE,FALSE,4,FALSE,"8"
"Aug 08 2014","13:54:09",36,"Short","SocialFirst","Zero",4,"Chrome",15,"Switch","Novel71",2,"Novel58",2,1983,"straightahead",-1,0,0,1,(Aug 08 2014 13:54:09),0,TRUE,FALSE,4,FALSE,"8"
"Aug 08 2014","16:44:15",1,"Short","SocialFirst","Zero",4,"Chrome",0,"Same","squirrel",0,"",0,559,"straightahead",-1,1,0,0,(Aug 08 2014 16:44:15),0,TRUE,FALSE,4,FALSE,"9"
"Aug 08 2014","16:44:15",2,"Short","SocialFirst","Zero",4,"Chrome",0,"Same","squirrel",0,"",0,76,"straightahead",-1,1,0,0,(Aug 08 2014 16:44:15),0,TRUE,FALSE,4,FALSE,"9"
"Aug 08 2014","16:44:15",3,"Short","SocialFirst","Zero",4,"Chrome",0,"Same","tomato",1,"",0,389,"straightahead",-1,1,0,0,(Aug 08 2014 16:44:15),0,TRUE,FALSE,4,FALSE,"9"
"Aug 08 2014","16:44:15",4,"Short","SocialFirst","Zero",4,"Chrome",0,"Same","tomato",2,"",0,249,"straightahead",-1,1,0,0,(Aug 08 2014 16:44:15),0,TRUE,FALSE,4,FALSE,"9"
"Aug 08 2014","16:44:15",5,"Short","SocialFirst","Zero",4,"Chrome",0,"Same","Novel62",1,"Novel62",1,129,"silentRDshort",2,0,1,0,(Aug 08 2014 16:44:15),0,TRUE,FALSE,4,TRUE,"9"
"Aug 08 2014","16:44:15",6,"Short","SocialFirst","Zero",4,"Chrome",0,"Same","Novel62",1,"Novel62",1,762,"straightahead",-1,0,0,1,(Aug 08 2014 16:44:15),0,TRUE,TRUE,4,TRUE,"9"
"Aug 08 2014","16:44:15",7,"Short","SocialFirst","Zero",4,"Chrome",1,"Switch","Novel106",2,"Novel135",1,1594,"silentRUshort",3,0,1,0,(Aug 08 2014 16:44:15),0,TRUE,FALSE,4,FALSE,"9"
"Aug 08 2014","16:44:15",8,"Short","SocialFirst","Zero",4,"Chrome",1,"Switch","Novel61",1,"Novel135",1,1728,"straightahead",-1,0,0,1,(Aug 08 2014 16:44:15),0,TRUE,FALSE,4,FALSE,"9"
"Aug 08 2014","16:44:15",9,"Short","SocialFirst","Zero",4,"Chrome",2,"Same","Novel74",3,"Novel74",3,445,"silentRDshort",2,0,1,0,(Aug 08 2014 16:44:15),0,TRUE,FALSE,4,TRUE,"9"
"Aug 08 2014","16:44:15",10,"Short","SocialFirst","Zero",4,"Chrome",2,"Same","Novel74",0,"Novel74",3,64,"straightahead",-1,0,0,1,(Aug 08 2014 16:44:15),0,TRUE,FALSE,4,TRUE,"9"
"Aug 08 2014","16:44:15",11,"Short","SocialFirst","Zero",4,"Chrome",3,"Switch","Novel87",1,"Novel114",2,750,"silentLDshort",0,0,1,0,(Aug 08 2014 16:44:15),0,TRUE,FALSE,4,FALSE,"9"
"Aug 08 2014","16:44:15",12,"Short","SocialFirst","Zero",4,"Chrome",3,"Switch","Novel131",0,"Novel114",2,613,"straightahead",-1,0,0,1,(Aug 08 2014 16:44:15),0,TRUE,FALSE,4,FALSE,"9"
"Aug 08 2014","16:44:15",13,"Short","SocialFirst","Zero",4,"Chrome",4,"Same","Novel124",0,"Novel124",0,1351,"silentRDshort",2,0,1,0,(Aug 08 2014 16:44:15),0,TRUE,FALSE,4,TRUE,"9"
"Aug 08 2014","16:44:15",14,"Short","SocialFirst","Zero",4,"Chrome",4,"Same","Novel124",0,"Novel124",0,118,"straightahead",-1,0,0,1,(Aug 08 2014 16:44:15),0,TRUE,FALSE,4,TRUE,"9"
"Aug 08 2014","16:44:15",15,"Short","SocialFirst","Zero",4,"Chrome",5,"Switch","Novel121",2,"Novel72",1,249,"silentLUshort",1,0,1,0,(Aug 08 2014 16:44:15),0,TRUE,FALSE,4,FALSE,"9"
"Aug 08 2014","16:44:15",16,"Short","SocialFirst","Zero",4,"Chrome",5,"Switch","Novel103",2,"Novel72",1,251,"straightahead",-1,0,0,1,(Aug 08 2014 16:44:15),0,TRUE,FALSE,4,FALSE,"9"
"Aug 08 2014","16:44:15",17,"Short","SocialFirst","Zero",4,"Chrome",6,"Same","Novel96",0,"Novel96",0,832,"silentLUshort",1,0,1,0,(Aug 08 2014 16:44:15),0,TRUE,FALSE,4,TRUE,"9"
"Aug 08 2014","16:44:15",18,"Short","SocialFirst","Zero",4,"Chrome",6,"Same","Novel96",3,"Novel96",0,173,"straightahead",-1,0,0,1,(Aug 08 2014 16:44:15),0,TRUE,FALSE,4,TRUE,"9"
"Aug 08 2014","16:44:15",19,"Short","SocialFirst","Zero",4,"Chrome",7,"Switch","Novel97",2,"Novel128",3,95,"silentLUshort",1,0,1,0,(Aug 08 2014 16:44:15),0,TRUE,FALSE,4,FALSE,"9"
"Aug 08 2014","16:44:15",20,"Short","SocialFirst","Zero",4,"Chrome",7,"Switch","Novel128",3,"Novel128",3,1882,"straightahead",-1,0,0,1,(Aug 08 2014 16:44:15),0,TRUE,FALSE,4,TRUE,"9"
"Aug 08 2014","16:44:15",21,"Short","SocialFirst","Zero",4,"Chrome",8,"Same","Novel46",0,"Novel46",0,547,"straightahead",-1,0,1,0,(Aug 08 2014 16:44:15),0,TRUE,FALSE,4,TRUE,"9"
"Aug 08 2014","16:44:15",22,"Short","SocialFirst","Zero",4,"Chrome",8,"Same","Novel46",2,"Novel46",0,386,"straightahead",-1,0,0,1,(Aug 08 2014 16:44:15),0,TRUE,FALSE,4,TRUE,"9"
"Aug 08 2014","16:44:15",23,"Short","SocialFirst","Zero",4,"Chrome",9,"Switch","Novel59",2,"Novel45",0,408,"straightahead",-1,0,1,0,(Aug 08 2014 16:44:15),0,TRUE,FALSE,4,FALSE,"9"
"Aug 08 2014","16:44:15",24,"Short","SocialFirst","Zero",4,"Chrome",9,"Switch","Novel45",2,"Novel45",0,40,"straightahead",-1,0,0,1,(Aug 08 2014 16:44:15),0,TRUE,FALSE,4,TRUE,"9"
"Aug 08 2014","16:44:15",25,"Short","SocialFirst","Zero",4,"Chrome",10,"Same","Novel8",1,"Novel8",1,588,"straightahead",-1,0,1,0,(Aug 08 2014 16:44:15),0,TRUE,FALSE,4,TRUE,"9"
"Aug 08 2014","16:44:15",26,"Short","SocialFirst","Zero",4,"Chrome",10,"Same","Novel8",3,"Novel8",1,411,"straightahead",-1,0,0,1,(Aug 08 2014 16:44:15),0,TRUE,FALSE,4,TRUE,"9"
"Aug 08 2014","16:44:15",27,"Short","SocialFirst","Zero",4,"Chrome",11,"Switch","Novel44",3,"Novel40",0,113,"straightahead",-1,0,1,0,(Aug 08 2014 16:44:15),0,TRUE,FALSE,4,FALSE,"9"
"Aug 08 2014","16:44:15",28,"Short","SocialFirst","Zero",4,"Chrome",11,"Switch","Novel23",0,"Novel40",0,557,"straightahead",-1,0,0,1,(Aug 08 2014 16:44:15),0,TRUE,FALSE,4,FALSE,"9"
"Aug 08 2014","16:44:15",29,"Short","SocialFirst","Zero",4,"Chrome",12,"Same","Novel9",0,"Novel9",0,441,"straightahead",-1,0,1,0,(Aug 08 2014 16:44:15),0,TRUE,FALSE,4,TRUE,"9"
"Aug 08 2014","16:44:15",30,"Short","SocialFirst","Zero",4,"Chrome",12,"Same","Novel9",3,"Novel9",0,46,"straightahead",-1,0,0,1,(Aug 08 2014 16:44:15),0,TRUE,FALSE,4,TRUE,"9"
"Aug 08 2014","16:44:15",31,"Short","SocialFirst","Zero",4,"Chrome",13,"Switch","Novel101",0,"Novel11",2,1168,"straightahead",-1,0,1,0,(Aug 08 2014 16:44:15),0,TRUE,FALSE,4,FALSE,"9"
"Aug 08 2014","16:44:15",32,"Short","SocialFirst","Zero",4,"Chrome",13,"Switch","Novel11",0,"Novel11",2,385,"straightahead",-1,0,0,1,(Aug 08 2014 16:44:15),0,TRUE,FALSE,4,TRUE,"9"
"Aug 08 2014","16:44:15",33,"Short","SocialFirst","Zero",4,"Chrome",14,"Same","Novel42",0,"Novel42",0,4500,"straightahead",-1,0,1,0,(Aug 08 2014 16:44:15),0,TRUE,FALSE,4,TRUE,"9"
"Aug 08 2014","16:44:15",34,"Short","SocialFirst","Zero",4,"Chrome",14,"Same","Novel42",2,"Novel42",0,433,"straightahead",-1,0,0,1,(Aug 08 2014 16:44:15),0,TRUE,FALSE,4,TRUE,"9"
"Aug 08 2014","16:44:15",35,"Short","SocialFirst","Zero",4,"Chrome",15,"Switch","Novel91",0,"Novel32",1,543,"straightahead",-1,0,1,0,(Aug 08 2014 16:44:15),0,TRUE,FALSE,4,FALSE,"9"
"Aug 08 2014","16:44:15",36,"Short","SocialFirst","Zero",4,"Chrome",15,"Switch","Novel111",0,"Novel32",1,185,"straightahead",-1,0,0,1,(Aug 08 2014 16:44:15),0,TRUE,FALSE,4,FALSE,"9"
"Aug 08 2014","18:12:46",1,"Short","SocialFirst","Zero",4,"Chrome",0,"Switch","squirrel",0,"",0,586,"straightahead",-1,1,0,0,(Aug 08 2014 18:12:46),0,TRUE,FALSE,4,FALSE,"10"
"Aug 08 2014","18:12:46",2,"Short","SocialFirst","Zero",4,"Chrome",0,"Switch","squirrel",0,"",0,125,"straightahead",-1,1,0,0,(Aug 08 2014 18:12:46),0,TRUE,FALSE,4,FALSE,"10"
"Aug 08 2014","18:12:46",3,"Short","SocialFirst","Zero",4,"Chrome",0,"Switch","tomato",1,"",0,256,"straightahead",-1,1,0,0,(Aug 08 2014 18:12:46),0,TRUE,FALSE,4,FALSE,"10"
"Aug 08 2014","18:12:46",4,"Short","SocialFirst","Zero",4,"Chrome",0,"Switch","tomato",2,"",0,820,"straightahead",-1,1,0,0,(Aug 08 2014 18:12:46),0,TRUE,FALSE,4,FALSE,"10"
"Aug 08 2014","18:12:46",5,"Short","SocialFirst","Zero",4,"Chrome",0,"Switch","Novel110",2,"Novel83",1,1936,"silentLUshort",1,0,1,0,(Aug 08 2014 18:12:46),0,TRUE,FALSE,4,FALSE,"10"
"Aug 08 2014","18:12:46",6,"Short","SocialFirst","Zero",4,"Chrome",0,"Switch","Novel83",1,"Novel83",1,2469,"straightahead",-1,0,0,1,(Aug 08 2014 18:12:46),0,TRUE,TRUE,4,TRUE,"10"
"Aug 08 2014","18:12:46",7,"Short","SocialFirst","Zero",4,"Chrome",1,"Same","Novel118",1,"Novel118",1,1222,"silentRUshort",3,0,1,0,(Aug 08 2014 18:12:46),0,TRUE,FALSE,4,TRUE,"10"
"Aug 08 2014","18:12:46",8,"Short","SocialFirst","Zero",4,"Chrome",1,"Same","Novel118",1,"Novel118",1,645,"straightahead",-1,0,0,1,(Aug 08 2014 18:12:46),0,TRUE,FALSE,4,TRUE,"10"
"Aug 08 2014","18:12:46",9,"Short","SocialFirst","Zero",4,"Chrome",2,"Switch","Novel132",1,"Novel64",2,3061,"silentLDshort",0,0,1,0,(Aug 08 2014 18:12:46),0,TRUE,FALSE,4,FALSE,"10"
"Aug 08 2014","18:12:46",10,"Short","SocialFirst","Zero",4,"Chrome",2,"Switch","Novel91",0,"Novel64",2,2329,"straightahead",-1,0,0,1,(Aug 08 2014 18:12:46),0,TRUE,FALSE,4,FALSE,"10"
"Aug 08 2014","18:12:46",11,"Short","SocialFirst","Zero",4,"Chrome",3,"Same","Novel114",2,"Novel114",2,3406,"silentLDshort",0,0,1,0,(Aug 08 2014 18:12:46),0,TRUE,FALSE,4,TRUE,"10"
"Aug 08 2014","18:12:46",12,"Short","SocialFirst","Zero",4,"Chrome",3,"Same","Novel114",1,"Novel114",2,922,"straightahead",-1,0,0,1,(Aug 08 2014 18:12:46),0,TRUE,FALSE,4,TRUE,"10"
"Aug 08 2014","18:12:46",13,"Short","SocialFirst","Zero",4,"Chrome",4,"Switch","Novel44",0,"Novel56",2,3049,"silentLDshort",0,0,1,0,(Aug 08 2014 18:12:46),0,TRUE,FALSE,4,FALSE,"10"
"Aug 08 2014","18:12:46",14,"Short","SocialFirst","Zero",4,"Chrome",4,"Switch","Novel56",1,"Novel56",2,2527,"straightahead",-1,0,0,1,(Aug 08 2014 18:12:46),0,TRUE,FALSE,4,TRUE,"10"
"Aug 08 2014","18:12:46",15,"Short","SocialFirst","Zero",4,"Chrome",5,"Same","Novel133",3,"Novel133",3,6886,"silentRDshort",2,0,1,0,(Aug 08 2014 18:12:46),0,TRUE,FALSE,4,TRUE,"10"
"Aug 08 2014","18:12:46",16,"Short","SocialFirst","Zero",4,"Chrome",5,"Same","Novel61",2,"Novel133",3,1700,"straightahead",-1,0,0,1,(Aug 08 2014 18:12:46),0,TRUE,FALSE,4,FALSE,"10"
"Aug 08 2014","18:12:46",17,"Short","SocialFirst","Zero",4,"Chrome",6,"Switch","Novel35",2,"Novel96",0,25598,"silentLUshort",1,0,1,0,(Aug 08 2014 18:12:46),0,TRUE,FALSE,4,FALSE,"10"
"Aug 08 2014","18:12:46",18,"Short","SocialFirst","Zero",4,"Chrome",6,"Switch","Novel1",3,"Novel96",0,1263,"straightahead",-1,0,0,1,(Aug 08 2014 18:12:46),0,TRUE,FALSE,4,FALSE,"10"
"Aug 08 2014","18:12:46",19,"Short","SocialFirst","Zero",4,"Chrome",7,"Same","Novel134",3,"Novel134",3,1128,"silentLUshort",1,0,1,0,(Aug 08 2014 18:12:46),0,TRUE,FALSE,4,TRUE,"10"
"Aug 08 2014","18:12:46",20,"Short","SocialFirst","Zero",4,"Chrome",7,"Same","Novel134",0,"Novel134",3,61,"straightahead",-1,0,0,1,(Aug 08 2014 18:12:46),0,TRUE,FALSE,4,TRUE,"10"
"Aug 08 2014","18:12:46",21,"Short","SocialFirst","Zero",4,"Chrome",8,"Switch","Novel33",1,"Novel123",0,1630,"straightahead",-1,0,1,0,(Aug 08 2014 18:12:46),0,TRUE,FALSE,4,FALSE,"10"
"Aug 08 2014","18:12:46",22,"Short","SocialFirst","Zero",4,"Chrome",8,"Switch","Novel12",2,"Novel123",0,521,"straightahead",-1,0,0,1,(Aug 08 2014 18:12:46),0,TRUE,FALSE,4,FALSE,"10"
"Aug 08 2014","18:12:46",23,"Short","SocialFirst","Zero",4,"Chrome",9,"Same","Novel46",0,"Novel46",0,471,"straightahead",-1,0,1,0,(Aug 08 2014 18:12:46),0,TRUE,FALSE,4,TRUE,"10"
"Aug 08 2014","18:12:46",24,"Short","SocialFirst","Zero",4,"Chrome",9,"Same","Novel46",1,"Novel46",0,241,"straightahead",-1,0,0,1,(Aug 08 2014 18:12:46),0,TRUE,FALSE,4,TRUE,"10"
"Aug 08 2014","18:12:46",25,"Short","SocialFirst","Zero",4,"Chrome",10,"Switch","Novel58",3,"Novel43",2,619,"straightahead",-1,0,1,0,(Aug 08 2014 18:12:46),0,TRUE,FALSE,4,FALSE,"10"
"Aug 08 2014","18:12:46",26,"Short","SocialFirst","Zero",4,"Chrome",10,"Switch","Novel130",2,"Novel43",2,665,"straightahead",-1,0,0,1,(Aug 08 2014 18:12:46),0,TRUE,FALSE,4,FALSE,"10"
"Aug 08 2014","18:12:46",27,"Short","SocialFirst","Zero",4,"Chrome",11,"Same","Novel122",3,"Novel122",3,2420,"straightahead",-1,0,1,0,(Aug 08 2014 18:12:46),0,TRUE,FALSE,4,TRUE,"10"
"Aug 08 2014","18:12:46",28,"Short","SocialFirst","Zero",4,"Chrome",11,"Same","Novel122",0,"Novel122",3,692,"straightahead",-1,0,0,1,(Aug 08 2014 18:12:46),0,TRUE,FALSE,4,TRUE,"10"
"Aug 08 2014","18:12:46",29,"Short","SocialFirst","Zero",4,"Chrome",12,"Switch","Novel138",1,"Novel90",2,8845,"straightahead",-1,0,1,0,(Aug 08 2014 18:12:46),0,TRUE,FALSE,4,FALSE,"10"
"Aug 08 2014","18:12:46",30,"Short","SocialFirst","Zero",4,"Chrome",12,"Switch","Novel32",0,"Novel90",2,1001,"straightahead",-1,0,0,1,(Aug 08 2014 18:12:46),0,TRUE,FALSE,4,FALSE,"10"
"Aug 08 2014","18:12:46",31,"Short","SocialFirst","Zero",4,"Chrome",13,"Same","Novel128",0,"Novel128",0,3490,"straightahead",-1,0,1,0,(Aug 08 2014 18:12:46),0,TRUE,FALSE,4,TRUE,"10"
"Aug 08 2014","18:12:46",32,"Short","SocialFirst","Zero",4,"Chrome",13,"Same","Novel128",2,"Novel128",0,415,"straightahead",-1,0,0,1,(Aug 08 2014 18:12:46),0,TRUE,FALSE,4,TRUE,"10"
"Aug 08 2014","18:12:46",33,"Short","SocialFirst","Zero",4,"Chrome",14,"Switch","Novel18",3,"Novel60",0,466,"straightahead",-1,0,1,0,(Aug 08 2014 18:12:46),0,TRUE,FALSE,4,FALSE,"10"
"Aug 08 2014","18:12:46",34,"Short","SocialFirst","Zero",4,"Chrome",14,"Switch","Novel60",1,"Novel60",0,6711,"straightahead",-1,0,0,1,(Aug 08 2014 18:12:46),0,TRUE,FALSE,4,TRUE,"10"
"Aug 08 2014","18:12:46",35,"Short","SocialFirst","Zero",4,"Chrome",15,"Same","Novel79",2,"Novel79",2,1907,"straightahead",-1,0,1,0,(Aug 08 2014 18:12:46),0,TRUE,FALSE,4,TRUE,"10"
"Aug 08 2014","18:12:46",36,"Short","SocialFirst","Zero",4,"Chrome",15,"Same","Novel41",1,"Novel79",2,24797,"straightahead",-1,0,0,1,(Aug 08 2014 18:12:46),0,TRUE,FALSE,4,FALSE,"10"
"Aug 08 2014","15:40:41",1,"Short","No-socialFirst","Zero",4,"Chrome",0,"Switch","squirrel",0,"",0,708,"straightahead",-1,1,0,0,(Aug 08 2014 15:40:41),0,TRUE,FALSE,4,FALSE,"11"
"Aug 08 2014","15:40:41",2,"Short","No-socialFirst","Zero",4,"Chrome",0,"Switch","squirrel",0,"",0,2362,"straightahead",-1,1,0,0,(Aug 08 2014 15:40:41),0,TRUE,FALSE,4,FALSE,"11"
"Aug 08 2014","15:40:41",3,"Short","No-socialFirst","Zero",4,"Chrome",0,"Switch","tomato",1,"",0,93,"straightahead",-1,1,0,0,(Aug 08 2014 15:40:41),0,TRUE,FALSE,4,FALSE,"11"
"Aug 08 2014","15:40:41",4,"Short","No-socialFirst","Zero",4,"Chrome",0,"Switch","tomato",2,"",0,481,"straightahead",-1,1,0,0,(Aug 08 2014 15:40:41),0,TRUE,FALSE,4,FALSE,"11"
"Aug 08 2014","15:40:41",5,"Short","No-socialFirst","Zero",4,"Chrome",0,"Switch","Novel109",0,"Novel66",1,3867,"straightahead",-1,0,1,0,(Aug 08 2014 15:40:41),0,TRUE,FALSE,4,FALSE,"11"
"Aug 08 2014","15:40:41",6,"Short","No-socialFirst","Zero",4,"Chrome",0,"Switch","Novel66",1,"Novel66",1,740,"straightahead",-1,0,0,1,(Aug 08 2014 15:40:41),0,TRUE,TRUE,4,TRUE,"11"
"Aug 08 2014","15:40:41",7,"Short","No-socialFirst","Zero",4,"Chrome",1,"Same","Novel117",1,"Novel117",1,4022,"straightahead",-1,0,1,0,(Aug 08 2014 15:40:41),0,TRUE,FALSE,4,TRUE,"11"
"Aug 08 2014","15:40:41",8,"Short","No-socialFirst","Zero",4,"Chrome",1,"Same","Novel97",1,"Novel117",1,1179,"straightahead",-1,0,0,1,(Aug 08 2014 15:40:41),0,TRUE,FALSE,4,FALSE,"11"
"Aug 08 2014","15:40:41",9,"Short","No-socialFirst","Zero",4,"Chrome",2,"Switch","Novel1",2,"Novel27",0,846,"straightahead",-1,0,1,0,(Aug 08 2014 15:40:41),0,TRUE,FALSE,4,FALSE,"11"
"Aug 08 2014","15:40:41",10,"Short","No-socialFirst","Zero",4,"Chrome",2,"Switch","Novel60",1,"Novel27",0,747,"straightahead",-1,0,0,1,(Aug 08 2014 15:40:41),0,TRUE,FALSE,4,FALSE,"11"
"Aug 08 2014","15:40:41",11,"Short","No-socialFirst","Zero",4,"Chrome",3,"Same","Novel52",1,"Novel52",1,847,"straightahead",-1,0,1,0,(Aug 08 2014 15:40:41),0,TRUE,FALSE,4,TRUE,"11"
"Aug 08 2014","15:40:41",12,"Short","No-socialFirst","Zero",4,"Chrome",3,"Same","Novel52",2,"Novel52",1,993,"straightahead",-1,0,0,1,(Aug 08 2014 15:40:41),0,TRUE,FALSE,4,TRUE,"11"
"Aug 08 2014","15:40:41",13,"Short","No-socialFirst","Zero",4,"Chrome",4,"Switch","Novel70",1,"Novel28",0,1626,"straightahead",-1,0,1,0,(Aug 08 2014 15:40:41),0,TRUE,FALSE,4,FALSE,"11"
"Aug 08 2014","15:40:41",14,"Short","No-socialFirst","Zero",4,"Chrome",4,"Switch","Novel91",2,"Novel28",0,2947,"straightahead",-1,0,0,1,(Aug 08 2014 15:40:41),0,TRUE,FALSE,4,FALSE,"11"
"Aug 08 2014","15:40:41",15,"Short","No-socialFirst","Zero",4,"Chrome",5,"Same","Novel17",3,"Novel17",3,2462,"straightahead",-1,0,1,0,(Aug 08 2014 15:40:41),0,TRUE,FALSE,4,TRUE,"11"
"Aug 08 2014","15:40:41",16,"Short","No-socialFirst","Zero",4,"Chrome",5,"Same","Novel17",3,"Novel17",3,423,"straightahead",-1,0,0,1,(Aug 08 2014 15:40:41),0,TRUE,FALSE,4,TRUE,"11"
"Aug 08 2014","15:40:41",17,"Short","No-socialFirst","Zero",4,"Chrome",6,"Switch","Novel118",1,"Novel111",0,1158,"straightahead",-1,0,1,0,(Aug 08 2014 15:40:41),0,TRUE,FALSE,4,FALSE,"11"
"Aug 08 2014","15:40:41",18,"Short","No-socialFirst","Zero",4,"Chrome",6,"Switch","Novel104",3,"Novel111",0,595,"straightahead",-1,0,0,1,(Aug 08 2014 15:40:41),0,TRUE,FALSE,4,FALSE,"11"
"Aug 08 2014","15:40:41",19,"Short","No-socialFirst","Zero",4,"Chrome",7,"Same","Novel98",0,"Novel98",0,1015,"straightahead",-1,0,1,0,(Aug 08 2014 15:40:41),0,TRUE,FALSE,4,TRUE,"11"
"Aug 08 2014","15:40:41",20,"Short","No-socialFirst","Zero",4,"Chrome",7,"Same","Novel98",0,"Novel98",0,600,"straightahead",-1,0,0,1,(Aug 08 2014 15:40:41),0,TRUE,FALSE,4,TRUE,"11"
"Aug 08 2014","15:40:41",21,"Short","No-socialFirst","Zero",4,"Chrome",8,"Switch","Novel20",2,"Novel59",1,196,"silentLDmedium",0,0,1,0,(Aug 08 2014 15:40:41),0,TRUE,FALSE,4,FALSE,"11"
"Aug 08 2014","15:40:41",22,"Short","No-socialFirst","Zero",4,"Chrome",8,"Switch","Novel8",2,"Novel59",1,1505,"straightahead",-1,0,0,1,(Aug 08 2014 15:40:41),0,TRUE,FALSE,4,FALSE,"11"
"Aug 08 2014","15:40:41",23,"Short","No-socialFirst","Zero",4,"Chrome",9,"Same","Novel51",0,"Novel51",0,1629,"silentLUmedium",1,0,1,0,(Aug 08 2014 15:40:41),0,TRUE,FALSE,4,TRUE,"11"
"Aug 08 2014","15:40:41",24,"Short","No-socialFirst","Zero",4,"Chrome",9,"Same","Novel51",2,"Novel51",0,120,"straightahead",-1,0,0,1,(Aug 08 2014 15:40:41),0,TRUE,FALSE,4,TRUE,"11"
"Aug 08 2014","15:40:41",25,"Short","No-socialFirst","Zero",4,"Chrome",10,"Switch","Novel24",1,"Novel54",0,57,"silentRUmedium",3,0,1,0,(Aug 08 2014 15:40:41),0,TRUE,FALSE,4,FALSE,"11"
"Aug 08 2014","15:40:41",26,"Short","No-socialFirst","Zero",4,"Chrome",10,"Switch","Novel26",0,"Novel54",0,1732,"straightahead",-1,0,0,1,(Aug 08 2014 15:40:41),0,TRUE,FALSE,4,FALSE,"11"
"Aug 08 2014","15:40:41",27,"Short","No-socialFirst","Zero",4,"Chrome",11,"Same","Novel22",1,"Novel22",1,281,"silentRUmedium",3,0,1,0,(Aug 08 2014 15:40:41),0,TRUE,FALSE,4,TRUE,"11"
"Aug 08 2014","15:40:41",28,"Short","No-socialFirst","Zero",4,"Chrome",11,"Same","Novel22",3,"Novel22",1,534,"straightahead",-1,0,0,1,(Aug 08 2014 15:40:41),0,TRUE,FALSE,4,TRUE,"11"
"Aug 08 2014","15:40:41",29,"Short","No-socialFirst","Zero",4,"Chrome",12,"Switch","Novel119",0,"Novel48",1,182,"silentLUmedium",1,0,1,0,(Aug 08 2014 15:40:41),0,TRUE,FALSE,4,FALSE,"11"
"Aug 08 2014","15:40:41",30,"Short","No-socialFirst","Zero",4,"Chrome",12,"Switch","Novel136",1,"Novel48",1,1056,"straightahead",-1,0,0,1,(Aug 08 2014 15:40:41),0,TRUE,FALSE,4,FALSE,"11"
"Aug 08 2014","15:40:41",31,"Short","No-socialFirst","Zero",4,"Chrome",13,"Same","Novel134",2,"Novel134",2,241,"silentLDmedium",0,0,1,0,(Aug 08 2014 15:40:41),0,TRUE,FALSE,4,TRUE,"11"
"Aug 08 2014","15:40:41",32,"Short","No-socialFirst","Zero",4,"Chrome",13,"Same","Novel134",1,"Novel134",2,317,"straightahead",-1,0,0,1,(Aug 08 2014 15:40:41),0,TRUE,FALSE,4,TRUE,"11"
"Aug 08 2014","15:40:41",33,"Short","No-socialFirst","Zero",4,"Chrome",14,"Switch","Novel38",2,"Novel112",3,1001,"silentLDmedium",0,0,1,0,(Aug 08 2014 15:40:41),0,TRUE,FALSE,4,FALSE,"11"
"Aug 08 2014","15:40:41",34,"Short","No-socialFirst","Zero",4,"Chrome",14,"Switch","Novel30",0,"Novel112",3,1038,"straightahead",-1,0,0,1,(Aug 08 2014 15:40:41),0,TRUE,FALSE,4,FALSE,"11"
"Aug 08 2014","15:40:41",35,"Short","No-socialFirst","Zero",4,"Chrome",15,"Same","Novel46",1,"Novel46",1,186,"silentRUmedium",3,0,1,0,(Aug 08 2014 15:40:41),0,TRUE,FALSE,4,TRUE,"11"
"Aug 08 2014","15:40:41",36,"Short","No-socialFirst","Zero",4,"Chrome",15,"Same","Novel23",3,"Novel46",1,278,"straightahead",-1,0,0,1,(Aug 08 2014 15:40:41),0,TRUE,FALSE,4,FALSE,"11"
"Aug 08 2014","14:40:12",1,"Short","No-socialFirst","Zero",4,"Chrome",0,"Switch","squirrel",0,"",0,13122,"straightahead",-1,1,0,0,(Aug 08 2014 14:40:12),0,TRUE,FALSE,4,FALSE,"12"
"Aug 08 2014","14:40:12",2,"Short","No-socialFirst","Zero",4,"Chrome",0,"Switch","squirrel",0,"",0,450,"straightahead",-1,1,0,0,(Aug 08 2014 14:40:12),0,TRUE,FALSE,4,FALSE,"12"
"Aug 08 2014","14:40:12",3,"Short","No-socialFirst","Zero",4,"Chrome",0,"Switch","tomato",1,"",0,8633,"straightahead",-1,1,0,0,(Aug 08 2014 14:40:12),0,TRUE,FALSE,4,FALSE,"12"
"Aug 08 2014","14:40:12",4,"Short","No-socialFirst","Zero",4,"Chrome",0,"Switch","tomato",2,"",0,745,"straightahead",-1,1,0,0,(Aug 08 2014 14:40:12),0,TRUE,FALSE,4,FALSE,"12"
"Aug 08 2014","14:40:12",5,"Short","No-socialFirst","Zero",4,"Chrome",0,"Switch","Novel58",3,"Novel78",2,16195,"straightahead",-1,0,1,0,(Aug 08 2014 14:40:12),0,TRUE,FALSE,4,FALSE,"12"
"Aug 08 2014","14:40:12",6,"Short","No-socialFirst","Zero",4,"Chrome",0,"Switch","Novel78",0,"Novel78",2,6857,"straightahead",-1,0,0,1,(Aug 08 2014 14:40:12),0,TRUE,TRUE,4,TRUE,"12"
"Aug 08 2014","14:40:12",7,"Short","No-socialFirst","Zero",4,"Chrome",1,"Same","Novel29",3,"Novel29",3,6600,"straightahead",-1,0,1,0,(Aug 08 2014 14:40:12),0,TRUE,FALSE,4,TRUE,"12"
"Aug 08 2014","14:40:12",8,"Short","No-socialFirst","Zero",4,"Chrome",1,"Same","Novel105",1,"Novel29",3,2467,"straightahead",-1,0,0,1,(Aug 08 2014 14:40:12),0,TRUE,FALSE,4,FALSE,"12"
"Aug 08 2014","14:40:12",9,"Short","No-socialFirst","Zero",4,"Chrome",2,"Switch","Novel7",1,"Novel55",3,2415,"straightahead",-1,0,1,0,(Aug 08 2014 14:40:12),0,TRUE,FALSE,4,FALSE,"12"
"Aug 08 2014","14:40:12",10,"Short","No-socialFirst","Zero",4,"Chrome",2,"Switch","Novel131",0,"Novel55",3,1963,"straightahead",-1,0,0,1,(Aug 08 2014 14:40:12),0,TRUE,FALSE,4,FALSE,"12"
"Aug 08 2014","14:40:12",11,"Short","No-socialFirst","Zero",4,"Chrome",3,"Same","Novel9",0,"Novel9",0,1822,"straightahead",-1,0,1,0,(Aug 08 2014 14:40:12),0,TRUE,FALSE,4,TRUE,"12"
"Aug 08 2014","14:40:12",12,"Short","No-socialFirst","Zero",4,"Chrome",3,"Same","Novel10",1,"Novel9",0,2559,"straightahead",-1,0,0,1,(Aug 08 2014 14:40:12),0,TRUE,FALSE,4,FALSE,"12"
"Aug 08 2014","14:40:12",13,"Short","No-socialFirst","Zero",4,"Chrome",4,"Switch","Novel12",2,"Novel112",3,2805,"straightahead",-1,0,1,0,(Aug 08 2014 14:40:12),0,TRUE,FALSE,4,FALSE,"12"
"Aug 08 2014","14:40:12",14,"Short","No-socialFirst","Zero",4,"Chrome",4,"Switch","Novel63",3,"Novel112",3,3905,"straightahead",-1,0,0,1,(Aug 08 2014 14:40:12),0,TRUE,FALSE,4,FALSE,"12"
"Aug 08 2014","14:40:12",15,"Short","No-socialFirst","Zero",4,"Chrome",5,"Same","Novel14",1,"Novel14",1,5874,"straightahead",-1,0,1,0,(Aug 08 2014 14:40:12),0,TRUE,FALSE,4,TRUE,"12"
"Aug 08 2014","14:40:12",16,"Short","No-socialFirst","Zero",4,"Chrome",5,"Same","Novel18",0,"Novel14",1,2968,"straightahead",-1,0,0,1,(Aug 08 2014 14:40:12),0,TRUE,FALSE,4,FALSE,"12"
"Aug 08 2014","14:40:12",17,"Short","No-socialFirst","Zero",4,"Chrome",6,"Switch","Novel122",0,"Novel13",1,7443,"straightahead",-1,0,1,0,(Aug 08 2014 14:40:12),0,TRUE,FALSE,4,FALSE,"12"
"Aug 08 2014","14:40:12",18,"Short","No-socialFirst","Zero",4,"Chrome",6,"Switch","Novel109",2,"Novel13",1,2971,"straightahead",-1,0,0,1,(Aug 08 2014 14:40:12),0,TRUE,FALSE,4,FALSE,"12"
"Aug 08 2014","14:40:12",19,"Short","No-socialFirst","Zero",4,"Chrome",7,"Same","Novel48",1,"Novel48",1,2931,"straightahead",-1,0,1,0,(Aug 08 2014 14:40:12),0,TRUE,FALSE,4,TRUE,"12"
"Aug 08 2014","14:40:12",20,"Short","No-socialFirst","Zero",4,"Chrome",7,"Same","Novel62",0,"Novel48",1,63,"straightahead",-1,0,0,1,(Aug 08 2014 14:40:12),0,TRUE,FALSE,4,FALSE,"12"
"Aug 08 2014","14:40:12",21,"Short","No-socialFirst","Zero",4,"Chrome",8,"Switch","Novel66",1,"Novel90",0,1895,"silentLUmedium",1,0,1,0,(Aug 08 2014 14:40:12),0,TRUE,FALSE,4,FALSE,"12"
"Aug 08 2014","14:40:12",22,"Short","No-socialFirst","Zero",4,"Chrome",8,"Switch","Novel90",2,"Novel90",0,1832,"straightahead",-1,0,0,1,(Aug 08 2014 14:40:12),0,TRUE,FALSE,4,TRUE,"12"
"Aug 08 2014","14:40:12",23,"Short","No-socialFirst","Zero",4,"Chrome",9,"Same","Novel27",2,"Novel27",2,3083,"silentLDmedium",0,0,1,0,(Aug 08 2014 14:40:12),0,TRUE,FALSE,4,TRUE,"12"
"Aug 08 2014","14:40:12",24,"Short","No-socialFirst","Zero",4,"Chrome",9,"Same","Novel95",2,"Novel27",2,1339,"straightahead",-1,0,0,1,(Aug 08 2014 14:40:12),0,TRUE,FALSE,4,FALSE,"12"
"Aug 08 2014","14:40:12",25,"Short","No-socialFirst","Zero",4,"Chrome",10,"Switch","Novel47",0,"Novel70",1,2753,"silentLDmedium",0,0,1,0,(Aug 08 2014 14:40:12),0,TRUE,FALSE,4,FALSE,"12"
"Aug 08 2014","14:40:12",26,"Short","No-socialFirst","Zero",4,"Chrome",10,"Switch","Novel70",3,"Novel70",1,621,"straightahead",-1,0,0,1,(Aug 08 2014 14:40:12),0,TRUE,FALSE,4,TRUE,"12"
"Aug 08 2014","14:40:12",27,"Short","No-socialFirst","Zero",4,"Chrome",11,"Same","Novel57",1,"Novel57",1,1071,"silentLDmedium",0,0,1,0,(Aug 08 2014 14:40:12),0,TRUE,FALSE,4,TRUE,"12"
"Aug 08 2014","14:40:12",28,"Short","No-socialFirst","Zero",4,"Chrome",11,"Same","Novel136",2,"Novel57",1,630,"straightahead",-1,0,0,1,(Aug 08 2014 14:40:12),0,TRUE,FALSE,4,FALSE,"12"
"Aug 08 2014","14:40:12",29,"Short","No-socialFirst","Zero",4,"Chrome",12,"Switch","Novel91",0,"Novel107",1,1733,"silentRDmedium",2,0,1,0,(Aug 08 2014 14:40:12),0,TRUE,FALSE,4,FALSE,"12"
"Aug 08 2014","14:40:12",30,"Short","No-socialFirst","Zero",4,"Chrome",12,"Switch","Novel30",1,"Novel107",1,1180,"straightahead",-1,0,0,1,(Aug 08 2014 14:40:12),0,TRUE,FALSE,4,FALSE,"12"
"Aug 08 2014","14:40:12",31,"Short","No-socialFirst","Zero",4,"Chrome",13,"Same","Novel111",0,"Novel111",0,253,"silentLDmedium",0,0,1,0,(Aug 08 2014 14:40:12),0,TRUE,FALSE,4,TRUE,"12"
"Aug 08 2014","14:40:12",32,"Short","No-socialFirst","Zero",4,"Chrome",13,"Same","Novel43",1,"Novel111",0,4702,"straightahead",-1,0,0,1,(Aug 08 2014 14:40:12),0,TRUE,FALSE,4,FALSE,"12"
"Aug 08 2014","14:40:12",33,"Short","No-socialFirst","Zero",4,"Chrome",14,"Switch","Novel60",3,"Novel87",2,1000,"silentRDmedium",2,0,1,0,(Aug 08 2014 14:40:12),0,TRUE,FALSE,4,FALSE,"12"
"Aug 08 2014","14:40:12",34,"Short","No-socialFirst","Zero",4,"Chrome",14,"Switch","Novel118",1,"Novel87",2,639,"straightahead",-1,0,0,1,(Aug 08 2014 14:40:12),0,TRUE,FALSE,4,FALSE,"12"
"Aug 08 2014","14:40:12",35,"Short","No-socialFirst","Zero",4,"Chrome",15,"Same","Novel134",1,"Novel134",1,933,"silentLDmedium",0,0,1,0,(Aug 08 2014 14:40:12),0,TRUE,FALSE,4,TRUE,"12"
"Aug 08 2014","14:40:12",36,"Short","No-socialFirst","Zero",4,"Chrome",15,"Same","Novel134",2,"Novel134",1,730,"straightahead",-1,0,0,1,(Aug 08 2014 14:40:12),0,TRUE,FALSE,4,TRUE,"12"
"Aug 08 2014","17:03:44",1,"Short","SocialFirst","Zero",4,"Chrome",0,"Same","squirrel",0,"",0,6991,"straightahead",-1,1,0,0,(Aug 08 2014 17:03:44),0,TRUE,FALSE,4,FALSE,"13"
"Aug 08 2014","17:03:44",2,"Short","SocialFirst","Zero",4,"Chrome",0,"Same","squirrel",0,"",0,6686,"straightahead",-1,1,0,0,(Aug 08 2014 17:03:44),0,TRUE,FALSE,4,FALSE,"13"
"Aug 08 2014","17:03:44",3,"Short","SocialFirst","Zero",4,"Chrome",0,"Same","tomato",1,"",0,2561,"straightahead",-1,1,0,0,(Aug 08 2014 17:03:44),0,TRUE,FALSE,4,FALSE,"13"
"Aug 08 2014","17:03:44",4,"Short","SocialFirst","Zero",4,"Chrome",0,"Same","tomato",2,"",0,615,"straightahead",-1,1,0,0,(Aug 08 2014 17:03:44),0,TRUE,FALSE,4,FALSE,"13"
"Aug 08 2014","17:03:44",5,"Short","SocialFirst","Zero",4,"Chrome",0,"Same","Novel132",0,"Novel132",0,16335,"silentLDshort",0,0,1,0,(Aug 08 2014 17:03:44),0,TRUE,FALSE,4,TRUE,"13"
"Aug 08 2014","17:03:44",6,"Short","SocialFirst","Zero",4,"Chrome",0,"Same","Novel87",0,"Novel132",0,13835,"straightahead",-1,0,0,1,(Aug 08 2014 17:03:44),0,TRUE,TRUE,4,FALSE,"13"
"Aug 08 2014","17:03:44",7,"Short","SocialFirst","Zero",4,"Chrome",1,"Switch","Novel134",2,"Novel111",1,9406,"silentLUshort",1,0,1,0,(Aug 08 2014 17:03:44),0,TRUE,FALSE,4,FALSE,"13"
"Aug 08 2014","17:03:44",8,"Short","SocialFirst","Zero",4,"Chrome",1,"Switch","Novel111",1,"Novel111",1,9639,"straightahead",-1,0,0,1,(Aug 08 2014 17:03:44),0,TRUE,FALSE,4,TRUE,"13"
"Aug 08 2014","17:03:44",9,"Short","SocialFirst","Zero",4,"Chrome",2,"Same","Novel76",1,"Novel76",1,6013,"silentLDshort",0,0,1,0,(Aug 08 2014 17:03:44),0,TRUE,FALSE,4,TRUE,"13"
"Aug 08 2014","17:03:44",10,"Short","SocialFirst","Zero",4,"Chrome",2,"Same","Novel76",1,"Novel76",1,1883,"straightahead",-1,0,0,1,(Aug 08 2014 17:03:44),0,TRUE,FALSE,4,TRUE,"13"
"Aug 08 2014","17:03:44",11,"Short","SocialFirst","Zero",4,"Chrome",3,"Switch","Novel70",3,"Novel83",2,8852,"silentRUshort",3,0,1,0,(Aug 08 2014 17:03:44),0,TRUE,FALSE,4,FALSE,"13"
"Aug 08 2014","17:03:44",12,"Short","SocialFirst","Zero",4,"Chrome",3,"Switch","Novel83",3,"Novel83",2,2940,"straightahead",-1,0,0,1,(Aug 08 2014 17:03:44),0,TRUE,FALSE,4,TRUE,"13"
"Aug 08 2014","17:03:44",13,"Short","SocialFirst","Zero",4,"Chrome",4,"Same","Novel50",3,"Novel50",3,9545,"silentRUshort",3,0,1,0,(Aug 08 2014 17:03:44),0,TRUE,FALSE,4,TRUE,"13"
"Aug 08 2014","17:03:44",14,"Short","SocialFirst","Zero",4,"Chrome",4,"Same","Novel50",2,"Novel50",3,3814,"straightahead",-1,0,0,1,(Aug 08 2014 17:03:44),0,TRUE,FALSE,4,TRUE,"13"
"Aug 08 2014","17:03:44",15,"Short","SocialFirst","Zero",4,"Chrome",5,"Switch","Novel137",0,"Novel44",3,3617,"silentLUshort",1,0,1,0,(Aug 08 2014 17:03:44),0,TRUE,FALSE,4,FALSE,"13"
"Aug 08 2014","17:03:44",16,"Short","SocialFirst","Zero",4,"Chrome",5,"Switch","Novel44",3,"Novel44",3,710,"straightahead",-1,0,0,1,(Aug 08 2014 17:03:44),0,TRUE,FALSE,4,TRUE,"13"
"Aug 08 2014","17:03:44",17,"Short","SocialFirst","Zero",4,"Chrome",6,"Same","Novel127",0,"Novel127",0,2631,"silentRUshort",3,0,1,0,(Aug 08 2014 17:03:44),0,TRUE,FALSE,4,TRUE,"13"
"Aug 08 2014","17:03:44",18,"Short","SocialFirst","Zero",4,"Chrome",6,"Same","Novel127",0,"Novel127",0,7152,"straightahead",-1,0,0,1,(Aug 08 2014 17:03:44),0,TRUE,FALSE,4,TRUE,"13"
"Aug 08 2014","17:03:44",19,"Short","SocialFirst","Zero",4,"Chrome",7,"Switch","Novel79",1,"Novel64",3,1983,"silentLDshort",0,0,1,0,(Aug 08 2014 17:03:44),0,TRUE,FALSE,4,FALSE,"13"
"Aug 08 2014","17:03:44",20,"Short","SocialFirst","Zero",4,"Chrome",7,"Switch","Novel64",2,"Novel64",3,72,"straightahead",-1,0,0,1,(Aug 08 2014 17:03:44),0,TRUE,FALSE,4,TRUE,"13"
"Aug 08 2014","17:03:44",21,"Short","SocialFirst","Zero",4,"Chrome",8,"Same","Novel4",1,"Novel4",1,2148,"straightahead",-1,0,1,0,(Aug 08 2014 17:03:44),0,TRUE,FALSE,4,TRUE,"13"
"Aug 08 2014","17:03:44",22,"Short","SocialFirst","Zero",4,"Chrome",8,"Same","Novel4",3,"Novel4",1,329,"straightahead",-1,0,0,1,(Aug 08 2014 17:03:44),0,TRUE,FALSE,4,TRUE,"13"
"Aug 08 2014","17:03:44",23,"Short","SocialFirst","Zero",4,"Chrome",9,"Switch","Novel37",2,"Novel121",0,1791,"straightahead",-1,0,1,0,(Aug 08 2014 17:03:44),0,TRUE,FALSE,4,FALSE,"13"
"Aug 08 2014","17:03:44",24,"Short","SocialFirst","Zero",4,"Chrome",9,"Switch","Novel121",1,"Novel121",0,1039,"straightahead",-1,0,0,1,(Aug 08 2014 17:03:44),0,TRUE,FALSE,4,TRUE,"13"
"Aug 08 2014","17:03:44",25,"Short","SocialFirst","Zero",4,"Chrome",10,"Same","Novel101",1,"Novel101",1,3973,"straightahead",-1,0,1,0,(Aug 08 2014 17:03:44),0,TRUE,FALSE,4,TRUE,"13"
"Aug 08 2014","17:03:44",26,"Short","SocialFirst","Zero",4,"Chrome",10,"Same","Novel101",3,"Novel101",1,263,"straightahead",-1,0,0,1,(Aug 08 2014 17:03:44),0,TRUE,FALSE,4,TRUE,"13"
"Aug 08 2014","17:03:44",27,"Short","SocialFirst","Zero",4,"Chrome",11,"Switch","Novel102",1,"Novel52",0,2134,"straightahead",-1,0,1,0,(Aug 08 2014 17:03:44),0,TRUE,FALSE,4,FALSE,"13"
"Aug 08 2014","17:03:44",28,"Short","SocialFirst","Zero",4,"Chrome",11,"Switch","Novel52",3,"Novel52",0,481,"straightahead",-1,0,0,1,(Aug 08 2014 17:03:44),0,TRUE,FALSE,4,TRUE,"13"
"Aug 08 2014","17:03:44",29,"Short","SocialFirst","Zero",4,"Chrome",12,"Same","Novel58",1,"Novel58",1,2863,"straightahead",-1,0,1,0,(Aug 08 2014 17:03:44),0,TRUE,FALSE,4,TRUE,"13"
"Aug 08 2014","17:03:44",30,"Short","SocialFirst","Zero",4,"Chrome",12,"Same","Novel58",3,"Novel58",1,85,"straightahead",-1,0,0,1,(Aug 08 2014 17:03:44),0,TRUE,FALSE,4,TRUE,"13"
"Aug 08 2014","17:03:44",31,"Short","SocialFirst","Zero",4,"Chrome",13,"Switch","Novel112",1,"Novel19",3,1988,"straightahead",-1,0,1,0,(Aug 08 2014 17:03:44),0,TRUE,FALSE,4,FALSE,"13"
"Aug 08 2014","17:03:44",32,"Short","SocialFirst","Zero",4,"Chrome",13,"Switch","Novel19",1,"Novel19",3,17,"straightahead",-1,0,0,1,(Aug 08 2014 17:03:44),0,TRUE,FALSE,4,TRUE,"13"
"Aug 08 2014","17:03:44",33,"Short","SocialFirst","Zero",4,"Chrome",14,"Same","Novel73",0,"Novel73",0,2500,"straightahead",-1,0,1,0,(Aug 08 2014 17:03:44),0,TRUE,FALSE,4,TRUE,"13"
"Aug 08 2014","17:03:44",34,"Short","SocialFirst","Zero",4,"Chrome",14,"Same","Novel73",1,"Novel73",0,1877,"straightahead",-1,0,0,1,(Aug 08 2014 17:03:44),0,TRUE,FALSE,4,TRUE,"13"
"Aug 08 2014","17:03:44",35,"Short","SocialFirst","Zero",4,"Chrome",15,"Switch","Novel7",2,"Novel14",3,908,"straightahead",-1,0,1,0,(Aug 08 2014 17:03:44),0,TRUE,FALSE,4,FALSE,"13"
"Aug 08 2014","17:03:44",36,"Short","SocialFirst","Zero",4,"Chrome",15,"Switch","Novel14",0,"Novel14",3,1381,"straightahead",-1,0,0,1,(Aug 08 2014 17:03:44),0,TRUE,FALSE,4,TRUE,"13"
"Aug 08 2014","19:16:33",1,"Short","SocialFirst","Zero",4,"Chrome",0,"Same","squirrel",0,"",0,8782,"straightahead",-1,1,0,0,(Aug 08 2014 19:16:33),0,TRUE,FALSE,4,FALSE,"14"
"Aug 08 2014","19:16:33",2,"Short","SocialFirst","Zero",4,"Chrome",0,"Same","squirrel",0,"",0,3370,"straightahead",-1,1,0,0,(Aug 08 2014 19:16:33),0,TRUE,FALSE,4,FALSE,"14"
"Aug 08 2014","19:16:33",3,"Short","SocialFirst","Zero",4,"Chrome",0,"Same","tomato",1,"",0,2201,"straightahead",-1,1,0,0,(Aug 08 2014 19:16:33),0,TRUE,FALSE,4,FALSE,"14"
"Aug 08 2014","19:16:33",4,"Short","SocialFirst","Zero",4,"Chrome",0,"Same","tomato",2,"",0,883,"straightahead",-1,1,0,0,(Aug 08 2014 19:16:33),0,TRUE,FALSE,4,FALSE,"14"
"Aug 08 2014","19:16:33",5,"Short","SocialFirst","Zero",4,"Chrome",0,"Same","Novel81",3,"Novel81",3,1193,"silentRDshort",2,0,1,0,(Aug 08 2014 19:16:33),0,TRUE,FALSE,4,TRUE,"14"
"Aug 08 2014","19:16:33",6,"Short","SocialFirst","Zero",4,"Chrome",0,"Same","Novel81",0,"Novel81",3,2122,"straightahead",-1,0,0,1,(Aug 08 2014 19:16:33),0,TRUE,TRUE,4,TRUE,"14"
"Aug 08 2014","19:16:33",7,"Short","SocialFirst","Zero",4,"Chrome",1,"Switch","Novel111",1,"Novel76",2,959,"silentRUshort",3,0,1,0,(Aug 08 2014 19:16:33),0,TRUE,FALSE,4,FALSE,"14"
"Aug 08 2014","19:16:33",8,"Short","SocialFirst","Zero",4,"Chrome",1,"Switch","Novel103",0,"Novel76",2,3073,"straightahead",-1,0,0,1,(Aug 08 2014 19:16:33),0,TRUE,FALSE,4,FALSE,"14"
"Aug 08 2014","19:16:33",9,"Short","SocialFirst","Zero",4,"Chrome",2,"Same","Novel11",3,"Novel11",3,421,"silentRDshort",2,0,1,0,(Aug 08 2014 19:16:33),0,TRUE,FALSE,4,TRUE,"14"
"Aug 08 2014","19:16:33",10,"Short","SocialFirst","Zero",4,"Chrome",2,"Same","Novel11",3,"Novel11",3,330,"straightahead",-1,0,0,1,(Aug 08 2014 19:16:33),0,TRUE,FALSE,4,TRUE,"14"
"Aug 08 2014","19:16:33",11,"Short","SocialFirst","Zero",4,"Chrome",3,"Switch","Novel68",1,"Novel56",0,498,"silentRUshort",3,0,1,0,(Aug 08 2014 19:16:33),0,TRUE,FALSE,4,FALSE,"14"
"Aug 08 2014","19:16:33",12,"Short","SocialFirst","Zero",4,"Chrome",3,"Switch","Novel101",2,"Novel56",0,2543,"straightahead",-1,0,0,1,(Aug 08 2014 19:16:33),0,TRUE,FALSE,4,FALSE,"14"
"Aug 08 2014","19:16:33",13,"Short","SocialFirst","Zero",4,"Chrome",4,"Same","Novel130",2,"Novel130",2,653,"silentLDshort",0,0,1,0,(Aug 08 2014 19:16:33),0,TRUE,FALSE,4,TRUE,"14"
"Aug 08 2014","19:16:33",14,"Short","SocialFirst","Zero",4,"Chrome",4,"Same","Novel130",0,"Novel130",2,812,"straightahead",-1,0,0,1,(Aug 08 2014 19:16:33),0,TRUE,FALSE,4,TRUE,"14"
"Aug 08 2014","19:16:33",15,"Short","SocialFirst","Zero",4,"Chrome",5,"Switch","Novel50",3,"Novel107",1,447,"silentRDshort",2,0,1,0,(Aug 08 2014 19:16:33),0,TRUE,FALSE,4,FALSE,"14"
"Aug 08 2014","19:16:33",16,"Short","SocialFirst","Zero",4,"Chrome",5,"Switch","Novel107",1,"Novel107",1,3428,"straightahead",-1,0,0,1,(Aug 08 2014 19:16:33),0,TRUE,FALSE,4,TRUE,"14"
"Aug 08 2014","19:16:33",17,"Short","SocialFirst","Zero",4,"Chrome",6,"Same","Novel60",1,"Novel60",1,845,"silentRUshort",3,0,1,0,(Aug 08 2014 19:16:33),0,TRUE,FALSE,4,TRUE,"14"
"Aug 08 2014","19:16:33",18,"Short","SocialFirst","Zero",4,"Chrome",6,"Same","Novel60",1,"Novel60",1,235,"straightahead",-1,0,0,1,(Aug 08 2014 19:16:33),0,TRUE,FALSE,4,TRUE,"14"
"Aug 08 2014","19:16:33",19,"Short","SocialFirst","Zero",4,"Chrome",7,"Switch","Novel102",3,"Novel112",2,281,"silentRDshort",2,0,1,0,(Aug 08 2014 19:16:33),0,TRUE,FALSE,4,FALSE,"14"
"Aug 08 2014","19:16:33",20,"Short","SocialFirst","Zero",4,"Chrome",7,"Switch","Novel134",1,"Novel112",2,1389,"straightahead",-1,0,0,1,(Aug 08 2014 19:16:33),0,TRUE,FALSE,4,FALSE,"14"
"Aug 08 2014","19:16:33",21,"Short","SocialFirst","Zero",4,"Chrome",8,"Same","Novel19",3,"Novel19",3,4911,"straightahead",-1,0,1,0,(Aug 08 2014 19:16:33),0,TRUE,FALSE,4,TRUE,"14"
"Aug 08 2014","19:16:33",22,"Short","SocialFirst","Zero",4,"Chrome",8,"Same","Novel75",3,"Novel19",3,319,"straightahead",-1,0,0,1,(Aug 08 2014 19:16:33),0,TRUE,FALSE,4,FALSE,"14"
"Aug 08 2014","19:16:33",23,"Short","SocialFirst","Zero",4,"Chrome",9,"Switch","Novel43",0,"Novel33",2,2480,"straightahead",-1,0,1,0,(Aug 08 2014 19:16:33),0,TRUE,FALSE,4,FALSE,"14"
"Aug 08 2014","19:16:33",24,"Short","SocialFirst","Zero",4,"Chrome",9,"Switch","Novel33",3,"Novel33",2,902,"straightahead",-1,0,0,1,(Aug 08 2014 19:16:33),0,TRUE,FALSE,4,TRUE,"14"
"Aug 08 2014","19:16:33",25,"Short","SocialFirst","Zero",4,"Chrome",10,"Same","Novel140",1,"Novel140",1,1065,"straightahead",-1,0,1,0,(Aug 08 2014 19:16:33),0,TRUE,FALSE,4,TRUE,"14"
"Aug 08 2014","19:16:33",26,"Short","SocialFirst","Zero",4,"Chrome",10,"Same","Novel140",2,"Novel140",1,436,"straightahead",-1,0,0,1,(Aug 08 2014 19:16:33),0,TRUE,FALSE,4,TRUE,"14"
"Aug 08 2014","19:16:33",27,"Short","SocialFirst","Zero",4,"Chrome",11,"Switch","Novel21",3,"Novel136",1,2839,"straightahead",-1,0,1,0,(Aug 08 2014 19:16:33),0,TRUE,FALSE,4,FALSE,"14"
"Aug 08 2014","19:16:33",28,"Short","SocialFirst","Zero",4,"Chrome",11,"Switch","Novel113",0,"Novel136",1,332,"straightahead",-1,0,0,1,(Aug 08 2014 19:16:33),0,TRUE,FALSE,4,FALSE,"14"
"Aug 08 2014","19:16:33",29,"Short","SocialFirst","Zero",4,"Chrome",12,"Same","Novel58",2,"Novel58",2,1135,"straightahead",-1,0,1,0,(Aug 08 2014 19:16:33),0,TRUE,FALSE,4,TRUE,"14"
"Aug 08 2014","19:16:33",30,"Short","SocialFirst","Zero",4,"Chrome",12,"Same","Novel58",0,"Novel58",2,1541,"straightahead",-1,0,0,1,(Aug 08 2014 19:16:33),0,TRUE,FALSE,4,TRUE,"14"
"Aug 08 2014","19:16:33",31,"Short","SocialFirst","Zero",4,"Chrome",13,"Switch","Novel37",1,"Novel14",2,2186,"straightahead",-1,0,1,0,(Aug 08 2014 19:16:33),0,TRUE,FALSE,4,FALSE,"14"
"Aug 08 2014","19:16:33",32,"Short","SocialFirst","Zero",4,"Chrome",13,"Switch","Novel1",0,"Novel14",2,236,"straightahead",-1,0,0,1,(Aug 08 2014 19:16:33),0,TRUE,FALSE,4,FALSE,"14"
"Aug 08 2014","19:16:33",33,"Short","SocialFirst","Zero",4,"Chrome",14,"Same","Novel48",2,"Novel48",2,2987,"straightahead",-1,0,1,0,(Aug 08 2014 19:16:33),0,TRUE,FALSE,4,TRUE,"14"
"Aug 08 2014","19:16:33",34,"Short","SocialFirst","Zero",4,"Chrome",14,"Same","Novel48",0,"Novel48",2,644,"straightahead",-1,0,0,1,(Aug 08 2014 19:16:33),0,TRUE,FALSE,4,TRUE,"14"
"Aug 08 2014","19:16:33",35,"Short","SocialFirst","Zero",4,"Chrome",15,"Switch","Novel129",2,"Novel25",0,615,"straightahead",-1,0,1,0,(Aug 08 2014 19:16:33),0,TRUE,FALSE,4,FALSE,"14"
"Aug 08 2014","19:16:33",36,"Short","SocialFirst","Zero",4,"Chrome",15,"Switch","Novel27",1,"Novel25",0,1163,"straightahead",-1,0,0,1,(Aug 08 2014 19:16:33),0,TRUE,FALSE,4,FALSE,"14"
"Aug 08 2014","17:21:40",1,"Short","No-socialFirst","Zero",4,"Chrome",0,"Switch","squirrel",0,"",0,10194,"straightahead",-1,1,0,0,(Aug 08 2014 17:21:40),0,TRUE,FALSE,4,FALSE,"15"
"Aug 08 2014","17:21:40",2,"Short","No-socialFirst","Zero",4,"Chrome",0,"Switch","squirrel",0,"",0,2670,"straightahead",-1,1,0,0,(Aug 08 2014 17:21:40),0,TRUE,FALSE,4,FALSE,"15"
"Aug 08 2014","17:21:40",3,"Short","No-socialFirst","Zero",4,"Chrome",0,"Switch","tomato",1,"",0,2811,"straightahead",-1,1,0,0,(Aug 08 2014 17:21:40),0,TRUE,FALSE,4,FALSE,"15"
"Aug 08 2014","17:21:40",4,"Short","No-socialFirst","Zero",4,"Chrome",0,"Switch","tomato",2,"",0,1272,"straightahead",-1,1,0,0,(Aug 08 2014 17:21:40),0,TRUE,FALSE,4,FALSE,"15"
"Aug 08 2014","17:21:40",5,"Short","No-socialFirst","Zero",4,"Chrome",0,"Switch","Novel41",3,"Novel114",0,14269,"straightahead",-1,0,1,0,(Aug 08 2014 17:21:40),0,TRUE,FALSE,4,FALSE,"15"
"Aug 08 2014","17:21:40",6,"Short","No-socialFirst","Zero",4,"Chrome",0,"Switch","Novel5",0,"Novel114",0,7427,"straightahead",-1,0,0,1,(Aug 08 2014 17:21:40),0,TRUE,TRUE,4,FALSE,"15"
"Aug 08 2014","17:21:40",7,"Short","No-socialFirst","Zero",4,"Chrome",1,"Same","Novel103",2,"Novel103",2,5101,"straightahead",-1,0,1,0,(Aug 08 2014 17:21:40),0,TRUE,FALSE,4,TRUE,"15"
"Aug 08 2014","17:21:40",8,"Short","No-socialFirst","Zero",4,"Chrome",1,"Same","Novel103",2,"Novel103",2,1245,"straightahead",-1,0,0,1,(Aug 08 2014 17:21:40),0,TRUE,FALSE,4,TRUE,"15"
"Aug 08 2014","17:21:40",9,"Short","No-socialFirst","Zero",4,"Chrome",2,"Switch","Novel54",2,"Novel25",3,7102,"straightahead",-1,0,1,0,(Aug 08 2014 17:21:40),0,TRUE,FALSE,4,FALSE,"15"
"Aug 08 2014","17:21:40",10,"Short","No-socialFirst","Zero",4,"Chrome",2,"Switch","Novel4",0,"Novel25",3,5529,"straightahead",-1,0,0,1,(Aug 08 2014 17:21:40),0,TRUE,FALSE,4,FALSE,"15"
"Aug 08 2014","17:21:40",11,"Short","No-socialFirst","Zero",4,"Chrome",3,"Same","Novel30",0,"Novel30",0,10476,"straightahead",-1,0,1,0,(Aug 08 2014 17:21:40),0,TRUE,FALSE,4,TRUE,"15"
"Aug 08 2014","17:21:40",12,"Short","No-socialFirst","Zero",4,"Chrome",3,"Same","Novel30",1,"Novel30",0,717,"straightahead",-1,0,0,1,(Aug 08 2014 17:21:40),0,TRUE,FALSE,4,TRUE,"15"
"Aug 08 2014","17:21:40",13,"Short","No-socialFirst","Zero",4,"Chrome",4,"Switch","Novel112",2,"Novel66",0,4874,"straightahead",-1,0,1,0,(Aug 08 2014 17:21:40),0,TRUE,FALSE,4,FALSE,"15"
"Aug 08 2014","17:21:40",14,"Short","No-socialFirst","Zero",4,"Chrome",4,"Switch","Novel66",3,"Novel66",0,5339,"straightahead",-1,0,0,1,(Aug 08 2014 17:21:40),0,TRUE,FALSE,4,TRUE,"15"
"Aug 08 2014","17:21:40",15,"Short","No-socialFirst","Zero",4,"Chrome",5,"Same","Novel89",3,"Novel89",3,9441,"straightahead",-1,0,1,0,(Aug 08 2014 17:21:40),0,TRUE,FALSE,4,TRUE,"15"
"Aug 08 2014","17:21:40",16,"Short","No-socialFirst","Zero",4,"Chrome",5,"Same","Novel89",1,"Novel89",3,977,"straightahead",-1,0,0,1,(Aug 08 2014 17:21:40),0,TRUE,FALSE,4,TRUE,"15"
"Aug 08 2014","17:21:40",17,"Short","No-socialFirst","Zero",4,"Chrome",6,"Switch","Novel24",2,"Novel76",0,10438,"straightahead",-1,0,1,0,(Aug 08 2014 17:21:40),0,TRUE,FALSE,4,FALSE,"15"
"Aug 08 2014","17:21:40",18,"Short","No-socialFirst","Zero",4,"Chrome",6,"Switch","Novel76",0,"Novel76",0,1997,"straightahead",-1,0,0,1,(Aug 08 2014 17:21:40),0,TRUE,FALSE,4,TRUE,"15"
"Aug 08 2014","17:21:40",19,"Short","No-socialFirst","Zero",4,"Chrome",7,"Same","Novel64",1,"Novel64",1,6382,"straightahead",-1,0,1,0,(Aug 08 2014 17:21:40),0,TRUE,FALSE,4,TRUE,"15"
"Aug 08 2014","17:21:40",20,"Short","No-socialFirst","Zero",4,"Chrome",7,"Same","Novel64",1,"Novel64",1,194,"straightahead",-1,0,0,1,(Aug 08 2014 17:21:40),0,TRUE,FALSE,4,TRUE,"15"
"Aug 08 2014","17:21:40",21,"Short","No-socialFirst","Zero",4,"Chrome",8,"Switch","Novel35",2,"Novel100",0,18224,"silentRDmedium",2,0,1,0,(Aug 08 2014 17:21:40),0,TRUE,FALSE,4,FALSE,"15"
"Aug 08 2014","17:21:40",22,"Short","No-socialFirst","Zero",4,"Chrome",8,"Switch","Novel100",1,"Novel100",0,6098,"straightahead",-1,0,0,1,(Aug 08 2014 17:21:40),0,TRUE,FALSE,4,TRUE,"15"
"Aug 08 2014","17:21:40",23,"Short","No-socialFirst","Zero",4,"Chrome",9,"Same","Novel63",0,"Novel63",0,2415,"silentLDmedium",0,0,1,0,(Aug 08 2014 17:21:40),0,TRUE,FALSE,4,TRUE,"15"
"Aug 08 2014","17:21:40",24,"Short","No-socialFirst","Zero",4,"Chrome",9,"Same","Novel63",2,"Novel63",0,341,"straightahead",-1,0,0,1,(Aug 08 2014 17:21:40),0,TRUE,FALSE,4,TRUE,"15"
"Aug 08 2014","17:21:40",25,"Short","No-socialFirst","Zero",4,"Chrome",10,"Switch","Novel111",2,"Novel50",0,2567,"silentRDmedium",2,0,1,0,(Aug 08 2014 17:21:40),0,TRUE,FALSE,4,FALSE,"15"
"Aug 08 2014","17:21:40",26,"Short","No-socialFirst","Zero",4,"Chrome",10,"Switch","Novel77",0,"Novel50",0,2763,"straightahead",-1,0,0,1,(Aug 08 2014 17:21:40),0,TRUE,FALSE,4,FALSE,"15"
"Aug 08 2014","17:21:40",27,"Short","No-socialFirst","Zero",4,"Chrome",11,"Same","Novel87",0,"Novel87",0,8620,"silentLDmedium",0,0,1,0,(Aug 08 2014 17:21:40),0,TRUE,FALSE,4,TRUE,"15"
"Aug 08 2014","17:21:40",28,"Short","No-socialFirst","Zero",4,"Chrome",11,"Same","Novel87",2,"Novel87",0,193,"straightahead",-1,0,0,1,(Aug 08 2014 17:21:40),0,TRUE,FALSE,4,TRUE,"15"
"Aug 08 2014","17:21:40",29,"Short","No-socialFirst","Zero",4,"Chrome",12,"Switch","Novel72",2,"Novel107",1,5519,"silentRUmedium",3,0,1,0,(Aug 08 2014 17:21:40),0,TRUE,FALSE,4,FALSE,"15"
"Aug 08 2014","17:21:40",30,"Short","No-socialFirst","Zero",4,"Chrome",12,"Switch","Novel86",1,"Novel107",1,2962,"straightahead",-1,0,0,1,(Aug 08 2014 17:21:40),0,TRUE,FALSE,4,FALSE,"15"
"Aug 08 2014","17:21:40",31,"Short","No-socialFirst","Zero",4,"Chrome",13,"Same","Novel44",0,"Novel44",0,3361,"silentLDmedium",0,0,1,0,(Aug 08 2014 17:21:40),0,TRUE,FALSE,4,TRUE,"15"
"Aug 08 2014","17:21:40",32,"Short","No-socialFirst","Zero",4,"Chrome",13,"Same","Novel44",1,"Novel44",0,18,"straightahead",-1,0,0,1,(Aug 08 2014 17:21:40),0,TRUE,FALSE,4,TRUE,"15"
"Aug 08 2014","17:21:40",33,"Short","No-socialFirst","Zero",4,"Chrome",14,"Switch","Novel97",3,"Novel15",0,4381,"silentRUmedium",3,0,1,0,(Aug 08 2014 17:21:40),0,TRUE,FALSE,4,FALSE,"15"
"Aug 08 2014","17:21:40",34,"Short","No-socialFirst","Zero",4,"Chrome",14,"Switch","Novel15",1,"Novel15",0,507,"straightahead",-1,0,0,1,(Aug 08 2014 17:21:40),0,TRUE,FALSE,4,TRUE,"15"
"Aug 08 2014","17:21:40",35,"Short","No-socialFirst","Zero",4,"Chrome",15,"Same","Novel29",3,"Novel29",3,1336,"silentRDmedium",2,0,1,0,(Aug 08 2014 17:21:40),0,TRUE,FALSE,4,TRUE,"15"
"Aug 08 2014","17:21:40",36,"Short","No-socialFirst","Zero",4,"Chrome",15,"Same","Novel29",1,"Novel29",3,123,"straightahead",-1,0,0,1,(Aug 08 2014 17:21:40),0,TRUE,FALSE,4,TRUE,"15"
"Aug 08 2014","14:03:56",1,"Short","No-socialFirst","Zero",4,"Chrome",0,"Same","squirrel",0,"",0,6539,"straightahead",-1,1,0,0,(Aug 08 2014 14:03:56),0,TRUE,FALSE,4,FALSE,"16"
"Aug 08 2014","14:03:56",2,"Short","No-socialFirst","Zero",4,"Chrome",0,"Same","squirrel",0,"",0,101,"straightahead",-1,1,0,0,(Aug 08 2014 14:03:56),0,TRUE,FALSE,4,FALSE,"16"
"Aug 08 2014","14:03:56",3,"Short","No-socialFirst","Zero",4,"Chrome",0,"Same","tomato",1,"",0,386,"straightahead",-1,1,0,0,(Aug 08 2014 14:03:56),0,TRUE,FALSE,4,FALSE,"16"
"Aug 08 2014","14:03:56",4,"Short","No-socialFirst","Zero",4,"Chrome",0,"Same","tomato",2,"",0,145,"straightahead",-1,1,0,0,(Aug 08 2014 14:03:56),0,TRUE,FALSE,4,FALSE,"16"
"Aug 08 2014","14:03:56",5,"Short","No-socialFirst","Zero",4,"Chrome",0,"Same","Novel30",1,"Novel30",1,2624,"straightahead",-1,0,1,0,(Aug 08 2014 14:03:56),0,TRUE,FALSE,4,TRUE,"16"
"Aug 08 2014","14:03:56",6,"Short","No-socialFirst","Zero",4,"Chrome",0,"Same","Novel30",3,"Novel30",1,530,"straightahead",-1,0,0,1,(Aug 08 2014 14:03:56),0,TRUE,TRUE,4,TRUE,"16"
"Aug 08 2014","14:03:56",7,"Short","No-socialFirst","Zero",4,"Chrome",1,"Switch","Novel49",0,"Novel80",1,971,"straightahead",-1,0,1,0,(Aug 08 2014 14:03:56),0,TRUE,FALSE,4,FALSE,"16"
"Aug 08 2014","14:03:56",8,"Short","No-socialFirst","Zero",4,"Chrome",1,"Switch","Novel80",2,"Novel80",1,971,"straightahead",-1,0,0,1,(Aug 08 2014 14:03:56),0,TRUE,FALSE,4,TRUE,"16"
"Aug 08 2014","14:03:56",9,"Short","No-socialFirst","Zero",4,"Chrome",2,"Same","Novel63",3,"Novel63",3,108,"straightahead",-1,0,1,0,(Aug 08 2014 14:03:56),0,TRUE,FALSE,4,TRUE,"16"
"Aug 08 2014","14:03:56",10,"Short","No-socialFirst","Zero",4,"Chrome",2,"Same","Novel63",3,"Novel63",3,575,"straightahead",-1,0,0,1,(Aug 08 2014 14:03:56),0,TRUE,FALSE,4,TRUE,"16"
"Aug 08 2014","14:03:56",11,"Short","No-socialFirst","Zero",4,"Chrome",3,"Switch","Novel13",2,"Novel99",0,2055,"straightahead",-1,0,1,0,(Aug 08 2014 14:03:56),0,TRUE,FALSE,4,FALSE,"16"
