"example_trial","exposure_trial","test_trial","submit.date","submit.time","trial.num","gazeLength","condition","interval","numPic","browser","itemNum","trialType","chosen","chosenIdx","kept","keptIdx","rt","face","faceIdx","day.and.time","intervalNum","include","first.trial","numPicN","correct","experiment","n_trials","duplicate","subids"
1,0,0,"Jul 13 2014","10:08:47",1,"Medium","Social","Zero",4,"Chrome",0,"Switch","squirrel",0,"",0,784,"straightahead",-1,"(Jul 13 2014 10:08:47)",0,TRUE,FALSE,4,FALSE,"look_length",20,0,"1"
1,0,0,"Jul 13 2014","10:08:47",2,"Medium","Social","Zero",4,"Chrome",0,"Switch","squirrel",0,"",0,1890,"straightahead",-1,"(Jul 13 2014 10:08:47)",0,TRUE,FALSE,4,FALSE,"look_length",20,0,"1"
1,0,0,"Jul 13 2014","10:08:47",3,"Medium","Social","Zero",4,"Chrome",0,"Switch","tomato",1,"",0,128,"straightahead",-1,"(Jul 13 2014 10:08:47)",0,TRUE,FALSE,4,FALSE,"look_length",20,0,"1"
1,0,0,"Jul 13 2014","10:08:47",4,"Medium","Social","Zero",4,"Chrome",0,"Switch","tomato",2,"",0,1769,"straightahead",-1,"(Jul 13 2014 10:08:47)",0,TRUE,FALSE,4,FALSE,"look_length",20,0,"1"
0,1,0,"Jul 13 2014","10:08:47",5,"Medium","Social","Zero",4,"Chrome",0,"Switch","Novel101",2,"Novel30",3,190,"silentLDmedium",0,"(Jul 13 2014 10:08:47)",0,TRUE,FALSE,4,FALSE,"look_length",20,0,"1"
0,0,1,"Jul 13 2014","10:08:47",6,"Medium","Social","Zero",4,"Chrome",0,"Switch","Novel115",1,"Novel30",3,3543,"straightahead",-1,"(Jul 13 2014 10:08:47)",0,TRUE,TRUE,4,FALSE,"look_length",20,0,"1"
0,1,0,"Jul 13 2014","10:08:47",7,"Medium","Social","Zero",4,"Chrome",1,"Same","Novel86",1,"Novel86",1,146,"silentRUmedium",3,"(Jul 13 2014 10:08:47)",0,TRUE,FALSE,4,TRUE,"look_length",20,0,"1"
0,0,1,"Jul 13 2014","10:08:47",8,"Medium","Social","Zero",4,"Chrome",1,"Same","Novel86",1,"Novel86",1,381,"straightahead",-1,"(Jul 13 2014 10:08:47)",0,TRUE,FALSE,4,TRUE,"look_length",20,0,"1"
0,1,0,"Jul 13 2014","10:08:47",9,"Medium","Social","Zero",4,"Chrome",2,"Switch","Novel95",2,"Novel28",3,1969,"silentLDmedium",0,"(Jul 13 2014 10:08:47)",0,TRUE,FALSE,4,FALSE,"look_length",20,0,"1"
0,0,1,"Jul 13 2014","10:08:47",10,"Medium","Social","Zero",4,"Chrome",2,"Switch","Novel28",3,"Novel28",3,1967,"straightahead",-1,"(Jul 13 2014 10:08:47)",0,TRUE,FALSE,4,TRUE,"look_length",20,0,"1"
0,1,0,"Jul 13 2014","10:08:47",11,"Medium","Social","Zero",4,"Chrome",3,"Same","Novel57",1,"Novel57",1,607,"silentRUmedium",3,"(Jul 13 2014 10:08:47)",0,TRUE,FALSE,4,TRUE,"look_length",20,0,"1"
0,0,1,"Jul 13 2014","10:08:47",12,"Medium","Social","Zero",4,"Chrome",3,"Same","Novel57",2,"Novel57",1,498,"straightahead",-1,"(Jul 13 2014 10:08:47)",0,TRUE,FALSE,4,TRUE,"look_length",20,0,"1"
0,1,0,"Jul 13 2014","10:08:47",13,"Medium","Social","Zero",4,"Chrome",4,"Switch","Novel108",0,"Novel107",1,322,"silentLUmedium",1,"(Jul 13 2014 10:08:47)",0,TRUE,FALSE,4,FALSE,"look_length",20,0,"1"
0,0,1,"Jul 13 2014","10:08:47",14,"Medium","Social","Zero",4,"Chrome",4,"Switch","Novel91",3,"Novel107",1,3055,"straightahead",-1,"(Jul 13 2014 10:08:47)",0,TRUE,FALSE,4,FALSE,"look_length",20,0,"1"
0,1,0,"Jul 13 2014","10:08:47",15,"Medium","Social","Zero",4,"Chrome",5,"Same","Novel131",2,"Novel131",2,393,"silentLDmedium",0,"(Jul 13 2014 10:08:47)",0,TRUE,FALSE,4,TRUE,"look_length",20,0,"1"
0,0,1,"Jul 13 2014","10:08:47",16,"Medium","Social","Zero",4,"Chrome",5,"Same","Novel131",2,"Novel131",2,2367,"straightahead",-1,"(Jul 13 2014 10:08:47)",0,TRUE,FALSE,4,TRUE,"look_length",20,0,"1"
0,1,0,"Jul 13 2014","10:08:47",17,"Medium","Social","Zero",4,"Chrome",6,"Switch","Novel92",1,"Novel100",2,52,"silentRUmedium",3,"(Jul 13 2014 10:08:47)",0,TRUE,FALSE,4,FALSE,"look_length",20,0,"1"
0,0,1,"Jul 13 2014","10:08:47",18,"Medium","Social","Zero",4,"Chrome",6,"Switch","Novel100",0,"Novel100",2,197,"straightahead",-1,"(Jul 13 2014 10:08:47)",0,TRUE,FALSE,4,TRUE,"look_length",20,0,"1"
0,1,0,"Jul 13 2014","10:08:47",19,"Medium","Social","Zero",4,"Chrome",7,"Same","Novel12",3,"Novel12",3,586,"silentRDmedium",2,"(Jul 13 2014 10:08:47)",0,TRUE,FALSE,4,TRUE,"look_length",20,0,"1"
0,0,1,"Jul 13 2014","10:08:47",20,"Medium","Social","Zero",4,"Chrome",7,"Same","Novel12",2,"Novel12",3,142,"straightahead",-1,"(Jul 13 2014 10:08:47)",0,TRUE,FALSE,4,TRUE,"look_length",20,0,"1"
1,0,0,"Jul 13 2014","10:10:03",1,"Medium","Social","Zero",4,"Chrome",0,"Same","squirrel",0,"",0,1228,"straightahead",-1,"(Jul 13 2014 10:10:03)",0,TRUE,FALSE,4,FALSE,"look_length",20,0,"3"
1,0,0,"Jul 13 2014","10:10:03",2,"Medium","Social","Zero",4,"Chrome",0,"Same","squirrel",0,"",0,809,"straightahead",-1,"(Jul 13 2014 10:10:03)",0,TRUE,FALSE,4,FALSE,"look_length",20,0,"3"
1,0,0,"Jul 13 2014","10:10:03",3,"Medium","Social","Zero",4,"Chrome",0,"Same","tomato",1,"",0,60,"straightahead",-1,"(Jul 13 2014 10:10:03)",0,TRUE,FALSE,4,FALSE,"look_length",20,0,"3"
1,0,0,"Jul 13 2014","10:10:03",4,"Medium","Social","Zero",4,"Chrome",0,"Same","tomato",2,"",0,1055,"straightahead",-1,"(Jul 13 2014 10:10:03)",0,TRUE,FALSE,4,FALSE,"look_length",20,0,"3"
0,1,0,"Jul 13 2014","10:10:03",5,"Medium","Social","Zero",4,"Chrome",0,"Same","Novel139",3,"Novel139",3,1924,"silentRUmedium",3,"(Jul 13 2014 10:10:03)",0,TRUE,FALSE,4,TRUE,"look_length",20,0,"3"
0,0,1,"Jul 13 2014","10:10:03",6,"Medium","Social","Zero",4,"Chrome",0,"Same","Novel139",3,"Novel139",3,1497,"straightahead",-1,"(Jul 13 2014 10:10:03)",0,TRUE,TRUE,4,TRUE,"look_length",20,0,"3"
0,1,0,"Jul 13 2014","10:10:03",7,"Medium","Social","Zero",4,"Chrome",1,"Switch","Novel131",0,"Novel122",1,3207,"silentLDmedium",0,"(Jul 13 2014 10:10:03)",0,TRUE,FALSE,4,FALSE,"look_length",20,0,"3"
0,0,1,"Jul 13 2014","10:10:03",8,"Medium","Social","Zero",4,"Chrome",1,"Switch","Novel23",3,"Novel122",1,556,"straightahead",-1,"(Jul 13 2014 10:10:03)",0,TRUE,FALSE,4,FALSE,"look_length",20,0,"3"
0,1,0,"Jul 13 2014","10:10:03",9,"Medium","Social","Zero",4,"Chrome",2,"Same","Novel24",1,"Novel24",1,2974,"silentRUmedium",3,"(Jul 13 2014 10:10:03)",0,TRUE,FALSE,4,TRUE,"look_length",20,0,"3"
0,0,1,"Jul 13 2014","10:10:03",10,"Medium","Social","Zero",4,"Chrome",2,"Same","Novel24",2,"Novel24",1,2608,"straightahead",-1,"(Jul 13 2014 10:10:03)",0,TRUE,FALSE,4,TRUE,"look_length",20,0,"3"
0,1,0,"Jul 13 2014","10:10:03",11,"Medium","Social","Zero",4,"Chrome",3,"Switch","Novel42",1,"Novel106",0,7039,"silentRDmedium",2,"(Jul 13 2014 10:10:03)",0,TRUE,FALSE,4,FALSE,"look_length",20,0,"3"
0,0,1,"Jul 13 2014","10:10:03",12,"Medium","Social","Zero",4,"Chrome",3,"Switch","Novel106",0,"Novel106",0,1053,"straightahead",-1,"(Jul 13 2014 10:10:03)",0,TRUE,FALSE,4,TRUE,"look_length",20,0,"3"
0,1,0,"Jul 13 2014","10:10:03",13,"Medium","Social","Zero",4,"Chrome",4,"Same","Novel9",1,"Novel9",1,5948,"silentLUmedium",1,"(Jul 13 2014 10:10:03)",0,TRUE,FALSE,4,TRUE,"look_length",20,0,"3"
0,0,1,"Jul 13 2014","10:10:03",14,"Medium","Social","Zero",4,"Chrome",4,"Same","Novel9",0,"Novel9",1,598,"straightahead",-1,"(Jul 13 2014 10:10:03)",0,TRUE,FALSE,4,TRUE,"look_length",20,0,"3"
0,1,0,"Jul 13 2014","10:10:03",15,"Medium","Social","Zero",4,"Chrome",5,"Switch","Novel51",0,"Novel32",3,25902,"silentLUmedium",1,"(Jul 13 2014 10:10:03)",0,TRUE,FALSE,4,FALSE,"look_length",20,0,"3"
0,0,1,"Jul 13 2014","10:10:03",16,"Medium","Social","Zero",4,"Chrome",5,"Switch","Novel47",2,"Novel32",3,3594,"straightahead",-1,"(Jul 13 2014 10:10:03)",0,TRUE,FALSE,4,FALSE,"look_length",20,0,"3"
0,1,0,"Jul 13 2014","10:10:03",17,"Medium","Social","Zero",4,"Chrome",6,"Same","Novel80",1,"Novel80",1,983,"silentRDmedium",2,"(Jul 13 2014 10:10:03)",0,TRUE,FALSE,4,TRUE,"look_length",20,0,"3"
0,0,1,"Jul 13 2014","10:10:03",18,"Medium","Social","Zero",4,"Chrome",6,"Same","Novel80",1,"Novel80",1,914,"straightahead",-1,"(Jul 13 2014 10:10:03)",0,TRUE,FALSE,4,TRUE,"look_length",20,0,"3"
0,1,0,"Jul 13 2014","10:10:03",19,"Medium","Social","Zero",4,"Chrome",7,"Switch","Novel121",2,"Novel25",3,1553,"silentLUmedium",1,"(Jul 13 2014 10:10:03)",0,TRUE,FALSE,4,FALSE,"look_length",20,0,"3"
0,0,1,"Jul 13 2014","10:10:03",20,"Medium","Social","Zero",4,"Chrome",7,"Switch","Novel7",3,"Novel25",3,1201,"straightahead",-1,"(Jul 13 2014 10:10:03)",0,TRUE,FALSE,4,FALSE,"look_length",20,0,"3"
1,0,0,"Jul 13 2014","09:45:57",1,"Short","Social","Zero",4,"Chrome",0,"Switch","squirrel",0,"",0,7025,"straightahead",-1,"(Jul 13 2014 09:45:57)",0,TRUE,FALSE,4,FALSE,"look_length",20,0,"4"
1,0,0,"Jul 13 2014","09:45:57",2,"Short","Social","Zero",4,"Chrome",0,"Switch","squirrel",0,"",0,818,"straightahead",-1,"(Jul 13 2014 09:45:57)",0,TRUE,FALSE,4,FALSE,"look_length",20,0,"4"
1,0,0,"Jul 13 2014","09:45:57",3,"Short","Social","Zero",4,"Chrome",0,"Switch","tomato",1,"",0,71,"straightahead",-1,"(Jul 13 2014 09:45:57)",0,TRUE,FALSE,4,FALSE,"look_length",20,0,"4"
1,0,0,"Jul 13 2014","09:45:57",4,"Short","Social","Zero",4,"Chrome",0,"Switch","tomato",2,"",0,267,"straightahead",-1,"(Jul 13 2014 09:45:57)",0,TRUE,FALSE,4,FALSE,"look_length",20,0,"4"
0,1,0,"Jul 13 2014","09:45:57",5,"Short","Social","Zero",4,"Chrome",0,"Switch","Novel58",0,"Novel57",2,2357,"silentRDshort",2,"(Jul 13 2014 09:45:57)",0,TRUE,FALSE,4,FALSE,"look_length",20,0,"4"
0,0,1,"Jul 13 2014","09:45:57",6,"Short","Social","Zero",4,"Chrome",0,"Switch","Novel5",0,"Novel57",2,472,"straightahead",-1,"(Jul 13 2014 09:45:57)",0,TRUE,TRUE,4,FALSE,"look_length",20,0,"4"
0,1,0,"Jul 13 2014","09:45:57",7,"Short","Social","Zero",4,"Chrome",1,"Same","Novel115",1,"Novel115",1,211,"silentRDshort",2,"(Jul 13 2014 09:45:57)",0,TRUE,FALSE,4,TRUE,"look_length",20,0,"4"
0,0,1,"Jul 13 2014","09:45:57",8,"Short","Social","Zero",4,"Chrome",1,"Same","Novel115",1,"Novel115",1,1238,"straightahead",-1,"(Jul 13 2014 09:45:57)",0,TRUE,FALSE,4,TRUE,"look_length",20,0,"4"
0,1,0,"Jul 13 2014","09:45:57",9,"Short","Social","Zero",4,"Chrome",2,"Switch","Novel62",2,"Novel22",0,131,"silentRUshort",3,"(Jul 13 2014 09:45:57)",0,TRUE,FALSE,4,FALSE,"look_length",20,0,"4"
0,0,1,"Jul 13 2014","09:45:57",10,"Short","Social","Zero",4,"Chrome",2,"Switch","Novel22",3,"Novel22",0,7121,"straightahead",-1,"(Jul 13 2014 09:45:57)",0,TRUE,FALSE,4,TRUE,"look_length",20,0,"4"
0,1,0,"Jul 13 2014","09:45:57",11,"Short","Social","Zero",4,"Chrome",3,"Same","Novel84",3,"Novel84",3,42,"silentRUshort",3,"(Jul 13 2014 09:45:57)",0,TRUE,FALSE,4,TRUE,"look_length",20,0,"4"
0,0,1,"Jul 13 2014","09:45:57",12,"Short","Social","Zero",4,"Chrome",3,"Same","Novel84",0,"Novel84",3,1369,"straightahead",-1,"(Jul 13 2014 09:45:57)",0,TRUE,FALSE,4,TRUE,"look_length",20,0,"4"
0,1,0,"Jul 13 2014","09:45:57",13,"Short","Social","Zero",4,"Chrome",4,"Switch","Novel71",0,"Novel28",2,1985,"silentLUshort",1,"(Jul 13 2014 09:45:57)",0,TRUE,FALSE,4,FALSE,"look_length",20,0,"4"
0,0,1,"Jul 13 2014","09:45:57",14,"Short","Social","Zero",4,"Chrome",4,"Switch","Novel28",1,"Novel28",2,8,"straightahead",-1,"(Jul 13 2014 09:45:57)",0,TRUE,FALSE,4,TRUE,"look_length",20,0,"4"
0,1,0,"Jul 13 2014","09:45:57",15,"Short","Social","Zero",4,"Chrome",5,"Same","Novel112",2,"Novel112",2,948,"silentLUshort",1,"(Jul 13 2014 09:45:57)",0,TRUE,FALSE,4,TRUE,"look_length",20,0,"4"
0,0,1,"Jul 13 2014","09:45:57",16,"Short","Social","Zero",4,"Chrome",5,"Same","Novel112",2,"Novel112",2,194,"straightahead",-1,"(Jul 13 2014 09:45:57)",0,TRUE,FALSE,4,TRUE,"look_length",20,0,"4"
0,1,0,"Jul 13 2014","09:45:57",17,"Short","Social","Zero",4,"Chrome",6,"Switch","Novel16",3,"Novel102",2,90,"silentRDshort",2,"(Jul 13 2014 09:45:57)",0,TRUE,FALSE,4,FALSE,"look_length",20,0,"4"
0,0,1,"Jul 13 2014","09:45:57",18,"Short","Social","Zero",4,"Chrome",6,"Switch","Novel35",0,"Novel102",2,89,"straightahead",-1,"(Jul 13 2014 09:45:57)",0,TRUE,FALSE,4,FALSE,"look_length",20,0,"4"
0,1,0,"Jul 13 2014","09:45:57",19,"Short","Social","Zero",4,"Chrome",7,"Same","Novel92",1,"Novel92",1,1151,"silentLDshort",0,"(Jul 13 2014 09:45:57)",0,TRUE,FALSE,4,TRUE,"look_length",20,0,"4"
0,0,1,"Jul 13 2014","09:45:57",20,"Short","Social","Zero",4,"Chrome",7,"Same","Novel92",3,"Novel92",1,155,"straightahead",-1,"(Jul 13 2014 09:45:57)",0,TRUE,FALSE,4,TRUE,"look_length",20,0,"4"
1,0,0,"Jul 13 2014","08:58:06",1,"Short","Social","Zero",4,"Safari",0,"Same","squirrel",0,"",0,4436,"straightahead",-1,"(Jul 13 2014 08:58:06)",0,TRUE,FALSE,4,FALSE,"look_length",20,0,"6"
1,0,0,"Jul 13 2014","08:58:06",2,"Short","Social","Zero",4,"Safari",0,"Same","squirrel",0,"",0,643,"straightahead",-1,"(Jul 13 2014 08:58:06)",0,TRUE,FALSE,4,FALSE,"look_length",20,0,"6"
1,0,0,"Jul 13 2014","08:58:06",3,"Short","Social","Zero",4,"Safari",0,"Same","tomato",1,"",0,798,"straightahead",-1,"(Jul 13 2014 08:58:06)",0,TRUE,FALSE,4,FALSE,"look_length",20,0,"6"
1,0,0,"Jul 13 2014","08:58:06",4,"Short","Social","Zero",4,"Safari",0,"Same","tomato",2,"",0,2451,"straightahead",-1,"(Jul 13 2014 08:58:06)",0,TRUE,FALSE,4,FALSE,"look_length",20,0,"6"
0,1,0,"Jul 13 2014","08:58:06",5,"Short","Social","Zero",4,"Safari",0,"Same","Novel22",1,"Novel22",1,2530,"silentLUshort",1,"(Jul 13 2014 08:58:06)",0,TRUE,FALSE,4,TRUE,"look_length",20,0,"6"
0,0,1,"Jul 13 2014","08:58:06",6,"Short","Social","Zero",4,"Safari",0,"Same","Novel22",1,"Novel22",1,4087,"straightahead",-1,"(Jul 13 2014 08:58:06)",0,TRUE,TRUE,4,TRUE,"look_length",20,0,"6"
0,1,0,"Jul 13 2014","08:58:06",7,"Short","Social","Zero",4,"Safari",1,"Switch","Novel95",1,"Novel131",0,58,"silentLDshort",0,"(Jul 13 2014 08:58:06)",0,TRUE,FALSE,4,FALSE,"look_length",20,0,"6"
0,0,1,"Jul 13 2014","08:58:06",8,"Short","Social","Zero",4,"Safari",1,"Switch","Novel131",0,"Novel131",0,502,"straightahead",-1,"(Jul 13 2014 08:58:06)",0,TRUE,FALSE,4,TRUE,"look_length",20,0,"6"
0,1,0,"Jul 13 2014","08:58:06",9,"Short","Social","Zero",4,"Safari",2,"Same","Novel24",3,"Novel24",3,1363,"silentLDshort",0,"(Jul 13 2014 08:58:06)",0,TRUE,FALSE,4,TRUE,"look_length",20,0,"6"
0,0,1,"Jul 13 2014","08:58:06",10,"Short","Social","Zero",4,"Safari",2,"Same","Novel24",2,"Novel24",3,780,"straightahead",-1,"(Jul 13 2014 08:58:06)",0,TRUE,FALSE,4,TRUE,"look_length",20,0,"6"
0,1,0,"Jul 13 2014","08:58:06",11,"Short","Social","Zero",4,"Safari",3,"Switch","Novel73",3,"Novel63",0,1218,"silentRDshort",2,"(Jul 13 2014 08:58:06)",0,TRUE,FALSE,4,FALSE,"look_length",20,0,"6"
0,0,1,"Jul 13 2014","08:58:06",12,"Short","Social","Zero",4,"Safari",3,"Switch","Novel63",2,"Novel63",0,719,"straightahead",-1,"(Jul 13 2014 08:58:06)",0,TRUE,FALSE,4,TRUE,"look_length",20,0,"6"
0,1,0,"Jul 13 2014","08:58:06",13,"Short","Social","Zero",4,"Safari",4,"Same","Novel106",1,"Novel106",1,1187,"silentRUshort",3,"(Jul 13 2014 08:58:06)",0,TRUE,FALSE,4,TRUE,"look_length",20,0,"6"
0,0,1,"Jul 13 2014","08:58:06",14,"Short","Social","Zero",4,"Safari",4,"Same","Novel106",2,"Novel106",1,2597,"straightahead",-1,"(Jul 13 2014 08:58:06)",0,TRUE,FALSE,4,TRUE,"look_length",20,0,"6"
0,1,0,"Jul 13 2014","08:58:06",15,"Short","Social","Zero",4,"Safari",5,"Switch","Novel45",3,"Novel21",1,2768,"silentLDshort",0,"(Jul 13 2014 08:58:06)",0,TRUE,FALSE,4,FALSE,"look_length",20,0,"6"
0,0,1,"Jul 13 2014","08:58:06",16,"Short","Social","Zero",4,"Safari",5,"Switch","Novel21",1,"Novel21",1,1217,"straightahead",-1,"(Jul 13 2014 08:58:06)",0,TRUE,FALSE,4,TRUE,"look_length",20,0,"6"
0,1,0,"Jul 13 2014","08:58:06",17,"Short","Social","Zero",4,"Safari",6,"Same","Novel5",3,"Novel5",3,387,"silentLUshort",1,"(Jul 13 2014 08:58:06)",0,TRUE,FALSE,4,TRUE,"look_length",20,0,"6"
0,0,1,"Jul 13 2014","08:58:06",18,"Short","Social","Zero",4,"Safari",6,"Same","Novel5",3,"Novel5",3,429,"straightahead",-1,"(Jul 13 2014 08:58:06)",0,TRUE,FALSE,4,TRUE,"look_length",20,0,"6"
0,1,0,"Jul 13 2014","08:58:06",19,"Short","Social","Zero",4,"Safari",7,"Switch","Novel18",3,"Novel93",2,3377,"silentRUshort",3,"(Jul 13 2014 08:58:06)",0,TRUE,FALSE,4,FALSE,"look_length",20,0,"6"
0,0,1,"Jul 13 2014","08:58:06",20,"Short","Social","Zero",4,"Safari",7,"Switch","Novel58",3,"Novel93",2,1529,"straightahead",-1,"(Jul 13 2014 08:58:06)",0,TRUE,FALSE,4,FALSE,"look_length",20,0,"6"
1,0,0,"Jul 13 2014","09:59:51",1,"Short","Social","Zero",4,"Chrome",0,"Switch","squirrel",0,"",0,2790,"straightahead",-1,"(Jul 13 2014 09:59:51)",0,TRUE,FALSE,4,FALSE,"look_length",20,0,"8"
1,0,0,"Jul 13 2014","09:59:51",2,"Short","Social","Zero",4,"Chrome",0,"Switch","squirrel",0,"",0,3573,"straightahead",-1,"(Jul 13 2014 09:59:51)",0,TRUE,FALSE,4,FALSE,"look_length",20,0,"8"
1,0,0,"Jul 13 2014","09:59:51",3,"Short","Social","Zero",4,"Chrome",0,"Switch","tomato",1,"",0,763,"straightahead",-1,"(Jul 13 2014 09:59:51)",0,TRUE,FALSE,4,FALSE,"look_length",20,0,"8"
1,0,0,"Jul 13 2014","09:59:51",4,"Short","Social","Zero",4,"Chrome",0,"Switch","tomato",2,"",0,441,"straightahead",-1,"(Jul 13 2014 09:59:51)",0,TRUE,FALSE,4,FALSE,"look_length",20,0,"8"
0,1,0,"Jul 13 2014","09:59:51",5,"Short","Social","Zero",4,"Chrome",0,"Switch","Novel128",1,"Novel1",2,200,"silentRUshort",3,"(Jul 13 2014 09:59:51)",0,TRUE,FALSE,4,FALSE,"look_length",20,0,"8"
0,0,1,"Jul 13 2014","09:59:51",6,"Short","Social","Zero",4,"Chrome",0,"Switch","Novel1",0,"Novel1",2,5934,"straightahead",-1,"(Jul 13 2014 09:59:51)",0,TRUE,TRUE,4,TRUE,"look_length",20,0,"8"
0,1,0,"Jul 13 2014","09:59:51",7,"Short","Social","Zero",4,"Chrome",1,"Same","Novel18",3,"Novel18",3,2084,"silentRDshort",2,"(Jul 13 2014 09:59:51)",0,TRUE,FALSE,4,TRUE,"look_length",20,0,"8"
0,0,1,"Jul 13 2014","09:59:51",8,"Short","Social","Zero",4,"Chrome",1,"Same","Novel18",3,"Novel18",3,1234,"straightahead",-1,"(Jul 13 2014 09:59:51)",0,TRUE,FALSE,4,TRUE,"look_length",20,0,"8"
0,1,0,"Jul 13 2014","09:59:51",9,"Short","Social","Zero",4,"Chrome",2,"Switch","Novel99",0,"Novel5",1,1006,"silentLUshort",1,"(Jul 13 2014 09:59:51)",0,TRUE,FALSE,4,FALSE,"look_length",20,0,"8"
0,0,1,"Jul 13 2014","09:59:51",10,"Short","Social","Zero",4,"Chrome",2,"Switch","Novel5",1,"Novel5",1,69,"straightahead",-1,"(Jul 13 2014 09:59:51)",0,TRUE,FALSE,4,TRUE,"look_length",20,0,"8"
0,1,0,"Jul 13 2014","09:59:51",11,"Short","Social","Zero",4,"Chrome",3,"Same","Novel25",1,"Novel25",1,1662,"silentRUshort",3,"(Jul 13 2014 09:59:51)",0,TRUE,FALSE,4,TRUE,"look_length",20,0,"8"
0,0,1,"Jul 13 2014","09:59:51",12,"Short","Social","Zero",4,"Chrome",3,"Same","Novel25",0,"Novel25",1,997,"straightahead",-1,"(Jul 13 2014 09:59:51)",0,TRUE,FALSE,4,TRUE,"look_length",20,0,"8"
0,1,0,"Jul 13 2014","09:59:51",13,"Short","Social","Zero",4,"Chrome",4,"Switch","Novel78",2,"Novel113",0,2285,"silentRUshort",3,"(Jul 13 2014 09:59:51)",0,TRUE,FALSE,4,FALSE,"look_length",20,0,"8"
0,0,1,"Jul 13 2014","09:59:51",14,"Short","Social","Zero",4,"Chrome",4,"Switch","Novel113",0,"Novel113",0,1508,"straightahead",-1,"(Jul 13 2014 09:59:51)",0,TRUE,FALSE,4,TRUE,"look_length",20,0,"8"
0,1,0,"Jul 13 2014","09:59:51",15,"Short","Social","Zero",4,"Chrome",5,"Same","Novel71",3,"Novel71",3,1081,"silentRDshort",2,"(Jul 13 2014 09:59:51)",0,TRUE,FALSE,4,TRUE,"look_length",20,0,"8"
0,0,1,"Jul 13 2014","09:59:51",16,"Short","Social","Zero",4,"Chrome",5,"Same","Novel71",3,"Novel71",3,487,"straightahead",-1,"(Jul 13 2014 09:59:51)",0,TRUE,FALSE,4,TRUE,"look_length",20,0,"8"
0,1,0,"Jul 13 2014","09:59:51",17,"Short","Social","Zero",4,"Chrome",6,"Switch","Novel119",3,"Novel94",0,1590,"silentRDshort",2,"(Jul 13 2014 09:59:51)",0,TRUE,FALSE,4,FALSE,"look_length",20,0,"8"
0,0,1,"Jul 13 2014","09:59:51",18,"Short","Social","Zero",4,"Chrome",6,"Switch","Novel94",1,"Novel94",0,2005,"straightahead",-1,"(Jul 13 2014 09:59:51)",0,TRUE,FALSE,4,TRUE,"look_length",20,0,"8"
0,1,0,"Jul 13 2014","09:59:51",19,"Short","Social","Zero",4,"Chrome",7,"Same","Novel72",2,"Novel72",2,214,"silentLDshort",0,"(Jul 13 2014 09:59:51)",0,TRUE,FALSE,4,TRUE,"look_length",20,0,"8"
0,0,1,"Jul 13 2014","09:59:51",20,"Short","Social","Zero",4,"Chrome",7,"Same","Novel72",3,"Novel72",2,694,"straightahead",-1,"(Jul 13 2014 09:59:51)",0,TRUE,FALSE,4,TRUE,"look_length",20,0,"8"
1,0,0,"Jul 13 2014","10:17:06",1,"Long","Social","Zero",4,"Chrome",0,"Switch","squirrel",0,"",0,3707,"straightahead",-1,"(Jul 13 2014 10:17:06)",0,TRUE,FALSE,4,FALSE,"look_length",20,0,"9"
1,0,0,"Jul 13 2014","10:17:06",2,"Long","Social","Zero",4,"Chrome",0,"Switch","squirrel",0,"",0,25,"straightahead",-1,"(Jul 13 2014 10:17:06)",0,TRUE,FALSE,4,FALSE,"look_length",20,0,"9"
1,0,0,"Jul 13 2014","10:17:06",3,"Long","Social","Zero",4,"Chrome",0,"Switch","tomato",1,"",0,1724,"straightahead",-1,"(Jul 13 2014 10:17:06)",0,TRUE,FALSE,4,FALSE,"look_length",20,0,"9"
1,0,0,"Jul 13 2014","10:17:06",4,"Long","Social","Zero",4,"Chrome",0,"Switch","tomato",2,"",0,685,"straightahead",-1,"(Jul 13 2014 10:17:06)",0,TRUE,FALSE,4,FALSE,"look_length",20,0,"9"
0,1,0,"Jul 13 2014","10:17:06",5,"Long","Social","Zero",4,"Chrome",0,"Switch","Novel109",2,"Novel63",1,109,"silentLDlong",0,"(Jul 13 2014 10:17:06)",0,TRUE,FALSE,4,FALSE,"look_length",20,0,"9"
0,0,1,"Jul 13 2014","10:17:06",6,"Long","Social","Zero",4,"Chrome",0,"Switch","Novel82",2,"Novel63",1,4570,"straightahead",-1,"(Jul 13 2014 10:17:06)",0,TRUE,TRUE,4,FALSE,"look_length",20,0,"9"
0,1,0,"Jul 13 2014","10:17:06",7,"Long","Social","Zero",4,"Chrome",1,"Same","Novel132",1,"Novel132",1,646,"silentRUlong",3,"(Jul 13 2014 10:17:06)",0,TRUE,FALSE,4,TRUE,"look_length",20,0,"9"
0,0,1,"Jul 13 2014","10:17:06",8,"Long","Social","Zero",4,"Chrome",1,"Same","Novel132",1,"Novel132",1,653,"straightahead",-1,"(Jul 13 2014 10:17:06)",0,TRUE,FALSE,4,TRUE,"look_length",20,0,"9"
0,1,0,"Jul 13 2014","10:17:06",9,"Long","Social","Zero",4,"Chrome",2,"Switch","Novel80",1,"Novel32",3,628,"silentRUlong",3,"(Jul 13 2014 10:17:06)",0,TRUE,FALSE,4,FALSE,"look_length",20,0,"9"
0,0,1,"Jul 13 2014","10:17:06",10,"Long","Social","Zero",4,"Chrome",2,"Switch","Novel51",1,"Novel32",3,540,"straightahead",-1,"(Jul 13 2014 10:17:06)",0,TRUE,FALSE,4,FALSE,"look_length",20,0,"9"
0,1,0,"Jul 13 2014","10:17:06",11,"Long","Social","Zero",4,"Chrome",3,"Same","Novel89",0,"Novel89",0,1063,"silentLUlong",1,"(Jul 13 2014 10:17:06)",0,TRUE,FALSE,4,TRUE,"look_length",20,0,"9"
0,0,1,"Jul 13 2014","10:17:06",12,"Long","Social","Zero",4,"Chrome",3,"Same","Novel89",0,"Novel89",0,759,"straightahead",-1,"(Jul 13 2014 10:17:06)",0,TRUE,FALSE,4,TRUE,"look_length",20,0,"9"
0,1,0,"Jul 13 2014","10:17:06",13,"Long","Social","Zero",4,"Chrome",4,"Switch","Novel29",0,"Novel11",3,525,"silentLUlong",1,"(Jul 13 2014 10:17:06)",0,TRUE,FALSE,4,FALSE,"look_length",20,0,"9"
0,0,1,"Jul 13 2014","10:17:06",14,"Long","Social","Zero",4,"Chrome",4,"Switch","Novel116",0,"Novel11",3,673,"straightahead",-1,"(Jul 13 2014 10:17:06)",0,TRUE,FALSE,4,FALSE,"look_length",20,0,"9"
0,1,0,"Jul 13 2014","10:17:06",15,"Long","Social","Zero",4,"Chrome",5,"Same","Novel129",0,"Novel129",0,424,"silentLUlong",1,"(Jul 13 2014 10:17:06)",0,TRUE,FALSE,4,TRUE,"look_length",20,0,"9"
0,0,1,"Jul 13 2014","10:17:06",16,"Long","Social","Zero",4,"Chrome",5,"Same","Novel129",2,"Novel129",0,460,"straightahead",-1,"(Jul 13 2014 10:17:06)",0,TRUE,FALSE,4,TRUE,"look_length",20,0,"9"
0,1,0,"Jul 13 2014","10:17:06",17,"Long","Social","Zero",4,"Chrome",6,"Switch","Novel6",0,"Novel131",3,462,"silentLUlong",1,"(Jul 13 2014 10:17:06)",0,TRUE,FALSE,4,FALSE,"look_length",20,0,"9"
0,0,1,"Jul 13 2014","10:17:06",18,"Long","Social","Zero",4,"Chrome",6,"Switch","Novel44",2,"Novel131",3,350,"straightahead",-1,"(Jul 13 2014 10:17:06)",0,TRUE,FALSE,4,FALSE,"look_length",20,0,"9"
0,1,0,"Jul 13 2014","10:17:06",19,"Long","Social","Zero",4,"Chrome",7,"Same","Novel76",3,"Novel76",3,974,"silentRDlong",2,"(Jul 13 2014 10:17:06)",0,TRUE,FALSE,4,TRUE,"look_length",20,0,"9"
0,0,1,"Jul 13 2014","10:17:06",20,"Long","Social","Zero",4,"Chrome",7,"Same","Novel76",2,"Novel76",3,488,"straightahead",-1,"(Jul 13 2014 10:17:06)",0,TRUE,FALSE,4,TRUE,"look_length",20,0,"9"
1,0,0,"Jul 13 2014","10:42:49",1,"Short","Social","Zero",4,"Chrome",0,"Switch","squirrel",0,"",0,1673,"straightahead",-1,"(Jul 13 2014 10:42:49)",0,TRUE,FALSE,4,FALSE,"look_length",20,0,"10"
1,0,0,"Jul 13 2014","10:42:49",2,"Short","Social","Zero",4,"Chrome",0,"Switch","squirrel",0,"",0,227,"straightahead",-1,"(Jul 13 2014 10:42:49)",0,TRUE,FALSE,4,FALSE,"look_length",20,0,"10"
1,0,0,"Jul 13 2014","10:42:49",3,"Short","Social","Zero",4,"Chrome",0,"Switch","tomato",1,"",0,227,"straightahead",-1,"(Jul 13 2014 10:42:49)",0,TRUE,FALSE,4,FALSE,"look_length",20,0,"10"
1,0,0,"Jul 13 2014","10:42:49",4,"Short","Social","Zero",4,"Chrome",0,"Switch","tomato",2,"",0,4,"straightahead",-1,"(Jul 13 2014 10:42:49)",0,TRUE,FALSE,4,FALSE,"look_length",20,0,"10"
0,1,0,"Jul 13 2014","10:42:49",5,"Short","Social","Zero",4,"Chrome",0,"Switch","Novel116",2,"Novel48",3,4419,"silentRUshort",3,"(Jul 13 2014 10:42:49)",0,TRUE,FALSE,4,FALSE,"look_length",20,0,"10"
0,0,1,"Jul 13 2014","10:42:49",6,"Short","Social","Zero",4,"Chrome",0,"Switch","Novel48",1,"Novel48",3,1182,"straightahead",-1,"(Jul 13 2014 10:42:49)",0,TRUE,TRUE,4,TRUE,"look_length",20,0,"10"
0,1,0,"Jul 13 2014","10:42:49",7,"Short","Social","Zero",4,"Chrome",1,"Same","Novel92",1,"Novel92",1,256,"silentRDshort",2,"(Jul 13 2014 10:42:49)",0,TRUE,FALSE,4,TRUE,"look_length",20,0,"10"
0,0,1,"Jul 13 2014","10:42:49",8,"Short","Social","Zero",4,"Chrome",1,"Same","Novel80",1,"Novel92",1,200,"straightahead",-1,"(Jul 13 2014 10:42:49)",0,TRUE,FALSE,4,FALSE,"look_length",20,0,"10"
0,1,0,"Jul 13 2014","10:42:49",9,"Short","Social","Zero",4,"Chrome",2,"Switch","Novel60",0,"Novel50",3,741,"silentRDshort",2,"(Jul 13 2014 10:42:49)",0,TRUE,FALSE,4,FALSE,"look_length",20,0,"10"
0,0,1,"Jul 13 2014","10:42:49",10,"Short","Social","Zero",4,"Chrome",2,"Switch","Novel82",0,"Novel50",3,139,"straightahead",-1,"(Jul 13 2014 10:42:49)",0,TRUE,FALSE,4,FALSE,"look_length",20,0,"10"
0,1,0,"Jul 13 2014","10:42:49",11,"Short","Social","Zero",4,"Chrome",3,"Same","Novel95",1,"Novel95",1,1188,"silentLUshort",1,"(Jul 13 2014 10:42:49)",0,TRUE,FALSE,4,TRUE,"look_length",20,0,"10"
0,0,1,"Jul 13 2014","10:42:49",12,"Short","Social","Zero",4,"Chrome",3,"Same","Novel95",1,"Novel95",1,2496,"straightahead",-1,"(Jul 13 2014 10:42:49)",0,TRUE,FALSE,4,TRUE,"look_length",20,0,"10"
0,1,0,"Jul 13 2014","10:42:49",13,"Short","Social","Zero",4,"Chrome",4,"Switch","Novel43",3,"Novel47",1,893,"silentRDshort",2,"(Jul 13 2014 10:42:49)",0,TRUE,FALSE,4,FALSE,"look_length",20,0,"10"
0,0,1,"Jul 13 2014","10:42:49",14,"Short","Social","Zero",4,"Chrome",4,"Switch","Novel106",0,"Novel47",1,1456,"straightahead",-1,"(Jul 13 2014 10:42:49)",0,TRUE,FALSE,4,FALSE,"look_length",20,0,"10"
0,1,0,"Jul 13 2014","10:42:49",15,"Short","Social","Zero",4,"Chrome",5,"Same","Novel136",1,"Novel136",1,2008,"silentRDshort",2,"(Jul 13 2014 10:42:49)",0,TRUE,FALSE,4,TRUE,"look_length",20,0,"10"
0,0,1,"Jul 13 2014","10:42:49",16,"Short","Social","Zero",4,"Chrome",5,"Same","Novel125",2,"Novel136",1,150,"straightahead",-1,"(Jul 13 2014 10:42:49)",0,TRUE,FALSE,4,FALSE,"look_length",20,0,"10"
0,1,0,"Jul 13 2014","10:42:49",17,"Short","Social","Zero",4,"Chrome",6,"Switch","Novel127",1,"Novel12",3,130,"silentRUshort",3,"(Jul 13 2014 10:42:49)",0,TRUE,FALSE,4,FALSE,"look_length",20,0,"10"
0,0,1,"Jul 13 2014","10:42:49",18,"Short","Social","Zero",4,"Chrome",6,"Switch","Novel12",3,"Novel12",3,44,"straightahead",-1,"(Jul 13 2014 10:42:49)",0,TRUE,FALSE,4,TRUE,"look_length",20,0,"10"
0,1,0,"Jul 13 2014","10:42:49",19,"Short","Social","Zero",4,"Chrome",7,"Same","Novel99",2,"Novel99",2,1464,"silentLUshort",1,"(Jul 13 2014 10:42:49)",0,TRUE,FALSE,4,TRUE,"look_length",20,0,"10"
0,0,1,"Jul 13 2014","10:42:49",20,"Short","Social","Zero",4,"Chrome",7,"Same","Novel54",3,"Novel99",2,709,"straightahead",-1,"(Jul 13 2014 10:42:49)",0,TRUE,FALSE,4,FALSE,"look_length",20,0,"10"
1,0,0,"Jul 13 2014","09:28:23",1,"Medium","Social","Zero",4,"Chrome",0,"Switch","squirrel",0,"",0,2464,"straightahead",-1,"(Jul 13 2014 09:28:23)",0,TRUE,FALSE,4,FALSE,"look_length",20,0,"11"
1,0,0,"Jul 13 2014","09:28:23",2,"Medium","Social","Zero",4,"Chrome",0,"Switch","squirrel",0,"",0,1220,"straightahead",-1,"(Jul 13 2014 09:28:23)",0,TRUE,FALSE,4,FALSE,"look_length",20,0,"11"
1,0,0,"Jul 13 2014","09:28:23",3,"Medium","Social","Zero",4,"Chrome",0,"Switch","tomato",1,"",0,235,"straightahead",-1,"(Jul 13 2014 09:28:23)",0,TRUE,FALSE,4,FALSE,"look_length",20,0,"11"
1,0,0,"Jul 13 2014","09:28:23",4,"Medium","Social","Zero",4,"Chrome",0,"Switch","tomato",2,"",0,201,"straightahead",-1,"(Jul 13 2014 09:28:23)",0,TRUE,FALSE,4,FALSE,"look_length",20,0,"11"
0,1,0,"Jul 13 2014","09:28:23",5,"Medium","Social","Zero",4,"Chrome",0,"Switch","Novel119",1,"Novel113",2,3092,"silentLUmedium",1,"(Jul 13 2014 09:28:23)",0,TRUE,FALSE,4,FALSE,"look_length",20,0,"11"
0,0,1,"Jul 13 2014","09:28:23",6,"Medium","Social","Zero",4,"Chrome",0,"Switch","Novel113",2,"Novel113",2,473,"straightahead",-1,"(Jul 13 2014 09:28:23)",0,TRUE,TRUE,4,TRUE,"look_length",20,0,"11"
0,1,0,"Jul 13 2014","09:28:23",7,"Medium","Social","Zero",4,"Chrome",1,"Same","Novel50",0,"Novel50",0,140,"silentLUmedium",1,"(Jul 13 2014 09:28:23)",0,TRUE,FALSE,4,TRUE,"look_length",20,0,"11"
0,0,1,"Jul 13 2014","09:28:23",8,"Medium","Social","Zero",4,"Chrome",1,"Same","Novel50",2,"Novel50",0,616,"straightahead",-1,"(Jul 13 2014 09:28:23)",0,TRUE,FALSE,4,TRUE,"look_length",20,0,"11"
0,1,0,"Jul 13 2014","09:28:23",9,"Medium","Social","Zero",4,"Chrome",2,"Switch","Novel59",0,"Novel70",2,248,"silentLUmedium",1,"(Jul 13 2014 09:28:23)",0,TRUE,FALSE,4,FALSE,"look_length",20,0,"11"
0,0,1,"Jul 13 2014","09:28:23",10,"Medium","Social","Zero",4,"Chrome",2,"Switch","Novel70",2,"Novel70",2,224,"straightahead",-1,"(Jul 13 2014 09:28:23)",0,TRUE,FALSE,4,TRUE,"look_length",20,0,"11"
0,1,0,"Jul 13 2014","09:28:23",11,"Medium","Social","Zero",4,"Chrome",3,"Same","Novel126",2,"Novel126",2,2160,"silentRDmedium",2,"(Jul 13 2014 09:28:23)",0,TRUE,FALSE,4,TRUE,"look_length",20,0,"11"
0,0,1,"Jul 13 2014","09:28:23",12,"Medium","Social","Zero",4,"Chrome",3,"Same","Novel126",2,"Novel126",2,636,"straightahead",-1,"(Jul 13 2014 09:28:23)",0,TRUE,FALSE,4,TRUE,"look_length",20,0,"11"
0,1,0,"Jul 13 2014","09:28:23",13,"Medium","Social","Zero",4,"Chrome",4,"Switch","Novel137",0,"Novel46",1,705,"silentLUmedium",1,"(Jul 13 2014 09:28:23)",0,TRUE,FALSE,4,FALSE,"look_length",20,0,"11"
0,0,1,"Jul 13 2014","09:28:23",14,"Medium","Social","Zero",4,"Chrome",4,"Switch","Novel46",0,"Novel46",1,765,"straightahead",-1,"(Jul 13 2014 09:28:23)",0,TRUE,FALSE,4,TRUE,"look_length",20,0,"11"
0,1,0,"Jul 13 2014","09:28:23",15,"Medium","Social","Zero",4,"Chrome",5,"Same","Novel52",0,"Novel52",0,1174,"silentRDmedium",2,"(Jul 13 2014 09:28:23)",0,TRUE,FALSE,4,TRUE,"look_length",20,0,"11"
0,0,1,"Jul 13 2014","09:28:23",16,"Medium","Social","Zero",4,"Chrome",5,"Same","Novel52",2,"Novel52",0,376,"straightahead",-1,"(Jul 13 2014 09:28:23)",0,TRUE,FALSE,4,TRUE,"look_length",20,0,"11"
0,1,0,"Jul 13 2014","09:28:23",17,"Medium","Social","Zero",4,"Chrome",6,"Switch","Novel101",1,"Novel94",2,816,"silentRUmedium",3,"(Jul 13 2014 09:28:23)",0,TRUE,FALSE,4,FALSE,"look_length",20,0,"11"
0,0,1,"Jul 13 2014","09:28:23",18,"Medium","Social","Zero",4,"Chrome",6,"Switch","Novel94",1,"Novel94",2,147,"straightahead",-1,"(Jul 13 2014 09:28:23)",0,TRUE,FALSE,4,TRUE,"look_length",20,0,"11"
0,1,0,"Jul 13 2014","09:28:23",19,"Medium","Social","Zero",4,"Chrome",7,"Same","Novel37",2,"Novel37",2,1108,"silentRUmedium",3,"(Jul 13 2014 09:28:23)",0,TRUE,FALSE,4,TRUE,"look_length",20,0,"11"
0,0,1,"Jul 13 2014","09:28:23",20,"Medium","Social","Zero",4,"Chrome",7,"Same","Novel37",2,"Novel37",2,909,"straightahead",-1,"(Jul 13 2014 09:28:23)",0,TRUE,FALSE,4,TRUE,"look_length",20,0,"11"
1,0,0,"Jul 13 2014","09:34:34",1,"Long","Social","Zero",4,"Chrome",0,"Same","squirrel",0,"",0,1532,"straightahead",-1,"(Jul 13 2014 09:34:34)",0,TRUE,FALSE,4,FALSE,"look_length",20,0,"12"
1,0,0,"Jul 13 2014","09:34:34",2,"Long","Social","Zero",4,"Chrome",0,"Same","squirrel",0,"",0,50,"straightahead",-1,"(Jul 13 2014 09:34:34)",0,TRUE,FALSE,4,FALSE,"look_length",20,0,"12"
1,0,0,"Jul 13 2014","09:34:34",3,"Long","Social","Zero",4,"Chrome",0,"Same","tomato",1,"",0,620,"straightahead",-1,"(Jul 13 2014 09:34:34)",0,TRUE,FALSE,4,FALSE,"look_length",20,0,"12"
1,0,0,"Jul 13 2014","09:34:34",4,"Long","Social","Zero",4,"Chrome",0,"Same","tomato",2,"",0,659,"straightahead",-1,"(Jul 13 2014 09:34:34)",0,TRUE,FALSE,4,FALSE,"look_length",20,0,"12"
0,1,0,"Jul 13 2014","09:34:34",5,"Long","Social","Zero",4,"Chrome",0,"Same","Novel32",1,"Novel32",1,291,"silentRUlong",3,"(Jul 13 2014 09:34:34)",0,TRUE,FALSE,4,TRUE,"look_length",20,0,"12"
0,0,1,"Jul 13 2014","09:34:34",6,"Long","Social","Zero",4,"Chrome",0,"Same","Novel32",3,"Novel32",1,997,"straightahead",-1,"(Jul 13 2014 09:34:34)",0,TRUE,TRUE,4,TRUE,"look_length",20,0,"12"
0,1,0,"Jul 13 2014","09:34:34",7,"Long","Social","Zero",4,"Chrome",1,"Switch","Novel55",1,"Novel71",3,1206,"silentRUlong",3,"(Jul 13 2014 09:34:34)",0,TRUE,FALSE,4,FALSE,"look_length",20,0,"12"
0,0,1,"Jul 13 2014","09:34:34",8,"Long","Social","Zero",4,"Chrome",1,"Switch","Novel100",0,"Novel71",3,2524,"straightahead",-1,"(Jul 13 2014 09:34:34)",0,TRUE,FALSE,4,FALSE,"look_length",20,0,"12"
0,1,0,"Jul 13 2014","09:34:34",9,"Long","Social","Zero",4,"Chrome",2,"Same","Novel61",3,"Novel61",3,1078,"silentRDlong",2,"(Jul 13 2014 09:34:34)",0,TRUE,FALSE,4,TRUE,"look_length",20,0,"12"
0,0,1,"Jul 13 2014","09:34:34",10,"Long","Social","Zero",4,"Chrome",2,"Same","Novel61",3,"Novel61",3,147,"straightahead",-1,"(Jul 13 2014 09:34:34)",0,TRUE,FALSE,4,TRUE,"look_length",20,0,"12"
0,1,0,"Jul 13 2014","09:34:34",11,"Long","Social","Zero",4,"Chrome",3,"Switch","Novel98",0,"Novel114",2,1549,"silentLUlong",1,"(Jul 13 2014 09:34:34)",0,TRUE,FALSE,4,FALSE,"look_length",20,0,"12"
0,0,1,"Jul 13 2014","09:34:34",12,"Long","Social","Zero",4,"Chrome",3,"Switch","Novel6",1,"Novel114",2,3861,"straightahead",-1,"(Jul 13 2014 09:34:34)",0,TRUE,FALSE,4,FALSE,"look_length",20,0,"12"
0,1,0,"Jul 13 2014","09:34:34",13,"Long","Social","Zero",4,"Chrome",4,"Same","Novel42",2,"Novel42",2,1020,"silentLDlong",0,"(Jul 13 2014 09:34:34)",0,TRUE,FALSE,4,TRUE,"look_length",20,0,"12"
0,0,1,"Jul 13 2014","09:34:34",14,"Long","Social","Zero",4,"Chrome",4,"Same","Novel42",2,"Novel42",2,71,"straightahead",-1,"(Jul 13 2014 09:34:34)",0,TRUE,FALSE,4,TRUE,"look_length",20,0,"12"
0,1,0,"Jul 13 2014","09:34:34",15,"Long","Social","Zero",4,"Chrome",5,"Switch","Novel16",0,"Novel92",3,693,"silentLUlong",1,"(Jul 13 2014 09:34:34)",0,TRUE,FALSE,4,FALSE,"look_length",20,0,"12"
0,0,1,"Jul 13 2014","09:34:34",16,"Long","Social","Zero",4,"Chrome",5,"Switch","Novel92",1,"Novel92",3,164,"straightahead",-1,"(Jul 13 2014 09:34:34)",0,TRUE,FALSE,4,TRUE,"look_length",20,0,"12"
0,1,0,"Jul 13 2014","09:34:34",17,"Long","Social","Zero",4,"Chrome",6,"Same","Novel50",0,"Novel50",0,54,"silentLUlong",1,"(Jul 13 2014 09:34:34)",0,TRUE,FALSE,4,TRUE,"look_length",20,0,"12"
0,0,1,"Jul 13 2014","09:34:34",18,"Long","Social","Zero",4,"Chrome",6,"Same","Novel50",3,"Novel50",0,668,"straightahead",-1,"(Jul 13 2014 09:34:34)",0,TRUE,FALSE,4,TRUE,"look_length",20,0,"12"
0,1,0,"Jul 13 2014","09:34:34",19,"Long","Social","Zero",4,"Chrome",7,"Switch","Novel18",3,"Novel46",2,604,"silentRDlong",2,"(Jul 13 2014 09:34:34)",0,TRUE,FALSE,4,FALSE,"look_length",20,0,"12"
0,0,1,"Jul 13 2014","09:34:34",20,"Long","Social","Zero",4,"Chrome",7,"Switch","Novel56",3,"Novel46",2,806,"straightahead",-1,"(Jul 13 2014 09:34:34)",0,TRUE,FALSE,4,FALSE,"look_length",20,0,"12"
1,0,0,"Jul 13 2014","09:12:59",1,"Long","Social","Zero",4,"Chrome",0,"Switch","squirrel",0,"",0,2825,"straightahead",-1,"(Jul 13 2014 09:12:59)",0,TRUE,FALSE,4,FALSE,"look_length",20,0,"13"
1,0,0,"Jul 13 2014","09:12:59",2,"Long","Social","Zero",4,"Chrome",0,"Switch","squirrel",0,"",0,2050,"straightahead",-1,"(Jul 13 2014 09:12:59)",0,TRUE,FALSE,4,FALSE,"look_length",20,0,"13"
1,0,0,"Jul 13 2014","09:12:59",3,"Long","Social","Zero",4,"Chrome",0,"Switch","tomato",1,"",0,600,"straightahead",-1,"(Jul 13 2014 09:12:59)",0,TRUE,FALSE,4,FALSE,"look_length",20,0,"13"
1,0,0,"Jul 13 2014","09:12:59",4,"Long","Social","Zero",4,"Chrome",0,"Switch","tomato",2,"",0,101,"straightahead",-1,"(Jul 13 2014 09:12:59)",0,TRUE,FALSE,4,FALSE,"look_length",20,0,"13"
0,1,0,"Jul 13 2014","09:12:59",5,"Long","Social","Zero",4,"Chrome",0,"Switch","Novel16",0,"Novel14",1,1553,"silentLUlong",1,"(Jul 13 2014 09:12:59)",0,TRUE,FALSE,4,FALSE,"look_length",20,0,"13"
0,0,1,"Jul 13 2014","09:12:59",6,"Long","Social","Zero",4,"Chrome",0,"Switch","Novel14",1,"Novel14",1,2374,"straightahead",-1,"(Jul 13 2014 09:12:59)",0,TRUE,TRUE,4,TRUE,"look_length",20,0,"13"
0,1,0,"Jul 13 2014","09:12:59",7,"Long","Social","Zero",4,"Chrome",1,"Same","Novel66",2,"Novel66",2,790,"silentRDlong",2,"(Jul 13 2014 09:12:59)",0,TRUE,FALSE,4,TRUE,"look_length",20,0,"13"
0,0,1,"Jul 13 2014","09:12:59",8,"Long","Social","Zero",4,"Chrome",1,"Same","Novel66",0,"Novel66",2,178,"straightahead",-1,"(Jul 13 2014 09:12:59)",0,TRUE,FALSE,4,TRUE,"look_length",20,0,"13"
0,1,0,"Jul 13 2014","09:12:59",9,"Long","Social","Zero",4,"Chrome",2,"Switch","Novel33",0,"Novel49",1,743,"silentLDlong",0,"(Jul 13 2014 09:12:59)",0,TRUE,FALSE,4,FALSE,"look_length",20,0,"13"
0,0,1,"Jul 13 2014","09:12:59",10,"Long","Social","Zero",4,"Chrome",2,"Switch","Novel49",1,"Novel49",1,727,"straightahead",-1,"(Jul 13 2014 09:12:59)",0,TRUE,FALSE,4,TRUE,"look_length",20,0,"13"
0,1,0,"Jul 13 2014","09:12:59",11,"Long","Social","Zero",4,"Chrome",3,"Same","Novel65",3,"Novel65",3,942,"silentLDlong",0,"(Jul 13 2014 09:12:59)",0,TRUE,FALSE,4,TRUE,"look_length",20,0,"13"
0,0,1,"Jul 13 2014","09:12:59",12,"Long","Social","Zero",4,"Chrome",3,"Same","Novel65",1,"Novel65",3,918,"straightahead",-1,"(Jul 13 2014 09:12:59)",0,TRUE,FALSE,4,TRUE,"look_length",20,0,"13"
0,1,0,"Jul 13 2014","09:12:59",13,"Long","Social","Zero",4,"Chrome",4,"Switch","Novel128",0,"Novel23",3,585,"silentLUlong",1,"(Jul 13 2014 09:12:59)",0,TRUE,FALSE,4,FALSE,"look_length",20,0,"13"
0,0,1,"Jul 13 2014","09:12:59",14,"Long","Social","Zero",4,"Chrome",4,"Switch","Novel23",2,"Novel23",3,3093,"straightahead",-1,"(Jul 13 2014 09:12:59)",0,TRUE,FALSE,4,TRUE,"look_length",20,0,"13"
0,1,0,"Jul 13 2014","09:12:59",15,"Long","Social","Zero",4,"Chrome",5,"Same","Novel116",1,"Novel116",1,1264,"silentLDlong",0,"(Jul 13 2014 09:12:59)",0,TRUE,FALSE,4,TRUE,"look_length",20,0,"13"
0,0,1,"Jul 13 2014","09:12:59",16,"Long","Social","Zero",4,"Chrome",5,"Same","Novel116",1,"Novel116",1,48,"straightahead",-1,"(Jul 13 2014 09:12:59)",0,TRUE,FALSE,4,TRUE,"look_length",20,0,"13"
0,1,0,"Jul 13 2014","09:12:59",17,"Long","Social","Zero",4,"Chrome",6,"Switch","Novel43",3,"Novel5",1,1439,"silentLDlong",0,"(Jul 13 2014 09:12:59)",0,TRUE,FALSE,4,FALSE,"look_length",20,0,"13"
0,0,1,"Jul 13 2014","09:12:59",18,"Long","Social","Zero",4,"Chrome",6,"Switch","Novel5",2,"Novel5",1,1187,"straightahead",-1,"(Jul 13 2014 09:12:59)",0,TRUE,FALSE,4,TRUE,"look_length",20,0,"13"
0,1,0,"Jul 13 2014","09:12:59",19,"Long","Social","Zero",4,"Chrome",7,"Same","Novel80",0,"Novel80",0,166,"silentLUlong",1,"(Jul 13 2014 09:12:59)",0,TRUE,FALSE,4,TRUE,"look_length",20,0,"13"
0,0,1,"Jul 13 2014","09:12:59",20,"Long","Social","Zero",4,"Chrome",7,"Same","Novel80",0,"Novel80",0,649,"straightahead",-1,"(Jul 13 2014 09:12:59)",0,TRUE,FALSE,4,TRUE,"look_length",20,0,"13"
1,0,0,"Jul 13 2014","08:24:40",1,"Long","Social","Zero",4,"Chrome",0,"Switch","squirrel",0,"",0,7721,"straightahead",-1,"(Jul 13 2014 08:24:40)",0,TRUE,FALSE,4,FALSE,"look_length",20,0,"14"
1,0,0,"Jul 13 2014","08:24:40",2,"Long","Social","Zero",4,"Chrome",0,"Switch","squirrel",0,"",0,1965,"straightahead",-1,"(Jul 13 2014 08:24:40)",0,TRUE,FALSE,4,FALSE,"look_length",20,0,"14"
1,0,0,"Jul 13 2014","08:24:40",3,"Long","Social","Zero",4,"Chrome",0,"Switch","tomato",1,"",0,403,"straightahead",-1,"(Jul 13 2014 08:24:40)",0,TRUE,FALSE,4,FALSE,"look_length",20,0,"14"
1,0,0,"Jul 13 2014","08:24:40",4,"Long","Social","Zero",4,"Chrome",0,"Switch","tomato",2,"",0,984,"straightahead",-1,"(Jul 13 2014 08:24:40)",0,TRUE,FALSE,4,FALSE,"look_length",20,0,"14"
0,1,0,"Jul 13 2014","08:24:40",5,"Long","Social","Zero",4,"Chrome",0,"Switch","Novel9",1,"Novel139",0,1551,"silentRUlong",3,"(Jul 13 2014 08:24:40)",0,TRUE,FALSE,4,FALSE,"look_length",20,0,"14"
0,0,1,"Jul 13 2014","08:24:40",6,"Long","Social","Zero",4,"Chrome",0,"Switch","Novel106",3,"Novel139",0,7399,"straightahead",-1,"(Jul 13 2014 08:24:40)",0,TRUE,TRUE,4,FALSE,"look_length",20,0,"14"
0,1,0,"Jul 13 2014","08:24:40",7,"Long","Social","Zero",4,"Chrome",1,"Same","Novel33",3,"Novel33",3,228,"silentRDlong",2,"(Jul 13 2014 08:24:40)",0,TRUE,FALSE,4,TRUE,"look_length",20,0,"14"
0,0,1,"Jul 13 2014","08:24:40",8,"Long","Social","Zero",4,"Chrome",1,"Same","Novel33",3,"Novel33",3,405,"straightahead",-1,"(Jul 13 2014 08:24:40)",0,TRUE,FALSE,4,TRUE,"look_length",20,0,"14"
0,1,0,"Jul 13 2014","08:24:40",9,"Long","Social","Zero",4,"Chrome",2,"Switch","Novel49",3,"Novel108",1,495,"silentRDlong",2,"(Jul 13 2014 08:24:40)",0,TRUE,FALSE,4,FALSE,"look_length",20,0,"14"
0,0,1,"Jul 13 2014","08:24:40",10,"Long","Social","Zero",4,"Chrome",2,"Switch","Novel34",1,"Novel108",1,956,"straightahead",-1,"(Jul 13 2014 08:24:40)",0,TRUE,FALSE,4,FALSE,"look_length",20,0,"14"
0,1,0,"Jul 13 2014","08:24:40",11,"Long","Social","Zero",4,"Chrome",3,"Same","Novel126",1,"Novel126",1,679,"silentRUlong",3,"(Jul 13 2014 08:24:40)",0,TRUE,FALSE,4,TRUE,"look_length",20,0,"14"
0,0,1,"Jul 13 2014","08:24:40",12,"Long","Social","Zero",4,"Chrome",3,"Same","Novel15",0,"Novel126",1,417,"straightahead",-1,"(Jul 13 2014 08:24:40)",0,TRUE,FALSE,4,FALSE,"look_length",20,0,"14"
0,1,0,"Jul 13 2014","08:24:40",13,"Long","Social","Zero",4,"Chrome",4,"Switch","Novel47",0,"Novel94",3,422,"silentLUlong",1,"(Jul 13 2014 08:24:40)",0,TRUE,FALSE,4,FALSE,"look_length",20,0,"14"
0,0,1,"Jul 13 2014","08:24:40",14,"Long","Social","Zero",4,"Chrome",4,"Switch","Novel14",3,"Novel94",3,303,"straightahead",-1,"(Jul 13 2014 08:24:40)",0,TRUE,FALSE,4,FALSE,"look_length",20,0,"14"
0,1,0,"Jul 13 2014","08:24:40",15,"Long","Social","Zero",4,"Chrome",5,"Same","Novel43",2,"Novel43",2,402,"silentLDlong",0,"(Jul 13 2014 08:24:40)",0,TRUE,FALSE,4,TRUE,"look_length",20,0,"14"
0,0,1,"Jul 13 2014","08:24:40",16,"Long","Social","Zero",4,"Chrome",5,"Same","Novel5",0,"Novel43",2,415,"straightahead",-1,"(Jul 13 2014 08:24:40)",0,TRUE,FALSE,4,FALSE,"look_length",20,0,"14"
0,1,0,"Jul 13 2014","08:24:40",17,"Long","Social","Zero",4,"Chrome",6,"Switch","Novel38",3,"Novel16",2,178,"silentRDlong",2,"(Jul 13 2014 08:24:40)",0,TRUE,FALSE,4,FALSE,"look_length",20,0,"14"
0,0,1,"Jul 13 2014","08:24:40",18,"Long","Social","Zero",4,"Chrome",6,"Switch","Novel125",1,"Novel16",2,1114,"straightahead",-1,"(Jul 13 2014 08:24:40)",0,TRUE,FALSE,4,FALSE,"look_length",20,0,"14"
0,1,0,"Jul 13 2014","08:24:40",19,"Long","Social","Zero",4,"Chrome",7,"Same","Novel81",3,"Novel81",3,241,"silentRDlong",2,"(Jul 13 2014 08:24:40)",0,TRUE,FALSE,4,TRUE,"look_length",20,0,"14"
0,0,1,"Jul 13 2014","08:24:40",20,"Long","Social","Zero",4,"Chrome",7,"Same","Novel81",1,"Novel81",3,977,"straightahead",-1,"(Jul 13 2014 08:24:40)",0,TRUE,FALSE,4,TRUE,"look_length",20,0,"14"
1,0,0,"Jul 13 2014","10:28:15",1,"Medium","Social","Zero",4,"Chrome",0,"Same","squirrel",0,"",0,3127,"straightahead",-1,"(Jul 13 2014 10:28:15)",0,TRUE,FALSE,4,FALSE,"look_length",20,0,"15"
1,0,0,"Jul 13 2014","10:28:15",2,"Medium","Social","Zero",4,"Chrome",0,"Same","squirrel",0,"",0,1284,"straightahead",-1,"(Jul 13 2014 10:28:15)",0,TRUE,FALSE,4,FALSE,"look_length",20,0,"15"
1,0,0,"Jul 13 2014","10:28:15",3,"Medium","Social","Zero",4,"Chrome",0,"Same","tomato",1,"",0,166,"straightahead",-1,"(Jul 13 2014 10:28:15)",0,TRUE,FALSE,4,FALSE,"look_length",20,0,"15"
1,0,0,"Jul 13 2014","10:28:15",4,"Medium","Social","Zero",4,"Chrome",0,"Same","tomato",2,"",0,800,"straightahead",-1,"(Jul 13 2014 10:28:15)",0,TRUE,FALSE,4,FALSE,"look_length",20,0,"15"
0,1,0,"Jul 13 2014","10:28:15",5,"Medium","Social","Zero",4,"Chrome",0,"Same","Novel104",3,"Novel104",3,4504,"silentLDmedium",0,"(Jul 13 2014 10:28:15)",0,TRUE,FALSE,4,TRUE,"look_length",20,0,"15"
0,0,1,"Jul 13 2014","10:28:15",6,"Medium","Social","Zero",4,"Chrome",0,"Same","Novel104",3,"Novel104",3,1205,"straightahead",-1,"(Jul 13 2014 10:28:15)",0,TRUE,TRUE,4,TRUE,"look_length",20,0,"15"
0,1,0,"Jul 13 2014","10:28:15",7,"Medium","Social","Zero",4,"Chrome",1,"Switch","Novel33",1,"Novel25",0,2870,"silentRDmedium",2,"(Jul 13 2014 10:28:15)",0,TRUE,FALSE,4,FALSE,"look_length",20,0,"15"
0,0,1,"Jul 13 2014","10:28:15",8,"Medium","Social","Zero",4,"Chrome",1,"Switch","Novel25",0,"Novel25",0,484,"straightahead",-1,"(Jul 13 2014 10:28:15)",0,TRUE,FALSE,4,TRUE,"look_length",20,0,"15"
0,1,0,"Jul 13 2014","10:28:15",9,"Medium","Social","Zero",4,"Chrome",2,"Same","Novel44",1,"Novel44",1,2374,"silentLDmedium",0,"(Jul 13 2014 10:28:15)",0,TRUE,FALSE,4,TRUE,"look_length",20,0,"15"
0,0,1,"Jul 13 2014","10:28:15",10,"Medium","Social","Zero",4,"Chrome",2,"Same","Novel44",2,"Novel44",1,328,"straightahead",-1,"(Jul 13 2014 10:28:15)",0,TRUE,FALSE,4,TRUE,"look_length",20,0,"15"
0,1,0,"Jul 13 2014","10:28:15",11,"Medium","Social","Zero",4,"Chrome",3,"Switch","Novel35",0,"Novel92",3,1605,"silentRUmedium",3,"(Jul 13 2014 10:28:15)",0,TRUE,FALSE,4,FALSE,"look_length",20,0,"15"
0,0,1,"Jul 13 2014","10:28:15",12,"Medium","Social","Zero",4,"Chrome",3,"Switch","Novel99",0,"Novel92",3,840,"straightahead",-1,"(Jul 13 2014 10:28:15)",0,TRUE,FALSE,4,FALSE,"look_length",20,0,"15"
0,1,0,"Jul 13 2014","10:28:15",13,"Medium","Social","Zero",4,"Chrome",4,"Same","Novel80",0,"Novel80",0,349,"silentLUmedium",1,"(Jul 13 2014 10:28:15)",0,TRUE,FALSE,4,TRUE,"look_length",20,0,"15"
0,0,1,"Jul 13 2014","10:28:15",14,"Medium","Social","Zero",4,"Chrome",4,"Same","Novel80",0,"Novel80",0,325,"straightahead",-1,"(Jul 13 2014 10:28:15)",0,TRUE,FALSE,4,TRUE,"look_length",20,0,"15"
0,1,0,"Jul 13 2014","10:28:15",15,"Medium","Social","Zero",4,"Chrome",5,"Switch","Novel20",2,"Novel81",0,2071,"silentRDmedium",2,"(Jul 13 2014 10:28:15)",0,TRUE,FALSE,4,FALSE,"look_length",20,0,"15"
0,0,1,"Jul 13 2014","10:28:15",16,"Medium","Social","Zero",4,"Chrome",5,"Switch","Novel81",2,"Novel81",0,541,"straightahead",-1,"(Jul 13 2014 10:28:15)",0,TRUE,FALSE,4,TRUE,"look_length",20,0,"15"
0,1,0,"Jul 13 2014","10:28:15",17,"Medium","Social","Zero",4,"Chrome",6,"Same","Novel14",3,"Novel14",3,478,"silentLDmedium",0,"(Jul 13 2014 10:28:15)",0,TRUE,FALSE,4,TRUE,"look_length",20,0,"15"
0,0,1,"Jul 13 2014","10:28:15",18,"Medium","Social","Zero",4,"Chrome",6,"Same","Novel14",2,"Novel14",3,262,"straightahead",-1,"(Jul 13 2014 10:28:15)",0,TRUE,FALSE,4,TRUE,"look_length",20,0,"15"
0,1,0,"Jul 13 2014","10:28:15",19,"Medium","Social","Zero",4,"Chrome",7,"Switch","Novel43",1,"Novel57",3,837,"silentRUmedium",3,"(Jul 13 2014 10:28:15)",0,TRUE,FALSE,4,FALSE,"look_length",20,0,"15"
0,0,1,"Jul 13 2014","10:28:15",20,"Medium","Social","Zero",4,"Chrome",7,"Switch","Novel24",3,"Novel57",3,1998,"straightahead",-1,"(Jul 13 2014 10:28:15)",0,TRUE,FALSE,4,FALSE,"look_length",20,0,"15"
1,0,0,"Jul 13 2014","10:27:07",1,"Short","Social","Zero",4,"Safari",0,"Same","squirrel",0,"",0,13153,"straightahead",-1,"(Jul 13 2014 10:27:07)",0,TRUE,FALSE,4,FALSE,"look_length",20,0,"16"
1,0,0,"Jul 13 2014","10:27:07",2,"Short","Social","Zero",4,"Safari",0,"Same","squirrel",0,"",0,408,"straightahead",-1,"(Jul 13 2014 10:27:07)",0,TRUE,FALSE,4,FALSE,"look_length",20,0,"16"
1,0,0,"Jul 13 2014","10:27:07",3,"Short","Social","Zero",4,"Safari",0,"Same","tomato",1,"",0,2384,"straightahead",-1,"(Jul 13 2014 10:27:07)",0,TRUE,FALSE,4,FALSE,"look_length",20,0,"16"
1,0,0,"Jul 13 2014","10:27:07",4,"Short","Social","Zero",4,"Safari",0,"Same","tomato",2,"",0,377,"straightahead",-1,"(Jul 13 2014 10:27:07)",0,TRUE,FALSE,4,FALSE,"look_length",20,0,"16"
0,1,0,"Jul 13 2014","10:27:07",5,"Short","Social","Zero",4,"Safari",0,"Same","Novel26",2,"Novel26",2,1770,"silentLDshort",0,"(Jul 13 2014 10:27:07)",0,TRUE,FALSE,4,TRUE,"look_length",20,0,"16"
0,0,1,"Jul 13 2014","10:27:07",6,"Short","Social","Zero",4,"Safari",0,"Same","Novel26",1,"Novel26",2,2081,"straightahead",-1,"(Jul 13 2014 10:27:07)",0,TRUE,TRUE,4,TRUE,"look_length",20,0,"16"
0,1,0,"Jul 13 2014","10:27:07",7,"Short","Social","Zero",4,"Safari",1,"Switch","Novel65",0,"Novel117",2,735,"silentLUshort",1,"(Jul 13 2014 10:27:07)",0,TRUE,FALSE,4,FALSE,"look_length",20,0,"16"
0,0,1,"Jul 13 2014","10:27:07",8,"Short","Social","Zero",4,"Safari",1,"Switch","Novel103",3,"Novel117",2,266,"straightahead",-1,"(Jul 13 2014 10:27:07)",0,TRUE,FALSE,4,FALSE,"look_length",20,0,"16"
0,1,0,"Jul 13 2014","10:27:07",9,"Short","Social","Zero",4,"Safari",2,"Same","Novel111",1,"Novel111",1,567,"silentRUshort",3,"(Jul 13 2014 10:27:07)",0,TRUE,FALSE,4,TRUE,"look_length",20,0,"16"
0,0,1,"Jul 13 2014","10:27:07",10,"Short","Social","Zero",4,"Safari",2,"Same","Novel111",1,"Novel111",1,950,"straightahead",-1,"(Jul 13 2014 10:27:07)",0,TRUE,FALSE,4,TRUE,"look_length",20,0,"16"
0,1,0,"Jul 13 2014","10:27:07",11,"Short","Social","Zero",4,"Safari",3,"Switch","Novel22",3,"Novel77",2,14,"silentRDshort",2,"(Jul 13 2014 10:27:07)",0,TRUE,FALSE,4,FALSE,"look_length",20,0,"16"
0,0,1,"Jul 13 2014","10:27:07",12,"Short","Social","Zero",4,"Safari",3,"Switch","Novel77",3,"Novel77",2,836,"straightahead",-1,"(Jul 13 2014 10:27:07)",0,TRUE,FALSE,4,TRUE,"look_length",20,0,"16"
0,1,0,"Jul 13 2014","10:27:07",13,"Short","Social","Zero",4,"Safari",4,"Same","Novel97",0,"Novel97",0,773,"silentLUshort",1,"(Jul 13 2014 10:27:07)",0,TRUE,FALSE,4,TRUE,"look_length",20,0,"16"
0,0,1,"Jul 13 2014","10:27:07",14,"Short","Social","Zero",4,"Safari",4,"Same","Novel97",2,"Novel97",0,232,"straightahead",-1,"(Jul 13 2014 10:27:07)",0,TRUE,FALSE,4,TRUE,"look_length",20,0,"16"
0,1,0,"Jul 13 2014","10:27:07",15,"Short","Social","Zero",4,"Safari",5,"Switch","Novel78",1,"Novel66",0,714,"silentRUshort",3,"(Jul 13 2014 10:27:07)",0,TRUE,FALSE,4,FALSE,"look_length",20,0,"16"
0,0,1,"Jul 13 2014","10:27:07",16,"Short","Social","Zero",4,"Safari",5,"Switch","Novel66",0,"Novel66",0,852,"straightahead",-1,"(Jul 13 2014 10:27:07)",0,TRUE,FALSE,4,TRUE,"look_length",20,0,"16"
0,1,0,"Jul 13 2014","10:27:07",17,"Short","Social","Zero",4,"Safari",6,"Same","Novel72",2,"Novel72",2,523,"silentLDshort",0,"(Jul 13 2014 10:27:07)",0,TRUE,FALSE,4,TRUE,"look_length",20,0,"16"
0,0,1,"Jul 13 2014","10:27:07",18,"Short","Social","Zero",4,"Safari",6,"Same","Novel72",2,"Novel72",2,230,"straightahead",-1,"(Jul 13 2014 10:27:07)",0,TRUE,FALSE,4,TRUE,"look_length",20,0,"16"
0,1,0,"Jul 13 2014","10:27:07",19,"Short","Social","Zero",4,"Safari",7,"Switch","Novel125",2,"Novel129",0,1093,"silentLDshort",0,"(Jul 13 2014 10:27:07)",0,TRUE,FALSE,4,FALSE,"look_length",20,0,"16"
0,0,1,"Jul 13 2014","10:27:07",20,"Short","Social","Zero",4,"Safari",7,"Switch","Novel129",2,"Novel129",0,279,"straightahead",-1,"(Jul 13 2014 10:27:07)",0,TRUE,FALSE,4,TRUE,"look_length",20,0,"16"
1,0,0,"Jul 13 2014","09:45:00",1,"Short","Social","Zero",4,"Chrome",0,"Same","squirrel",0,"",0,8300,"straightahead",-1,"(Jul 13 2014 09:45:00)",0,TRUE,FALSE,4,FALSE,"look_length",20,0,"17"
1,0,0,"Jul 13 2014","09:45:00",2,"Short","Social","Zero",4,"Chrome",0,"Same","squirrel",0,"",0,2075,"straightahead",-1,"(Jul 13 2014 09:45:00)",0,TRUE,FALSE,4,FALSE,"look_length",20,0,"17"
1,0,0,"Jul 13 2014","09:45:00",3,"Short","Social","Zero",4,"Chrome",0,"Same","tomato",1,"",0,1045,"straightahead",-1,"(Jul 13 2014 09:45:00)",0,TRUE,FALSE,4,FALSE,"look_length",20,0,"17"
1,0,0,"Jul 13 2014","09:45:00",4,"Short","Social","Zero",4,"Chrome",0,"Same","tomato",2,"",0,1183,"straightahead",-1,"(Jul 13 2014 09:45:00)",0,TRUE,FALSE,4,FALSE,"look_length",20,0,"17"
0,1,0,"Jul 13 2014","09:45:00",5,"Short","Social","Zero",4,"Chrome",0,"Same","Novel120",0,"Novel120",0,3870,"silentLUshort",1,"(Jul 13 2014 09:45:00)",0,TRUE,FALSE,4,TRUE,"look_length",20,0,"17"
0,0,1,"Jul 13 2014","09:45:00",6,"Short","Social","Zero",4,"Chrome",0,"Same","Novel120",1,"Novel120",0,4628,"straightahead",-1,"(Jul 13 2014 09:45:00)",0,TRUE,TRUE,4,TRUE,"look_length",20,0,"17"
0,1,0,"Jul 13 2014","09:45:00",7,"Short","Social","Zero",4,"Chrome",1,"Switch","Novel113",3,"Novel40",0,8717,"silentLDshort",0,"(Jul 13 2014 09:45:00)",0,TRUE,FALSE,4,FALSE,"look_length",20,0,"17"
0,0,1,"Jul 13 2014","09:45:00",8,"Short","Social","Zero",4,"Chrome",1,"Switch","Novel40",1,"Novel40",0,2719,"straightahead",-1,"(Jul 13 2014 09:45:00)",0,TRUE,FALSE,4,TRUE,"look_length",20,0,"17"
0,1,0,"Jul 13 2014","09:45:00",9,"Short","Social","Zero",4,"Chrome",2,"Same","Novel90",1,"Novel90",1,1509,"silentRDshort",2,"(Jul 13 2014 09:45:00)",0,TRUE,FALSE,4,TRUE,"look_length",20,0,"17"
0,0,1,"Jul 13 2014","09:45:00",10,"Short","Social","Zero",4,"Chrome",2,"Same","Novel90",1,"Novel90",1,893,"straightahead",-1,"(Jul 13 2014 09:45:00)",0,TRUE,FALSE,4,TRUE,"look_length",20,0,"17"
0,1,0,"Jul 13 2014","09:45:00",11,"Short","Social","Zero",4,"Chrome",3,"Switch","Novel56",0,"Novel54",3,750,"silentRDshort",2,"(Jul 13 2014 09:45:00)",0,TRUE,FALSE,4,FALSE,"look_length",20,0,"17"
0,0,1,"Jul 13 2014","09:45:00",12,"Short","Social","Zero",4,"Chrome",3,"Switch","Novel54",3,"Novel54",3,1084,"straightahead",-1,"(Jul 13 2014 09:45:00)",0,TRUE,FALSE,4,TRUE,"look_length",20,0,"17"
0,1,0,"Jul 13 2014","09:45:00",13,"Short","Social","Zero",4,"Chrome",4,"Same","Novel82",1,"Novel82",1,3110,"silentRDshort",2,"(Jul 13 2014 09:45:00)",0,TRUE,FALSE,4,TRUE,"look_length",20,0,"17"
0,0,1,"Jul 13 2014","09:45:00",14,"Short","Social","Zero",4,"Chrome",4,"Same","Novel82",1,"Novel82",1,637,"straightahead",-1,"(Jul 13 2014 09:45:00)",0,TRUE,FALSE,4,TRUE,"look_length",20,0,"17"
0,1,0,"Jul 13 2014","09:45:00",15,"Short","Social","Zero",4,"Chrome",5,"Switch","Novel64",2,"Novel8",3,975,"silentLDshort",0,"(Jul 13 2014 09:45:00)",0,TRUE,FALSE,4,FALSE,"look_length",20,0,"17"
0,0,1,"Jul 13 2014","09:45:00",16,"Short","Social","Zero",4,"Chrome",5,"Switch","Novel58",3,"Novel8",3,1708,"straightahead",-1,"(Jul 13 2014 09:45:00)",0,TRUE,FALSE,4,FALSE,"look_length",20,0,"17"
0,1,0,"Jul 13 2014","09:45:00",17,"Short","Social","Zero",4,"Chrome",6,"Same","Novel62",1,"Novel62",1,2549,"silentLUshort",1,"(Jul 13 2014 09:45:00)",0,TRUE,FALSE,4,TRUE,"look_length",20,0,"17"
0,0,1,"Jul 13 2014","09:45:00",18,"Short","Social","Zero",4,"Chrome",6,"Same","Novel62",2,"Novel62",1,750,"straightahead",-1,"(Jul 13 2014 09:45:00)",0,TRUE,FALSE,4,TRUE,"look_length",20,0,"17"
0,1,0,"Jul 13 2014","09:45:00",19,"Short","Social","Zero",4,"Chrome",7,"Switch","Novel36",2,"Novel108",1,5197,"silentRUshort",3,"(Jul 13 2014 09:45:00)",0,TRUE,FALSE,4,FALSE,"look_length",20,0,"17"
0,0,1,"Jul 13 2014","09:45:00",20,"Short","Social","Zero",4,"Chrome",7,"Switch","Novel108",1,"Novel108",1,125,"straightahead",-1,"(Jul 13 2014 09:45:00)",0,TRUE,FALSE,4,TRUE,"look_length",20,0,"17"
1,0,0,"Jul 13 2014","03:58:33",1,"Medium","Social","Zero",4,"Chrome",0,"Switch","squirrel",0,"",0,155,"straightahead",-1,"(Jul 13 2014 03:58:33)",0,TRUE,FALSE,4,FALSE,"look_length",20,0,"18"
1,0,0,"Jul 13 2014","03:58:33",2,"Medium","Social","Zero",4,"Chrome",0,"Switch","squirrel",0,"",0,1673,"straightahead",-1,"(Jul 13 2014 03:58:33)",0,TRUE,FALSE,4,FALSE,"look_length",20,0,"18"
1,0,0,"Jul 13 2014","03:58:33",3,"Medium","Social","Zero",4,"Chrome",0,"Switch","tomato",1,"",0,1732,"straightahead",-1,"(Jul 13 2014 03:58:33)",0,TRUE,FALSE,4,FALSE,"look_length",20,0,"18"
1,0,0,"Jul 13 2014","03:58:33",4,"Medium","Social","Zero",4,"Chrome",0,"Switch","tomato",2,"",0,241,"straightahead",-1,"(Jul 13 2014 03:58:33)",0,TRUE,FALSE,4,FALSE,"look_length",20,0,"18"
0,1,0,"Jul 13 2014","03:58:33",5,"Medium","Social","Zero",4,"Chrome",0,"Switch","Novel75",2,"Novel87",0,587,"silentLDmedium",0,"(Jul 13 2014 03:58:33)",0,TRUE,FALSE,4,FALSE,"look_length",20,0,"18"
0,0,1,"Jul 13 2014","03:58:33",6,"Medium","Social","Zero",4,"Chrome",0,"Switch","Novel58",1,"Novel87",0,2319,"straightahead",-1,"(Jul 13 2014 03:58:33)",0,TRUE,TRUE,4,FALSE,"look_length",20,0,"18"
0,1,0,"Jul 13 2014","03:58:33",7,"Medium","Social","Zero",4,"Chrome",1,"Same","Novel45",0,"Novel45",0,418,"silentLUmedium",1,"(Jul 13 2014 03:58:33)",0,TRUE,FALSE,4,TRUE,"look_length",20,0,"18"
0,0,1,"Jul 13 2014","03:58:33",8,"Medium","Social","Zero",4,"Chrome",1,"Same","Novel45",1,"Novel45",0,956,"straightahead",-1,"(Jul 13 2014 03:58:33)",0,TRUE,FALSE,4,TRUE,"look_length",20,0,"18"
0,1,0,"Jul 13 2014","03:58:33",9,"Medium","Social","Zero",4,"Chrome",2,"Switch","Novel110",1,"Novel14",2,1437,"silentRUmedium",3,"(Jul 13 2014 03:58:33)",0,TRUE,FALSE,4,FALSE,"look_length",20,0,"18"
0,0,1,"Jul 13 2014","03:58:33",10,"Medium","Social","Zero",4,"Chrome",2,"Switch","Novel134",1,"Novel14",2,5811,"straightahead",-1,"(Jul 13 2014 03:58:33)",0,TRUE,FALSE,4,FALSE,"look_length",20,0,"18"
0,1,0,"Jul 13 2014","03:58:33",11,"Medium","Social","Zero",4,"Chrome",3,"Same","Novel41",2,"Novel41",2,216,"silentLDmedium",0,"(Jul 13 2014 03:58:33)",0,TRUE,FALSE,4,TRUE,"look_length",20,0,"18"
0,0,1,"Jul 13 2014","03:58:33",12,"Medium","Social","Zero",4,"Chrome",3,"Same","Novel41",2,"Novel41",2,877,"straightahead",-1,"(Jul 13 2014 03:58:33)",0,TRUE,FALSE,4,TRUE,"look_length",20,0,"18"
0,1,0,"Jul 13 2014","03:58:33",13,"Medium","Social","Zero",4,"Chrome",4,"Switch","Novel19",0,"Novel68",2,814,"silentLUmedium",1,"(Jul 13 2014 03:58:33)",0,TRUE,FALSE,4,FALSE,"look_length",20,0,"18"
0,0,1,"Jul 13 2014","03:58:33",14,"Medium","Social","Zero",4,"Chrome",4,"Switch","Novel114",1,"Novel68",2,110,"straightahead",-1,"(Jul 13 2014 03:58:33)",0,TRUE,FALSE,4,FALSE,"look_length",20,0,"18"
0,1,0,"Jul 13 2014","03:58:33",15,"Medium","Social","Zero",4,"Chrome",5,"Same","Novel135",1,"Novel135",1,225,"silentRUmedium",3,"(Jul 13 2014 03:58:33)",0,TRUE,FALSE,4,TRUE,"look_length",20,0,"18"
0,0,1,"Jul 13 2014","03:58:33",16,"Medium","Social","Zero",4,"Chrome",5,"Same","Novel135",1,"Novel135",1,423,"straightahead",-1,"(Jul 13 2014 03:58:33)",0,TRUE,FALSE,4,TRUE,"look_length",20,0,"18"
0,1,0,"Jul 13 2014","03:58:33",17,"Medium","Social","Zero",4,"Chrome",6,"Switch","Novel6",0,"Novel28",3,392,"silentLUmedium",1,"(Jul 13 2014 03:58:33)",0,TRUE,FALSE,4,FALSE,"look_length",20,0,"18"
0,0,1,"Jul 13 2014","03:58:33",18,"Medium","Social","Zero",4,"Chrome",6,"Switch","Novel53",0,"Novel28",3,389,"straightahead",-1,"(Jul 13 2014 03:58:33)",0,TRUE,FALSE,4,FALSE,"look_length",20,0,"18"
0,1,0,"Jul 13 2014","03:58:33",19,"Medium","Social","Zero",4,"Chrome",7,"Same","Novel60",0,"Novel60",0,175,"silentLUmedium",1,"(Jul 13 2014 03:58:33)",0,TRUE,FALSE,4,TRUE,"look_length",20,0,"18"
0,0,1,"Jul 13 2014","03:58:33",20,"Medium","Social","Zero",4,"Chrome",7,"Same","Novel60",1,"Novel60",0,36,"straightahead",-1,"(Jul 13 2014 03:58:33)",0,TRUE,FALSE,4,TRUE,"look_length",20,0,"18"
1,0,0,"Jul 13 2014","10:30:33",1,"Short","Social","Zero",4,"Chrome",0,"Same","squirrel",0,"",0,1839,"straightahead",-1,"(Jul 13 2014 10:30:33)",0,TRUE,FALSE,4,FALSE,"look_length",20,0,"19"
1,0,0,"Jul 13 2014","10:30:33",2,"Short","Social","Zero",4,"Chrome",0,"Same","squirrel",0,"",0,1303,"straightahead",-1,"(Jul 13 2014 10:30:33)",0,TRUE,FALSE,4,FALSE,"look_length",20,0,"19"
1,0,0,"Jul 13 2014","10:30:33",3,"Short","Social","Zero",4,"Chrome",0,"Same","tomato",1,"",0,523,"straightahead",-1,"(Jul 13 2014 10:30:33)",0,TRUE,FALSE,4,FALSE,"look_length",20,0,"19"
1,0,0,"Jul 13 2014","10:30:33",4,"Short","Social","Zero",4,"Chrome",0,"Same","tomato",2,"",0,1577,"straightahead",-1,"(Jul 13 2014 10:30:33)",0,TRUE,FALSE,4,FALSE,"look_length",20,0,"19"
0,1,0,"Jul 13 2014","10:30:33",5,"Short","Social","Zero",4,"Chrome",0,"Same","Novel37",3,"Novel37",3,890,"silentLUshort",1,"(Jul 13 2014 10:30:33)",0,TRUE,FALSE,4,TRUE,"look_length",20,0,"19"
0,0,1,"Jul 13 2014","10:30:33",6,"Short","Social","Zero",4,"Chrome",0,"Same","Novel37",3,"Novel37",3,357,"straightahead",-1,"(Jul 13 2014 10:30:33)",0,TRUE,TRUE,4,TRUE,"look_length",20,0,"19"
0,1,0,"Jul 13 2014","10:30:33",7,"Short","Social","Zero",4,"Chrome",1,"Switch","Novel54",1,"Novel29",0,460,"silentLUshort",1,"(Jul 13 2014 10:30:33)",0,TRUE,FALSE,4,FALSE,"look_length",20,0,"19"
0,0,1,"Jul 13 2014","10:30:33",8,"Short","Social","Zero",4,"Chrome",1,"Switch","Novel29",0,"Novel29",0,312,"straightahead",-1,"(Jul 13 2014 10:30:33)",0,TRUE,FALSE,4,TRUE,"look_length",20,0,"19"
0,1,0,"Jul 13 2014","10:30:33",9,"Short","Social","Zero",4,"Chrome",2,"Same","Novel94",2,"Novel94",2,1091,"silentRUshort",3,"(Jul 13 2014 10:30:33)",0,TRUE,FALSE,4,TRUE,"look_length",20,0,"19"
0,0,1,"Jul 13 2014","10:30:33",10,"Short","Social","Zero",4,"Chrome",2,"Same","Novel94",1,"Novel94",2,661,"straightahead",-1,"(Jul 13 2014 10:30:33)",0,TRUE,FALSE,4,TRUE,"look_length",20,0,"19"
0,1,0,"Jul 13 2014","10:30:33",11,"Short","Social","Zero",4,"Chrome",3,"Switch","Novel78",1,"Novel30",3,847,"silentLUshort",1,"(Jul 13 2014 10:30:33)",0,TRUE,FALSE,4,FALSE,"look_length",20,0,"19"
0,0,1,"Jul 13 2014","10:30:33",12,"Short","Social","Zero",4,"Chrome",3,"Switch","Novel30",3,"Novel30",3,346,"straightahead",-1,"(Jul 13 2014 10:30:33)",0,TRUE,FALSE,4,TRUE,"look_length",20,0,"19"
0,1,0,"Jul 13 2014","10:30:33",13,"Short","Social","Zero",4,"Chrome",4,"Same","Novel97",2,"Novel97",2,21,"silentRDshort",2,"(Jul 13 2014 10:30:33)",0,TRUE,FALSE,4,TRUE,"look_length",20,0,"19"
0,0,1,"Jul 13 2014","10:30:33",14,"Short","Social","Zero",4,"Chrome",4,"Same","Novel97",2,"Novel97",2,655,"straightahead",-1,"(Jul 13 2014 10:30:33)",0,TRUE,FALSE,4,TRUE,"look_length",20,0,"19"
0,1,0,"Jul 13 2014","10:30:33",15,"Short","Social","Zero",4,"Chrome",5,"Switch","Novel79",3,"Novel96",2,613,"silentRDshort",2,"(Jul 13 2014 10:30:33)",0,TRUE,FALSE,4,FALSE,"look_length",20,0,"19"
0,0,1,"Jul 13 2014","10:30:33",16,"Short","Social","Zero",4,"Chrome",5,"Switch","Novel35",3,"Novel96",2,1882,"straightahead",-1,"(Jul 13 2014 10:30:33)",0,TRUE,FALSE,4,FALSE,"look_length",20,0,"19"
0,1,0,"Jul 13 2014","10:30:33",17,"Short","Social","Zero",4,"Chrome",6,"Same","Novel14",0,"Novel14",0,460,"silentLDshort",0,"(Jul 13 2014 10:30:33)",0,TRUE,FALSE,4,TRUE,"look_length",20,0,"19"
0,0,1,"Jul 13 2014","10:30:33",18,"Short","Social","Zero",4,"Chrome",6,"Same","Novel14",1,"Novel14",0,173,"straightahead",-1,"(Jul 13 2014 10:30:33)",0,TRUE,FALSE,4,TRUE,"look_length",20,0,"19"
0,1,0,"Jul 13 2014","10:30:33",19,"Short","Social","Zero",4,"Chrome",7,"Switch","Novel119",2,"Novel18",3,287,"silentRUshort",3,"(Jul 13 2014 10:30:33)",0,TRUE,FALSE,4,FALSE,"look_length",20,0,"19"
0,0,1,"Jul 13 2014","10:30:33",20,"Short","Social","Zero",4,"Chrome",7,"Switch","Novel18",2,"Novel18",3,481,"straightahead",-1,"(Jul 13 2014 10:30:33)",0,TRUE,FALSE,4,TRUE,"look_length",20,0,"19"
1,0,0,"Jul 13 2014","09:24:09",1,"Medium","Social","Zero",4,"Chrome",0,"Same","squirrel",0,"",0,762,"straightahead",-1,"(Jul 13 2014 09:24:09)",0,TRUE,FALSE,4,FALSE,"look_length",20,0,"20"
1,0,0,"Jul 13 2014","09:24:09",2,"Medium","Social","Zero",4,"Chrome",0,"Same","squirrel",0,"",0,2361,"straightahead",-1,"(Jul 13 2014 09:24:09)",0,TRUE,FALSE,4,FALSE,"look_length",20,0,"20"
1,0,0,"Jul 13 2014","09:24:09",3,"Medium","Social","Zero",4,"Chrome",0,"Same","tomato",1,"",0,5,"straightahead",-1,"(Jul 13 2014 09:24:09)",0,TRUE,FALSE,4,FALSE,"look_length",20,0,"20"
1,0,0,"Jul 13 2014","09:24:09",4,"Medium","Social","Zero",4,"Chrome",0,"Same","tomato",2,"",0,16,"straightahead",-1,"(Jul 13 2014 09:24:09)",0,TRUE,FALSE,4,FALSE,"look_length",20,0,"20"
0,1,0,"Jul 13 2014","09:24:09",5,"Medium","Social","Zero",4,"Chrome",0,"Same","Novel89",3,"Novel89",3,56,"silentRDmedium",2,"(Jul 13 2014 09:24:09)",0,TRUE,FALSE,4,TRUE,"look_length",20,0,"20"
0,0,1,"Jul 13 2014","09:24:09",6,"Medium","Social","Zero",4,"Chrome",0,"Same","Novel89",3,"Novel89",3,114,"straightahead",-1,"(Jul 13 2014 09:24:09)",0,TRUE,TRUE,4,TRUE,"look_length",20,0,"20"
0,1,0,"Jul 13 2014","09:24:09",7,"Medium","Social","Zero",4,"Chrome",1,"Switch","Novel59",2,"Novel38",1,102,"silentLDmedium",0,"(Jul 13 2014 09:24:09)",0,TRUE,FALSE,4,FALSE,"look_length",20,0,"20"
0,0,1,"Jul 13 2014","09:24:09",8,"Medium","Social","Zero",4,"Chrome",1,"Switch","Novel38",1,"Novel38",1,2856,"straightahead",-1,"(Jul 13 2014 09:24:09)",0,TRUE,FALSE,4,TRUE,"look_length",20,0,"20"
0,1,0,"Jul 13 2014","09:24:09",9,"Medium","Social","Zero",4,"Chrome",2,"Same","Novel84",3,"Novel84",3,18,"silentRDmedium",2,"(Jul 13 2014 09:24:09)",0,TRUE,FALSE,4,TRUE,"look_length",20,0,"20"
0,0,1,"Jul 13 2014","09:24:09",10,"Medium","Social","Zero",4,"Chrome",2,"Same","Novel84",1,"Novel84",3,40,"straightahead",-1,"(Jul 13 2014 09:24:09)",0,TRUE,FALSE,4,TRUE,"look_length",20,0,"20"
0,1,0,"Jul 13 2014","09:24:09",11,"Medium","Social","Zero",4,"Chrome",3,"Switch","Novel115",3,"Novel29",0,115,"silentRDmedium",2,"(Jul 13 2014 09:24:09)",0,TRUE,FALSE,4,FALSE,"look_length",20,0,"20"
0,0,1,"Jul 13 2014","09:24:09",12,"Medium","Social","Zero",4,"Chrome",3,"Switch","Novel85",0,"Novel29",0,101,"straightahead",-1,"(Jul 13 2014 09:24:09)",0,TRUE,FALSE,4,FALSE,"look_length",20,0,"20"
0,1,0,"Jul 13 2014","09:24:09",13,"Medium","Social","Zero",4,"Chrome",4,"Same","Novel130",1,"Novel130",1,105,"silentRUmedium",3,"(Jul 13 2014 09:24:09)",0,TRUE,FALSE,4,TRUE,"look_length",20,0,"20"
0,0,1,"Jul 13 2014","09:24:09",14,"Medium","Social","Zero",4,"Chrome",4,"Same","Novel130",0,"Novel130",1,103,"straightahead",-1,"(Jul 13 2014 09:24:09)",0,TRUE,FALSE,4,TRUE,"look_length",20,0,"20"
0,1,0,"Jul 13 2014","09:24:09",15,"Medium","Social","Zero",4,"Chrome",5,"Switch","Novel73",1,"Novel16",3,270,"silentLDmedium",0,"(Jul 13 2014 09:24:09)",0,TRUE,FALSE,4,FALSE,"look_length",20,0,"20"
0,0,1,"Jul 13 2014","09:24:09",16,"Medium","Social","Zero",4,"Chrome",5,"Switch","Novel56",2,"Novel16",3,71,"straightahead",-1,"(Jul 13 2014 09:24:09)",0,TRUE,FALSE,4,FALSE,"look_length",20,0,"20"
0,1,0,"Jul 13 2014","09:24:09",17,"Medium","Social","Zero",4,"Chrome",6,"Same","Novel102",3,"Novel102",3,165,"silentRDmedium",2,"(Jul 13 2014 09:24:09)",0,TRUE,FALSE,4,TRUE,"look_length",20,0,"20"
0,0,1,"Jul 13 2014","09:24:09",18,"Medium","Social","Zero",4,"Chrome",6,"Same","Novel102",3,"Novel102",3,283,"straightahead",-1,"(Jul 13 2014 09:24:09)",0,TRUE,FALSE,4,TRUE,"look_length",20,0,"20"
0,1,0,"Jul 13 2014","09:24:09",19,"Medium","Social","Zero",4,"Chrome",7,"Switch","Novel63",3,"Novel53",1,131,"silentLDmedium",0,"(Jul 13 2014 09:24:09)",0,TRUE,FALSE,4,FALSE,"look_length",20,0,"20"
0,0,1,"Jul 13 2014","09:24:09",20,"Medium","Social","Zero",4,"Chrome",7,"Switch","Novel53",2,"Novel53",1,27,"straightahead",-1,"(Jul 13 2014 09:24:09)",0,TRUE,FALSE,4,TRUE,"look_length",20,0,"20"
1,0,0,"Jul 13 2014","04:59:06",1,"Medium","Social","Zero",4,"Chrome",0,"Same","squirrel",0,"",0,29,"straightahead",-1,"(Jul 13 2014 04:59:06)",0,TRUE,FALSE,4,FALSE,"look_length",20,0,"21"
1,0,0,"Jul 13 2014","04:59:06",2,"Medium","Social","Zero",4,"Chrome",0,"Same","squirrel",0,"",0,538,"straightahead",-1,"(Jul 13 2014 04:59:06)",0,TRUE,FALSE,4,FALSE,"look_length",20,0,"21"
1,0,0,"Jul 13 2014","04:59:06",3,"Medium","Social","Zero",4,"Chrome",0,"Same","tomato",1,"",0,731,"straightahead",-1,"(Jul 13 2014 04:59:06)",0,TRUE,FALSE,4,FALSE,"look_length",20,0,"21"
1,0,0,"Jul 13 2014","04:59:06",4,"Medium","Social","Zero",4,"Chrome",0,"Same","tomato",2,"",0,281,"straightahead",-1,"(Jul 13 2014 04:59:06)",0,TRUE,FALSE,4,FALSE,"look_length",20,0,"21"
0,1,0,"Jul 13 2014","04:59:06",5,"Medium","Social","Zero",4,"Chrome",0,"Same","Novel35",0,"Novel35",0,249,"silentLUmedium",1,"(Jul 13 2014 04:59:06)",0,TRUE,FALSE,4,TRUE,"look_length",20,0,"21"
0,0,1,"Jul 13 2014","04:59:06",6,"Medium","Social","Zero",4,"Chrome",0,"Same","Novel35",0,"Novel35",0,1793,"straightahead",-1,"(Jul 13 2014 04:59:06)",0,TRUE,TRUE,4,TRUE,"look_length",20,0,"21"
0,1,0,"Jul 13 2014","04:59:06",7,"Medium","Social","Zero",4,"Chrome",1,"Switch","Novel133",3,"Novel33",1,222,"silentRDmedium",2,"(Jul 13 2014 04:59:06)",0,TRUE,FALSE,4,FALSE,"look_length",20,0,"21"
0,0,1,"Jul 13 2014","04:59:06",8,"Medium","Social","Zero",4,"Chrome",1,"Switch","Novel120",3,"Novel33",1,633,"straightahead",-1,"(Jul 13 2014 04:59:06)",0,TRUE,FALSE,4,FALSE,"look_length",20,0,"21"
0,1,0,"Jul 13 2014","04:59:06",9,"Medium","Social","Zero",4,"Chrome",2,"Same","Novel18",1,"Novel18",1,620,"silentRUmedium",3,"(Jul 13 2014 04:59:06)",0,TRUE,FALSE,4,TRUE,"look_length",20,0,"21"
0,0,1,"Jul 13 2014","04:59:06",10,"Medium","Social","Zero",4,"Chrome",2,"Same","Novel58",1,"Novel18",1,219,"straightahead",-1,"(Jul 13 2014 04:59:06)",0,TRUE,FALSE,4,FALSE,"look_length",20,0,"21"
0,1,0,"Jul 13 2014","04:59:06",11,"Medium","Social","Zero",4,"Chrome",3,"Switch","Novel122",1,"Novel38",3,137,"silentRUmedium",3,"(Jul 13 2014 04:59:06)",0,TRUE,FALSE,4,FALSE,"look_length",20,0,"21"
0,0,1,"Jul 13 2014","04:59:06",12,"Medium","Social","Zero",4,"Chrome",3,"Switch","Novel86",2,"Novel38",3,372,"straightahead",-1,"(Jul 13 2014 04:59:06)",0,TRUE,FALSE,4,FALSE,"look_length",20,0,"21"
0,1,0,"Jul 13 2014","04:59:06",13,"Medium","Social","Zero",4,"Chrome",4,"Same","Novel6",0,"Novel6",0,377,"silentLUmedium",1,"(Jul 13 2014 04:59:06)",0,TRUE,FALSE,4,TRUE,"look_length",20,0,"21"
0,0,1,"Jul 13 2014","04:59:06",14,"Medium","Social","Zero",4,"Chrome",4,"Same","Novel6",1,"Novel6",0,337,"straightahead",-1,"(Jul 13 2014 04:59:06)",0,TRUE,FALSE,4,TRUE,"look_length",20,0,"21"
0,1,0,"Jul 13 2014","04:59:06",15,"Medium","Social","Zero",4,"Chrome",5,"Switch","Novel44",1,"Novel28",2,587,"silentRUmedium",3,"(Jul 13 2014 04:59:06)",0,TRUE,FALSE,4,FALSE,"look_length",20,0,"21"
0,0,1,"Jul 13 2014","04:59:06",16,"Medium","Social","Zero",4,"Chrome",5,"Switch","Novel100",2,"Novel28",2,494,"straightahead",-1,"(Jul 13 2014 04:59:06)",0,TRUE,FALSE,4,FALSE,"look_length",20,0,"21"
0,1,0,"Jul 13 2014","04:59:06",17,"Medium","Social","Zero",4,"Chrome",6,"Same","Novel91",1,"Novel91",1,775,"silentRUmedium",3,"(Jul 13 2014 04:59:06)",0,TRUE,FALSE,4,TRUE,"look_length",20,0,"21"
0,0,1,"Jul 13 2014","04:59:06",18,"Medium","Social","Zero",4,"Chrome",6,"Same","Novel91",1,"Novel91",1,102,"straightahead",-1,"(Jul 13 2014 04:59:06)",0,TRUE,FALSE,4,TRUE,"look_length",20,0,"21"
0,1,0,"Jul 13 2014","04:59:06",19,"Medium","Social","Zero",4,"Chrome",7,"Switch","Novel34",2,"Novel70",0,601,"silentLDmedium",0,"(Jul 13 2014 04:59:06)",0,TRUE,FALSE,4,FALSE,"look_length",20,0,"21"
0,0,1,"Jul 13 2014","04:59:06",20,"Medium","Social","Zero",4,"Chrome",7,"Switch","Novel116",2,"Novel70",0,635,"straightahead",-1,"(Jul 13 2014 04:59:06)",0,TRUE,FALSE,4,FALSE,"look_length",20,0,"21"
1,0,0,"Jul 13 2014","09:50:18",1,"Long","Social","Zero",4,"Chrome",0,"Same","squirrel",0,"",0,5078,"straightahead",-1,"(Jul 13 2014 09:50:18)",0,TRUE,FALSE,4,FALSE,"look_length",20,0,"22"
1,0,0,"Jul 13 2014","09:50:18",2,"Long","Social","Zero",4,"Chrome",0,"Same","squirrel",0,"",0,3275,"straightahead",-1,"(Jul 13 2014 09:50:18)",0,TRUE,FALSE,4,FALSE,"look_length",20,0,"22"
1,0,0,"Jul 13 2014","09:50:18",3,"Long","Social","Zero",4,"Chrome",0,"Same","tomato",1,"",0,768,"straightahead",-1,"(Jul 13 2014 09:50:18)",0,TRUE,FALSE,4,FALSE,"look_length",20,0,"22"
1,0,0,"Jul 13 2014","09:50:18",4,"Long","Social","Zero",4,"Chrome",0,"Same","tomato",2,"",0,7634,"straightahead",-1,"(Jul 13 2014 09:50:18)",0,TRUE,FALSE,4,FALSE,"look_length",20,0,"22"
0,1,0,"Jul 13 2014","09:50:18",5,"Long","Social","Zero",4,"Chrome",0,"Same","Novel18",1,"Novel18",1,6198,"silentRUlong",3,"(Jul 13 2014 09:50:18)",0,TRUE,FALSE,4,TRUE,"look_length",20,0,"22"
0,0,1,"Jul 13 2014","09:50:18",6,"Long","Social","Zero",4,"Chrome",0,"Same","Novel18",1,"Novel18",1,2387,"straightahead",-1,"(Jul 13 2014 09:50:18)",0,TRUE,TRUE,4,TRUE,"look_length",20,0,"22"
0,1,0,"Jul 13 2014","09:50:18",7,"Long","Social","Zero",4,"Chrome",1,"Switch","Novel138",0,"Novel38",1,286,"silentLUlong",1,"(Jul 13 2014 09:50:18)",0,TRUE,FALSE,4,FALSE,"look_length",20,0,"22"
0,0,1,"Jul 13 2014","09:50:18",8,"Long","Social","Zero",4,"Chrome",1,"Switch","Novel72",1,"Novel38",1,4481,"straightahead",-1,"(Jul 13 2014 09:50:18)",0,TRUE,FALSE,4,FALSE,"look_length",20,0,"22"
0,1,0,"Jul 13 2014","09:50:18",9,"Long","Social","Zero",4,"Chrome",2,"Same","Novel139",1,"Novel139",1,1927,"silentLUlong",1,"(Jul 13 2014 09:50:18)",0,TRUE,FALSE,4,TRUE,"look_length",20,0,"22"
0,0,1,"Jul 13 2014","09:50:18",10,"Long","Social","Zero",4,"Chrome",2,"Same","Novel139",0,"Novel139",1,912,"straightahead",-1,"(Jul 13 2014 09:50:18)",0,TRUE,FALSE,4,TRUE,"look_length",20,0,"22"
0,1,0,"Jul 13 2014","09:50:18",11,"Long","Social","Zero",4,"Chrome",3,"Switch","Novel17",2,"Novel22",0,7948,"silentLUlong",1,"(Jul 13 2014 09:50:18)",0,TRUE,FALSE,4,FALSE,"look_length",20,0,"22"
0,0,1,"Jul 13 2014","09:50:18",12,"Long","Social","Zero",4,"Chrome",3,"Switch","Novel22",0,"Novel22",0,5906,"straightahead",-1,"(Jul 13 2014 09:50:18)",0,TRUE,FALSE,4,TRUE,"look_length",20,0,"22"
0,1,0,"Jul 13 2014","09:50:18",13,"Long","Social","Zero",4,"Chrome",4,"Same","Novel94",2,"Novel94",2,1955,"silentLUlong",1,"(Jul 13 2014 09:50:18)",0,TRUE,FALSE,4,TRUE,"look_length",20,0,"22"
0,0,1,"Jul 13 2014","09:50:18",14,"Long","Social","Zero",4,"Chrome",4,"Same","Novel94",2,"Novel94",2,684,"straightahead",-1,"(Jul 13 2014 09:50:18)",0,TRUE,FALSE,4,TRUE,"look_length",20,0,"22"
0,1,0,"Jul 13 2014","09:50:18",15,"Long","Social","Zero",4,"Chrome",5,"Switch","Novel14",2,"Novel3",1,2462,"silentRDlong",2,"(Jul 13 2014 09:50:18)",0,TRUE,FALSE,4,FALSE,"look_length",20,0,"22"
0,0,1,"Jul 13 2014","09:50:18",16,"Long","Social","Zero",4,"Chrome",5,"Switch","Novel3",2,"Novel3",1,976,"straightahead",-1,"(Jul 13 2014 09:50:18)",0,TRUE,FALSE,4,TRUE,"look_length",20,0,"22"
0,1,0,"Jul 13 2014","09:50:18",17,"Long","Social","Zero",4,"Chrome",6,"Same","Novel10",3,"Novel10",3,300,"silentRUlong",3,"(Jul 13 2014 09:50:18)",0,TRUE,FALSE,4,TRUE,"look_length",20,0,"22"
0,0,1,"Jul 13 2014","09:50:18",18,"Long","Social","Zero",4,"Chrome",6,"Same","Novel10",2,"Novel10",3,413,"straightahead",-1,"(Jul 13 2014 09:50:18)",0,TRUE,FALSE,4,TRUE,"look_length",20,0,"22"
0,1,0,"Jul 13 2014","09:50:18",19,"Long","Social","Zero",4,"Chrome",7,"Switch","Novel13",1,"Novel30",3,3764,"silentLUlong",1,"(Jul 13 2014 09:50:18)",0,TRUE,FALSE,4,FALSE,"look_length",20,0,"22"
0,0,1,"Jul 13 2014","09:50:18",20,"Long","Social","Zero",4,"Chrome",7,"Switch","Novel30",3,"Novel30",3,1594,"straightahead",-1,"(Jul 13 2014 09:50:18)",0,TRUE,FALSE,4,TRUE,"look_length",20,0,"22"
1,0,0,"Jul 13 2014","09:43:41",1,"Medium","Social","Zero",4,"Chrome",0,"Switch","squirrel",0,"",0,471,"straightahead",-1,"(Jul 13 2014 09:43:41)",0,TRUE,FALSE,4,FALSE,"look_length",20,0,"23"
1,0,0,"Jul 13 2014","09:43:41",2,"Medium","Social","Zero",4,"Chrome",0,"Switch","squirrel",0,"",0,2072,"straightahead",-1,"(Jul 13 2014 09:43:41)",0,TRUE,FALSE,4,FALSE,"look_length",20,0,"23"
1,0,0,"Jul 13 2014","09:43:41",3,"Medium","Social","Zero",4,"Chrome",0,"Switch","tomato",1,"",0,373,"straightahead",-1,"(Jul 13 2014 09:43:41)",0,TRUE,FALSE,4,FALSE,"look_length",20,0,"23"
1,0,0,"Jul 13 2014","09:43:41",4,"Medium","Social","Zero",4,"Chrome",0,"Switch","tomato",2,"",0,126,"straightahead",-1,"(Jul 13 2014 09:43:41)",0,TRUE,FALSE,4,FALSE,"look_length",20,0,"23"
0,1,0,"Jul 13 2014","09:43:41",5,"Medium","Social","Zero",4,"Chrome",0,"Switch","Novel100",1,"Novel26",3,372,"silentRUmedium",3,"(Jul 13 2014 09:43:41)",0,TRUE,FALSE,4,FALSE,"look_length",20,0,"23"
0,0,1,"Jul 13 2014","09:43:41",6,"Medium","Social","Zero",4,"Chrome",0,"Switch","Novel26",1,"Novel26",3,509,"straightahead",-1,"(Jul 13 2014 09:43:41)",0,TRUE,TRUE,4,TRUE,"look_length",20,0,"23"
0,1,0,"Jul 13 2014","09:43:41",7,"Medium","Social","Zero",4,"Chrome",1,"Same","Novel29",3,"Novel29",3,13,"silentRDmedium",2,"(Jul 13 2014 09:43:41)",0,TRUE,FALSE,4,TRUE,"look_length",20,0,"23"
0,0,1,"Jul 13 2014","09:43:41",8,"Medium","Social","Zero",4,"Chrome",1,"Same","Novel29",3,"Novel29",3,180,"straightahead",-1,"(Jul 13 2014 09:43:41)",0,TRUE,FALSE,4,TRUE,"look_length",20,0,"23"
0,1,0,"Jul 13 2014","09:43:41",9,"Medium","Social","Zero",4,"Chrome",2,"Switch","Novel6",3,"Novel61",2,69,"silentRDmedium",2,"(Jul 13 2014 09:43:41)",0,TRUE,FALSE,4,FALSE,"look_length",20,0,"23"
0,0,1,"Jul 13 2014","09:43:41",10,"Medium","Social","Zero",4,"Chrome",2,"Switch","Novel61",3,"Novel61",2,852,"straightahead",-1,"(Jul 13 2014 09:43:41)",0,TRUE,FALSE,4,TRUE,"look_length",20,0,"23"
0,1,0,"Jul 13 2014","09:43:41",11,"Medium","Social","Zero",4,"Chrome",3,"Same","Novel96",3,"Novel96",3,444,"silentRDmedium",2,"(Jul 13 2014 09:43:41)",0,TRUE,FALSE,4,TRUE,"look_length",20,0,"23"
0,0,1,"Jul 13 2014","09:43:41",12,"Medium","Social","Zero",4,"Chrome",3,"Same","Novel96",0,"Novel96",3,356,"straightahead",-1,"(Jul 13 2014 09:43:41)",0,TRUE,FALSE,4,TRUE,"look_length",20,0,"23"
0,1,0,"Jul 13 2014","09:43:41",13,"Medium","Social","Zero",4,"Chrome",4,"Switch","Novel17",0,"Novel106",2,902,"silentLUmedium",1,"(Jul 13 2014 09:43:41)",0,TRUE,FALSE,4,FALSE,"look_length",20,0,"23"
0,0,1,"Jul 13 2014","09:43:41",14,"Medium","Social","Zero",4,"Chrome",4,"Switch","Novel85",0,"Novel106",2,94,"straightahead",-1,"(Jul 13 2014 09:43:41)",0,TRUE,FALSE,4,FALSE,"look_length",20,0,"23"
0,1,0,"Jul 13 2014","09:43:41",15,"Medium","Social","Zero",4,"Chrome",5,"Same","Novel78",2,"Novel78",2,508,"silentLDmedium",0,"(Jul 13 2014 09:43:41)",0,TRUE,FALSE,4,TRUE,"look_length",20,0,"23"
0,0,1,"Jul 13 2014","09:43:41",16,"Medium","Social","Zero",4,"Chrome",5,"Same","Novel43",2,"Novel78",2,462,"straightahead",-1,"(Jul 13 2014 09:43:41)",0,TRUE,FALSE,4,FALSE,"look_length",20,0,"23"
0,1,0,"Jul 13 2014","09:43:41",17,"Medium","Social","Zero",4,"Chrome",6,"Switch","Novel66",3,"Novel31",0,213,"silentRDmedium",2,"(Jul 13 2014 09:43:41)",0,TRUE,FALSE,4,FALSE,"look_length",20,0,"23"
0,0,1,"Jul 13 2014","09:43:41",18,"Medium","Social","Zero",4,"Chrome",6,"Switch","Novel131",3,"Novel31",0,45,"straightahead",-1,"(Jul 13 2014 09:43:41)",0,TRUE,FALSE,4,FALSE,"look_length",20,0,"23"
0,1,0,"Jul 13 2014","09:43:41",19,"Medium","Social","Zero",4,"Chrome",7,"Same","Novel138",2,"Novel138",2,543,"silentLDmedium",0,"(Jul 13 2014 09:43:41)",0,TRUE,FALSE,4,TRUE,"look_length",20,0,"23"
0,0,1,"Jul 13 2014","09:43:41",20,"Medium","Social","Zero",4,"Chrome",7,"Same","Novel138",2,"Novel138",2,645,"straightahead",-1,"(Jul 13 2014 09:43:41)",0,TRUE,FALSE,4,TRUE,"look_length",20,0,"23"
1,0,0,"Jul 13 2014","09:21:07",1,"Short","Social","Zero",4,"Chrome",0,"Switch","squirrel",0,"",0,2484,"straightahead",-1,"(Jul 13 2014 09:21:07)",0,TRUE,FALSE,4,FALSE,"look_length",20,0,"24"
1,0,0,"Jul 13 2014","09:21:07",2,"Short","Social","Zero",4,"Chrome",0,"Switch","squirrel",0,"",0,1776,"straightahead",-1,"(Jul 13 2014 09:21:07)",0,TRUE,FALSE,4,FALSE,"look_length",20,0,"24"
1,0,0,"Jul 13 2014","09:21:07",3,"Short","Social","Zero",4,"Chrome",0,"Switch","tomato",1,"",0,866,"straightahead",-1,"(Jul 13 2014 09:21:07)",0,TRUE,FALSE,4,FALSE,"look_length",20,0,"24"
1,0,0,"Jul 13 2014","09:21:07",4,"Short","Social","Zero",4,"Chrome",0,"Switch","tomato",2,"",0,734,"straightahead",-1,"(Jul 13 2014 09:21:07)",0,TRUE,FALSE,4,FALSE,"look_length",20,0,"24"
0,1,0,"Jul 13 2014","09:21:07",5,"Short","Social","Zero",4,"Chrome",0,"Switch","Novel128",0,"Novel24",1,1695,"silentLUshort",1,"(Jul 13 2014 09:21:07)",0,TRUE,FALSE,4,FALSE,"look_length",20,0,"24"
0,0,1,"Jul 13 2014","09:21:07",6,"Short","Social","Zero",4,"Chrome",0,"Switch","Novel24",2,"Novel24",1,216,"straightahead",-1,"(Jul 13 2014 09:21:07)",0,TRUE,TRUE,4,TRUE,"look_length",20,0,"24"
0,1,0,"Jul 13 2014","09:21:07",7,"Short","Social","Zero",4,"Chrome",1,"Same","Novel136",1,"Novel136",1,318,"silentRUshort",3,"(Jul 13 2014 09:21:07)",0,TRUE,FALSE,4,TRUE,"look_length",20,0,"24"
0,0,1,"Jul 13 2014","09:21:07",8,"Short","Social","Zero",4,"Chrome",1,"Same","Novel136",1,"Novel136",1,462,"straightahead",-1,"(Jul 13 2014 09:21:07)",0,TRUE,FALSE,4,TRUE,"look_length",20,0,"24"
0,1,0,"Jul 13 2014","09:21:07",9,"Short","Social","Zero",4,"Chrome",2,"Switch","Novel56",2,"Novel46",0,391,"silentLDshort",0,"(Jul 13 2014 09:21:07)",0,TRUE,FALSE,4,FALSE,"look_length",20,0,"24"
0,0,1,"Jul 13 2014","09:21:07",10,"Short","Social","Zero",4,"Chrome",2,"Switch","Novel117",2,"Novel46",0,3304,"straightahead",-1,"(Jul 13 2014 09:21:07)",0,TRUE,FALSE,4,FALSE,"look_length",20,0,"24"
0,1,0,"Jul 13 2014","09:21:07",11,"Short","Social","Zero",4,"Chrome",3,"Same","Novel88",2,"Novel88",2,685,"silentLDshort",0,"(Jul 13 2014 09:21:07)",0,TRUE,FALSE,4,TRUE,"look_length",20,0,"24"
0,0,1,"Jul 13 2014","09:21:07",12,"Short","Social","Zero",4,"Chrome",3,"Same","Novel88",2,"Novel88",2,37,"straightahead",-1,"(Jul 13 2014 09:21:07)",0,TRUE,FALSE,4,TRUE,"look_length",20,0,"24"
0,1,0,"Jul 13 2014","09:21:07",13,"Short","Social","Zero",4,"Chrome",4,"Switch","Novel82",2,"Novel65",1,474,"silentLDshort",0,"(Jul 13 2014 09:21:07)",0,TRUE,FALSE,4,FALSE,"look_length",20,0,"24"
0,0,1,"Jul 13 2014","09:21:07",14,"Short","Social","Zero",4,"Chrome",4,"Switch","Novel54",2,"Novel65",1,1268,"straightahead",-1,"(Jul 13 2014 09:21:07)",0,TRUE,FALSE,4,FALSE,"look_length",20,0,"24"
0,1,0,"Jul 13 2014","09:21:07",15,"Short","Social","Zero",4,"Chrome",5,"Same","Novel107",1,"Novel107",1,711,"silentRUshort",3,"(Jul 13 2014 09:21:07)",0,TRUE,FALSE,4,TRUE,"look_length",20,0,"24"
0,0,1,"Jul 13 2014","09:21:07",16,"Short","Social","Zero",4,"Chrome",5,"Same","Novel107",2,"Novel107",1,882,"straightahead",-1,"(Jul 13 2014 09:21:07)",0,TRUE,FALSE,4,TRUE,"look_length",20,0,"24"
0,1,0,"Jul 13 2014","09:21:07",17,"Short","Social","Zero",4,"Chrome",6,"Switch","Novel78",3,"Novel19",1,899,"silentRDshort",2,"(Jul 13 2014 09:21:07)",0,TRUE,FALSE,4,FALSE,"look_length",20,0,"24"
0,0,1,"Jul 13 2014","09:21:07",18,"Short","Social","Zero",4,"Chrome",6,"Switch","Novel92",2,"Novel19",1,793,"straightahead",-1,"(Jul 13 2014 09:21:07)",0,TRUE,FALSE,4,FALSE,"look_length",20,0,"24"
0,1,0,"Jul 13 2014","09:21:07",19,"Short","Social","Zero",4,"Chrome",7,"Same","Novel99",1,"Novel99",1,239,"silentRUshort",3,"(Jul 13 2014 09:21:07)",0,TRUE,FALSE,4,TRUE,"look_length",20,0,"24"
0,0,1,"Jul 13 2014","09:21:07",20,"Short","Social","Zero",4,"Chrome",7,"Same","Novel99",2,"Novel99",1,407,"straightahead",-1,"(Jul 13 2014 09:21:07)",0,TRUE,FALSE,4,TRUE,"look_length",20,0,"24"
1,0,0,"Jul 13 2014","10:37:46",1,"Medium","Social","Zero",4,"Chrome",0,"Same","squirrel",0,"",0,877,"straightahead",-1,"(Jul 13 2014 10:37:46)",0,TRUE,FALSE,4,FALSE,"look_length",20,0,"25"
1,0,0,"Jul 13 2014","10:37:46",2,"Medium","Social","Zero",4,"Chrome",0,"Same","squirrel",0,"",0,1547,"straightahead",-1,"(Jul 13 2014 10:37:46)",0,TRUE,FALSE,4,FALSE,"look_length",20,0,"25"
1,0,0,"Jul 13 2014","10:37:46",3,"Medium","Social","Zero",4,"Chrome",0,"Same","tomato",1,"",0,43,"straightahead",-1,"(Jul 13 2014 10:37:46)",0,TRUE,FALSE,4,FALSE,"look_length",20,0,"25"
1,0,0,"Jul 13 2014","10:37:46",4,"Medium","Social","Zero",4,"Chrome",0,"Same","tomato",2,"",0,1578,"straightahead",-1,"(Jul 13 2014 10:37:46)",0,TRUE,FALSE,4,FALSE,"look_length",20,0,"25"
0,1,0,"Jul 13 2014","10:37:46",5,"Medium","Social","Zero",4,"Chrome",0,"Same","Novel106",3,"Novel106",3,1626,"silentRDmedium",2,"(Jul 13 2014 10:37:46)",0,TRUE,FALSE,4,TRUE,"look_length",20,0,"25"
0,0,1,"Jul 13 2014","10:37:46",6,"Medium","Social","Zero",4,"Chrome",0,"Same","Novel106",3,"Novel106",3,1205,"straightahead",-1,"(Jul 13 2014 10:37:46)",0,TRUE,TRUE,4,TRUE,"look_length",20,0,"25"
0,1,0,"Jul 13 2014","10:37:46",7,"Medium","Social","Zero",4,"Chrome",1,"Switch","Novel6",2,"Novel138",1,1858,"silentRUmedium",3,"(Jul 13 2014 10:37:46)",0,TRUE,FALSE,4,FALSE,"look_length",20,0,"25"
0,0,1,"Jul 13 2014","10:37:46",8,"Medium","Social","Zero",4,"Chrome",1,"Switch","Novel131",1,"Novel138",1,1695,"straightahead",-1,"(Jul 13 2014 10:37:46)",0,TRUE,FALSE,4,FALSE,"look_length",20,0,"25"
0,1,0,"Jul 13 2014","10:37:46",9,"Medium","Social","Zero",4,"Chrome",2,"Same","Novel90",1,"Novel90",1,3427,"silentLUmedium",1,"(Jul 13 2014 10:37:46)",0,TRUE,FALSE,4,TRUE,"look_length",20,0,"25"
0,0,1,"Jul 13 2014","10:37:46",10,"Medium","Social","Zero",4,"Chrome",2,"Same","Novel80",3,"Novel90",1,1727,"straightahead",-1,"(Jul 13 2014 10:37:46)",0,TRUE,FALSE,4,FALSE,"look_length",20,0,"25"
0,1,0,"Jul 13 2014","10:37:46",11,"Medium","Social","Zero",4,"Chrome",3,"Switch","Novel134",1,"Novel31",0,519,"silentRUmedium",3,"(Jul 13 2014 10:37:46)",0,TRUE,FALSE,4,FALSE,"look_length",20,0,"25"
0,0,1,"Jul 13 2014","10:37:46",12,"Medium","Social","Zero",4,"Chrome",3,"Switch","Novel34",0,"Novel31",0,500,"straightahead",-1,"(Jul 13 2014 10:37:46)",0,TRUE,FALSE,4,FALSE,"look_length",20,0,"25"
0,1,0,"Jul 13 2014","10:37:46",13,"Medium","Social","Zero",4,"Chrome",4,"Same","Novel18",0,"Novel18",0,2131,"silentRUmedium",3,"(Jul 13 2014 10:37:46)",0,TRUE,FALSE,4,TRUE,"look_length",20,0,"25"
0,0,1,"Jul 13 2014","10:37:46",14,"Medium","Social","Zero",4,"Chrome",4,"Same","Novel135",1,"Novel18",0,837,"straightahead",-1,"(Jul 13 2014 10:37:46)",0,TRUE,FALSE,4,FALSE,"look_length",20,0,"25"
0,1,0,"Jul 13 2014","10:37:46",15,"Medium","Social","Zero",4,"Chrome",5,"Switch","Novel29",3,"Novel83",2,1286,"silentRUmedium",3,"(Jul 13 2014 10:37:46)",0,TRUE,FALSE,4,FALSE,"look_length",20,0,"25"
0,0,1,"Jul 13 2014","10:37:46",16,"Medium","Social","Zero",4,"Chrome",5,"Switch","Novel1",1,"Novel83",2,573,"straightahead",-1,"(Jul 13 2014 10:37:46)",0,TRUE,FALSE,4,FALSE,"look_length",20,0,"25"
0,1,0,"Jul 13 2014","10:37:46",17,"Medium","Social","Zero",4,"Chrome",6,"Same","Novel25",2,"Novel25",2,427,"silentLDmedium",0,"(Jul 13 2014 10:37:46)",0,TRUE,FALSE,4,TRUE,"look_length",20,0,"25"
0,0,1,"Jul 13 2014","10:37:46",18,"Medium","Social","Zero",4,"Chrome",6,"Same","Novel72",3,"Novel25",2,391,"straightahead",-1,"(Jul 13 2014 10:37:46)",0,TRUE,FALSE,4,FALSE,"look_length",20,0,"25"
0,1,0,"Jul 13 2014","10:37:46",19,"Medium","Social","Zero",4,"Chrome",7,"Switch","Novel136",2,"Novel93",1,525,"silentLUmedium",1,"(Jul 13 2014 10:37:46)",0,TRUE,FALSE,4,FALSE,"look_length",20,0,"25"
0,0,1,"Jul 13 2014","10:37:46",20,"Medium","Social","Zero",4,"Chrome",7,"Switch","Novel93",1,"Novel93",1,488,"straightahead",-1,"(Jul 13 2014 10:37:46)",0,TRUE,FALSE,4,TRUE,"look_length",20,0,"25"
1,0,0,"Jul 13 2014","10:41:17",1,"Long","Social","Zero",4,"Chrome",0,"Switch","squirrel",0,"",0,433,"straightahead",-1,"(Jul 13 2014 10:41:17)",0,TRUE,FALSE,4,FALSE,"look_length",20,0,"26"
1,0,0,"Jul 13 2014","10:41:17",2,"Long","Social","Zero",4,"Chrome",0,"Switch","squirrel",0,"",0,393,"straightahead",-1,"(Jul 13 2014 10:41:17)",0,TRUE,FALSE,4,FALSE,"look_length",20,0,"26"
1,0,0,"Jul 13 2014","10:41:17",3,"Long","Social","Zero",4,"Chrome",0,"Switch","tomato",1,"",0,402,"straightahead",-1,"(Jul 13 2014 10:41:17)",0,TRUE,FALSE,4,FALSE,"look_length",20,0,"26"
1,0,0,"Jul 13 2014","10:41:17",4,"Long","Social","Zero",4,"Chrome",0,"Switch","tomato",2,"",0,197,"straightahead",-1,"(Jul 13 2014 10:41:17)",0,TRUE,FALSE,4,FALSE,"look_length",20,0,"26"
0,1,0,"Jul 13 2014","10:41:17",5,"Long","Social","Zero",4,"Chrome",0,"Switch","Novel128",2,"Novel47",3,42,"silentLDlong",0,"(Jul 13 2014 10:41:17)",0,TRUE,FALSE,4,FALSE,"look_length",20,0,"26"
0,0,1,"Jul 13 2014","10:41:17",6,"Long","Social","Zero",4,"Chrome",0,"Switch","Novel47",0,"Novel47",3,1503,"straightahead",-1,"(Jul 13 2014 10:41:17)",0,TRUE,TRUE,4,TRUE,"look_length",20,0,"26"
0,1,0,"Jul 13 2014","10:41:17",7,"Long","Social","Zero",4,"Chrome",1,"Same","Novel117",1,"Novel117",1,266,"silentRUlong",3,"(Jul 13 2014 10:41:17)",0,TRUE,FALSE,4,TRUE,"look_length",20,0,"26"
0,0,1,"Jul 13 2014","10:41:17",8,"Long","Social","Zero",4,"Chrome",1,"Same","Novel117",3,"Novel117",1,950,"straightahead",-1,"(Jul 13 2014 10:41:17)",0,TRUE,FALSE,4,TRUE,"look_length",20,0,"26"
0,1,0,"Jul 13 2014","10:41:17",9,"Long","Social","Zero",4,"Chrome",2,"Switch","Novel28",3,"Novel60",1,452,"silentRDlong",2,"(Jul 13 2014 10:41:17)",0,TRUE,FALSE,4,FALSE,"look_length",20,0,"26"
0,0,1,"Jul 13 2014","10:41:17",10,"Long","Social","Zero",4,"Chrome",2,"Switch","Novel65",2,"Novel60",1,1288,"straightahead",-1,"(Jul 13 2014 10:41:17)",0,TRUE,FALSE,4,FALSE,"look_length",20,0,"26"
0,1,0,"Jul 13 2014","10:41:17",11,"Long","Social","Zero",4,"Chrome",3,"Same","Novel45",0,"Novel45",0,402,"silentLUlong",1,"(Jul 13 2014 10:41:17)",0,TRUE,FALSE,4,TRUE,"look_length",20,0,"26"
0,0,1,"Jul 13 2014","10:41:17",12,"Long","Social","Zero",4,"Chrome",3,"Same","Novel45",0,"Novel45",0,6,"straightahead",-1,"(Jul 13 2014 10:41:17)",0,TRUE,FALSE,4,TRUE,"look_length",20,0,"26"
0,1,0,"Jul 13 2014","10:41:17",13,"Long","Social","Zero",4,"Chrome",4,"Switch","Novel116",3,"Novel119",0,586,"silentRDlong",2,"(Jul 13 2014 10:41:17)",0,TRUE,FALSE,4,FALSE,"look_length",20,0,"26"
0,0,1,"Jul 13 2014","10:41:17",14,"Long","Social","Zero",4,"Chrome",4,"Switch","Novel119",2,"Novel119",0,558,"straightahead",-1,"(Jul 13 2014 10:41:17)",0,TRUE,FALSE,4,TRUE,"look_length",20,0,"26"
0,1,0,"Jul 13 2014","10:41:17",15,"Long","Social","Zero",4,"Chrome",5,"Same","Novel21",3,"Novel21",3,228,"silentRDlong",2,"(Jul 13 2014 10:41:17)",0,TRUE,FALSE,4,TRUE,"look_length",20,0,"26"
0,0,1,"Jul 13 2014","10:41:17",16,"Long","Social","Zero",4,"Chrome",5,"Same","Novel21",2,"Novel21",3,587,"straightahead",-1,"(Jul 13 2014 10:41:17)",0,TRUE,FALSE,4,TRUE,"look_length",20,0,"26"
0,1,0,"Jul 13 2014","10:41:17",17,"Long","Social","Zero",4,"Chrome",6,"Switch","Novel93",2,"Novel132",1,1121,"silentLDlong",0,"(Jul 13 2014 10:41:17)",0,TRUE,FALSE,4,FALSE,"look_length",20,0,"26"
0,0,1,"Jul 13 2014","10:41:17",18,"Long","Social","Zero",4,"Chrome",6,"Switch","Novel132",1,"Novel132",1,84,"straightahead",-1,"(Jul 13 2014 10:41:17)",0,TRUE,FALSE,4,TRUE,"look_length",20,0,"26"
0,1,0,"Jul 13 2014","10:41:17",19,"Long","Social","Zero",4,"Chrome",7,"Same","Novel70",2,"Novel70",2,363,"silentLDlong",0,"(Jul 13 2014 10:41:17)",0,TRUE,FALSE,4,TRUE,"look_length",20,0,"26"
0,0,1,"Jul 13 2014","10:41:17",20,"Long","Social","Zero",4,"Chrome",7,"Same","Novel70",2,"Novel70",2,7,"straightahead",-1,"(Jul 13 2014 10:41:17)",0,TRUE,FALSE,4,TRUE,"look_length",20,0,"26"
1,0,0,"Jul 13 2014","09:42:19",1,"Short","Social","Zero",4,"Chrome",0,"Same","squirrel",0,"",0,3231,"straightahead",-1,"(Jul 13 2014 09:42:19)",0,TRUE,FALSE,4,FALSE,"look_length",20,0,"27"
1,0,0,"Jul 13 2014","09:42:19",2,"Short","Social","Zero",4,"Chrome",0,"Same","squirrel",0,"",0,4119,"straightahead",-1,"(Jul 13 2014 09:42:19)",0,TRUE,FALSE,4,FALSE,"look_length",20,0,"27"
1,0,0,"Jul 13 2014","09:42:19",3,"Short","Social","Zero",4,"Chrome",0,"Same","tomato",1,"",0,1478,"straightahead",-1,"(Jul 13 2014 09:42:19)",0,TRUE,FALSE,4,FALSE,"look_length",20,0,"27"
1,0,0,"Jul 13 2014","09:42:19",4,"Short","Social","Zero",4,"Chrome",0,"Same","tomato",2,"",0,477,"straightahead",-1,"(Jul 13 2014 09:42:19)",0,TRUE,FALSE,4,FALSE,"look_length",20,0,"27"
0,1,0,"Jul 13 2014","09:42:19",5,"Short","Social","Zero",4,"Chrome",0,"Same","Novel21",2,"Novel21",2,147,"silentRDshort",2,"(Jul 13 2014 09:42:19)",0,TRUE,FALSE,4,TRUE,"look_length",20,0,"27"
0,0,1,"Jul 13 2014","09:42:19",6,"Short","Social","Zero",4,"Chrome",0,"Same","Novel21",0,"Novel21",2,863,"straightahead",-1,"(Jul 13 2014 09:42:19)",0,TRUE,TRUE,4,TRUE,"look_length",20,0,"27"
0,1,0,"Jul 13 2014","09:42:19",7,"Short","Social","Zero",4,"Chrome",1,"Switch","Novel138",2,"Novel106",3,585,"silentRDshort",2,"(Jul 13 2014 09:42:19)",0,TRUE,FALSE,4,FALSE,"look_length",20,0,"27"
0,0,1,"Jul 13 2014","09:42:19",8,"Short","Social","Zero",4,"Chrome",1,"Switch","Novel106",0,"Novel106",3,2257,"straightahead",-1,"(Jul 13 2014 09:42:19)",0,TRUE,FALSE,4,TRUE,"look_length",20,0,"27"
0,1,0,"Jul 13 2014","09:42:19",9,"Short","Social","Zero",4,"Chrome",2,"Same","Novel130",3,"Novel130",3,476,"silentLUshort",1,"(Jul 13 2014 09:42:19)",0,TRUE,FALSE,4,TRUE,"look_length",20,0,"27"
0,0,1,"Jul 13 2014","09:42:19",10,"Short","Social","Zero",4,"Chrome",2,"Same","Novel130",2,"Novel130",3,75,"straightahead",-1,"(Jul 13 2014 09:42:19)",0,TRUE,FALSE,4,TRUE,"look_length",20,0,"27"
0,1,0,"Jul 13 2014","09:42:19",11,"Short","Social","Zero",4,"Chrome",3,"Switch","Novel74",2,"Novel89",0,180,"silentRDshort",2,"(Jul 13 2014 09:42:19)",0,TRUE,FALSE,4,FALSE,"look_length",20,0,"27"
0,0,1,"Jul 13 2014","09:42:19",12,"Short","Social","Zero",4,"Chrome",3,"Switch","Novel89",0,"Novel89",0,1720,"straightahead",-1,"(Jul 13 2014 09:42:19)",0,TRUE,FALSE,4,TRUE,"look_length",20,0,"27"
0,1,0,"Jul 13 2014","09:42:19",13,"Short","Social","Zero",4,"Chrome",4,"Same","Novel83",3,"Novel83",3,735,"silentLDshort",0,"(Jul 13 2014 09:42:19)",0,TRUE,FALSE,4,TRUE,"look_length",20,0,"27"
0,0,1,"Jul 13 2014","09:42:19",14,"Short","Social","Zero",4,"Chrome",4,"Same","Novel83",3,"Novel83",3,115,"straightahead",-1,"(Jul 13 2014 09:42:19)",0,TRUE,FALSE,4,TRUE,"look_length",20,0,"27"
0,1,0,"Jul 13 2014","09:42:19",15,"Short","Social","Zero",4,"Chrome",5,"Switch","Novel125",3,"Novel62",0,192,"silentRDshort",2,"(Jul 13 2014 09:42:19)",0,TRUE,FALSE,4,FALSE,"look_length",20,0,"27"
0,0,1,"Jul 13 2014","09:42:19",16,"Short","Social","Zero",4,"Chrome",5,"Switch","Novel107",3,"Novel62",0,1063,"straightahead",-1,"(Jul 13 2014 09:42:19)",0,TRUE,FALSE,4,FALSE,"look_length",20,0,"27"
0,1,0,"Jul 13 2014","09:42:19",17,"Short","Social","Zero",4,"Chrome",6,"Same","Novel81",0,"Novel81",0,38,"silentLDshort",0,"(Jul 13 2014 09:42:19)",0,TRUE,FALSE,4,TRUE,"look_length",20,0,"27"
0,0,1,"Jul 13 2014","09:42:19",18,"Short","Social","Zero",4,"Chrome",6,"Same","Novel81",0,"Novel81",0,69,"straightahead",-1,"(Jul 13 2014 09:42:19)",0,TRUE,FALSE,4,TRUE,"look_length",20,0,"27"
0,1,0,"Jul 13 2014","09:42:19",19,"Short","Social","Zero",4,"Chrome",7,"Switch","Novel118",0,"Novel35",2,654,"silentLUshort",1,"(Jul 13 2014 09:42:19)",0,TRUE,FALSE,4,FALSE,"look_length",20,0,"27"
0,0,1,"Jul 13 2014","09:42:19",20,"Short","Social","Zero",4,"Chrome",7,"Switch","Novel35",0,"Novel35",2,1276,"straightahead",-1,"(Jul 13 2014 09:42:19)",0,TRUE,FALSE,4,TRUE,"look_length",20,0,"27"
1,0,0,"Jul 13 2014","07:34:19",1,"Medium","Social","Zero",4,"Chrome",0,"Switch","squirrel",0,"",0,279,"straightahead",-1,"(Jul 13 2014 07:34:19)",0,TRUE,FALSE,4,FALSE,"look_length",20,0,"28"
1,0,0,"Jul 13 2014","07:34:19",2,"Medium","Social","Zero",4,"Chrome",0,"Switch","squirrel",0,"",0,559,"straightahead",-1,"(Jul 13 2014 07:34:19)",0,TRUE,FALSE,4,FALSE,"look_length",20,0,"28"
1,0,0,"Jul 13 2014","07:34:19",3,"Medium","Social","Zero",4,"Chrome",0,"Switch","tomato",1,"",0,323,"straightahead",-1,"(Jul 13 2014 07:34:19)",0,TRUE,FALSE,4,FALSE,"look_length",20,0,"28"
1,0,0,"Jul 13 2014","07:34:19",4,"Medium","Social","Zero",4,"Chrome",0,"Switch","tomato",2,"",0,924,"straightahead",-1,"(Jul 13 2014 07:34:19)",0,TRUE,FALSE,4,FALSE,"look_length",20,0,"28"
0,1,0,"Jul 13 2014","07:34:19",5,"Medium","Social","Zero",4,"Chrome",0,"Switch","Novel9",0,"Novel136",3,2222,"silentLUmedium",1,"(Jul 13 2014 07:34:19)",0,TRUE,FALSE,4,FALSE,"look_length",20,0,"28"
0,0,1,"Jul 13 2014","07:34:19",6,"Medium","Social","Zero",4,"Chrome",0,"Switch","Novel17",1,"Novel136",3,1688,"straightahead",-1,"(Jul 13 2014 07:34:19)",0,TRUE,TRUE,4,FALSE,"look_length",20,0,"28"
0,1,0,"Jul 13 2014","07:34:19",7,"Medium","Social","Zero",4,"Chrome",1,"Same","Novel132",0,"Novel132",0,527,"silentLUmedium",1,"(Jul 13 2014 07:34:19)",0,TRUE,FALSE,4,TRUE,"look_length",20,0,"28"
0,0,1,"Jul 13 2014","07:34:19",8,"Medium","Social","Zero",4,"Chrome",1,"Same","Novel132",2,"Novel132",0,680,"straightahead",-1,"(Jul 13 2014 07:34:19)",0,TRUE,FALSE,4,TRUE,"look_length",20,0,"28"
0,1,0,"Jul 13 2014","07:34:19",9,"Medium","Social","Zero",4,"Chrome",2,"Switch","Novel120",2,"Novel40",3,2415,"silentLDmedium",0,"(Jul 13 2014 07:34:19)",0,TRUE,FALSE,4,FALSE,"look_length",20,0,"28"
0,0,1,"Jul 13 2014","07:34:19",10,"Medium","Social","Zero",4,"Chrome",2,"Switch","Novel103",1,"Novel40",3,95,"straightahead",-1,"(Jul 13 2014 07:34:19)",0,TRUE,FALSE,4,FALSE,"look_length",20,0,"28"
0,1,0,"Jul 13 2014","07:34:19",11,"Medium","Social","Zero",4,"Chrome",3,"Same","Novel26",0,"Novel26",0,348,"silentLUmedium",1,"(Jul 13 2014 07:34:19)",0,TRUE,FALSE,4,TRUE,"look_length",20,0,"28"
0,0,1,"Jul 13 2014","07:34:19",12,"Medium","Social","Zero",4,"Chrome",3,"Same","Novel26",0,"Novel26",0,426,"straightahead",-1,"(Jul 13 2014 07:34:19)",0,TRUE,FALSE,4,TRUE,"look_length",20,0,"28"
0,1,0,"Jul 13 2014","07:34:19",13,"Medium","Social","Zero",4,"Chrome",4,"Switch","Novel124",2,"Novel134",0,298,"silentLDmedium",0,"(Jul 13 2014 07:34:19)",0,TRUE,FALSE,4,FALSE,"look_length",20,0,"28"
0,0,1,"Jul 13 2014","07:34:19",14,"Medium","Social","Zero",4,"Chrome",4,"Switch","Novel118",2,"Novel134",0,369,"straightahead",-1,"(Jul 13 2014 07:34:19)",0,TRUE,FALSE,4,FALSE,"look_length",20,0,"28"
0,1,0,"Jul 13 2014","07:34:19",15,"Medium","Social","Zero",4,"Chrome",5,"Same","Novel131",3,"Novel131",3,360,"silentRDmedium",2,"(Jul 13 2014 07:34:19)",0,TRUE,FALSE,4,TRUE,"look_length",20,0,"28"
0,0,1,"Jul 13 2014","07:34:19",16,"Medium","Social","Zero",4,"Chrome",5,"Same","Novel131",1,"Novel131",3,1013,"straightahead",-1,"(Jul 13 2014 07:34:19)",0,TRUE,FALSE,4,TRUE,"look_length",20,0,"28"
0,1,0,"Jul 13 2014","07:34:19",17,"Medium","Social","Zero",4,"Chrome",6,"Switch","Novel62",3,"Novel82",1,514,"silentRDmedium",2,"(Jul 13 2014 07:34:19)",0,TRUE,FALSE,4,FALSE,"look_length",20,0,"28"
0,0,1,"Jul 13 2014","07:34:19",18,"Medium","Social","Zero",4,"Chrome",6,"Switch","Novel54",0,"Novel82",1,475,"straightahead",-1,"(Jul 13 2014 07:34:19)",0,TRUE,FALSE,4,FALSE,"look_length",20,0,"28"
0,1,0,"Jul 13 2014","07:34:19",19,"Medium","Social","Zero",4,"Chrome",7,"Same","Novel34",3,"Novel34",3,95,"silentRDmedium",2,"(Jul 13 2014 07:34:19)",0,TRUE,FALSE,4,TRUE,"look_length",20,0,"28"
0,0,1,"Jul 13 2014","07:34:19",20,"Medium","Social","Zero",4,"Chrome",7,"Same","Novel34",3,"Novel34",3,786,"straightahead",-1,"(Jul 13 2014 07:34:19)",0,TRUE,FALSE,4,TRUE,"look_length",20,0,"28"
1,0,0,"Jul 13 2014","09:35:48",1,"Long","Social","Zero",4,"Chrome",0,"Switch","squirrel",0,"",0,3733,"straightahead",-1,"(Jul 13 2014 09:35:48)",0,TRUE,FALSE,4,FALSE,"look_length",20,0,"29"
1,0,0,"Jul 13 2014","09:35:48",2,"Long","Social","Zero",4,"Chrome",0,"Switch","squirrel",0,"",0,186,"straightahead",-1,"(Jul 13 2014 09:35:48)",0,TRUE,FALSE,4,FALSE,"look_length",20,0,"29"
1,0,0,"Jul 13 2014","09:35:48",3,"Long","Social","Zero",4,"Chrome",0,"Switch","tomato",1,"",0,489,"straightahead",-1,"(Jul 13 2014 09:35:48)",0,TRUE,FALSE,4,FALSE,"look_length",20,0,"29"
1,0,0,"Jul 13 2014","09:35:48",4,"Long","Social","Zero",4,"Chrome",0,"Switch","tomato",2,"",0,122,"straightahead",-1,"(Jul 13 2014 09:35:48)",0,TRUE,FALSE,4,FALSE,"look_length",20,0,"29"
0,1,0,"Jul 13 2014","09:35:48",5,"Long","Social","Zero",4,"Chrome",0,"Switch","Novel42",0,"Novel58",3,374,"silentLUlong",1,"(Jul 13 2014 09:35:48)",0,TRUE,FALSE,4,FALSE,"look_length",20,0,"29"
0,0,1,"Jul 13 2014","09:35:48",6,"Long","Social","Zero",4,"Chrome",0,"Switch","Novel124",2,"Novel58",3,1592,"straightahead",-1,"(Jul 13 2014 09:35:48)",0,TRUE,TRUE,4,FALSE,"look_length",20,0,"29"
0,1,0,"Jul 13 2014","09:35:48",7,"Long","Social","Zero",4,"Chrome",1,"Same","Novel35",2,"Novel35",2,755,"silentLDlong",0,"(Jul 13 2014 09:35:48)",0,TRUE,FALSE,4,TRUE,"look_length",20,0,"29"
0,0,1,"Jul 13 2014","09:35:48",8,"Long","Social","Zero",4,"Chrome",1,"Same","Novel35",2,"Novel35",2,463,"straightahead",-1,"(Jul 13 2014 09:35:48)",0,TRUE,FALSE,4,TRUE,"look_length",20,0,"29"
0,1,0,"Jul 13 2014","09:35:48",9,"Long","Social","Zero",4,"Chrome",2,"Switch","Novel47",0,"Novel84",3,1187,"silentLDlong",0,"(Jul 13 2014 09:35:48)",0,TRUE,FALSE,4,FALSE,"look_length",20,0,"29"
0,0,1,"Jul 13 2014","09:35:48",10,"Long","Social","Zero",4,"Chrome",2,"Switch","Novel84",3,"Novel84",3,1117,"straightahead",-1,"(Jul 13 2014 09:35:48)",0,TRUE,FALSE,4,TRUE,"look_length",20,0,"29"
0,1,0,"Jul 13 2014","09:35:48",11,"Long","Social","Zero",4,"Chrome",3,"Same","Novel134",2,"Novel134",2,1271,"silentLUlong",1,"(Jul 13 2014 09:35:48)",0,TRUE,FALSE,4,TRUE,"look_length",20,0,"29"
0,0,1,"Jul 13 2014","09:35:48",12,"Long","Social","Zero",4,"Chrome",3,"Same","Novel134",3,"Novel134",2,342,"straightahead",-1,"(Jul 13 2014 09:35:48)",0,TRUE,FALSE,4,TRUE,"look_length",20,0,"29"
0,1,0,"Jul 13 2014","09:35:48",13,"Long","Social","Zero",4,"Chrome",4,"Switch","Novel79",2,"Novel108",1,254,"silentLUlong",1,"(Jul 13 2014 09:35:48)",0,TRUE,FALSE,4,FALSE,"look_length",20,0,"29"
0,0,1,"Jul 13 2014","09:35:48",14,"Long","Social","Zero",4,"Chrome",4,"Switch","Novel108",0,"Novel108",1,329,"straightahead",-1,"(Jul 13 2014 09:35:48)",0,TRUE,FALSE,4,TRUE,"look_length",20,0,"29"
