"submit.date","submit.time","trial.num","gazeLength","condition","interval","numPic","browser","itemNum","trialType","samePos","chosen","chosenIdx","kept","keptIdx","rt","face","faceIdx","prop_cond","trial_cat","intervalNum","include","first.trial","numPicN","correct","subids","block"
"Jan 17 2015","18:15:47",1,"Live",2,"Zero",4,"Chrome",0,"Switch",1,"squirrel",0,"",0,3778,"up-left-4sec","0","0same100switch","example",0,TRUE,FALSE,4,TRUE,"1","familiarization"
"Jan 17 2015","18:15:47",2,"Live",2,"Zero",4,"Chrome",0,"Switch",1,"squirrel",0,"",0,1423,"up-left-4sec","0","0same100switch","example",0,TRUE,FALSE,4,TRUE,"1","familiarization"
"Jan 17 2015","18:15:47",3,"Live",2,"Zero",4,"Chrome",0,"Switch",1,"tomato",1,"",0,554,"up-right-4sec","1","0same100switch","example",0,TRUE,FALSE,4,TRUE,"1","familiarization"
"Jan 17 2015","18:15:47",4,"Live",2,"Zero",4,"Chrome",0,"Switch",1,"tomato",2,"",0,368,"down-left-4sec","2","0same100switch","example",0,TRUE,FALSE,4,TRUE,"1","familiarization"
"Jan 17 2015","18:15:47",5,"Live",2,"Zero",4,"Chrome",0,"Switch",1,"Novel101",3,"Novel138",0,619,"down-right-4sec","3","0same100switch","exposure",0,TRUE,FALSE,4,TRUE,"1","familiarization"
"Jan 17 2015","18:15:47",6,"Live",2,"Zero",4,"Chrome",0,"Switch",1,"Novel138",0,"Novel138",0,1393,"straight-ahead","-1","0same100switch","test",0,TRUE,TRUE,4,TRUE,"1","familiarization"
"Jan 17 2015","18:15:47",7,"Live",2,"Zero",4,"Chrome",1,"Switch",0,"Novel39",2,"Novel53",3,225,"down-left-4sec","2","0same100switch","exposure",0,TRUE,FALSE,4,TRUE,"1","familiarization"
"Jan 17 2015","18:15:47",8,"Live",2,"Zero",4,"Chrome",1,"Switch",0,"Novel53",0,"Novel53",3,2414,"straight-ahead","-1","0same100switch","test",0,TRUE,FALSE,4,TRUE,"1","familiarization"
"Jan 17 2015","18:15:47",9,"Live",2,"Zero",4,"Chrome",2,"Switch",1,"Novel18",2,"Novel111",0,1721,"down-left-4sec","2","0same100switch","exposure",0,TRUE,FALSE,4,TRUE,"1","familiarization"
"Jan 17 2015","18:15:47",10,"Live",2,"Zero",4,"Chrome",2,"Switch",1,"Novel100",1,"Novel111",0,2638,"straight-ahead","-1","0same100switch","test",0,TRUE,FALSE,4,FALSE,"1","familiarization"
"Jan 17 2015","18:15:47",11,"Live",2,"Zero",4,"Chrome",3,"Switch",0,"Novel137",0,"Novel91",3,907,"up-left-4sec","0","0same100switch","exposure",0,TRUE,FALSE,4,TRUE,"1","familiarization"
"Jan 17 2015","18:15:47",12,"Live",2,"Zero",4,"Chrome",3,"Switch",0,"Novel91",2,"Novel91",3,134,"straight-ahead","-1","0same100switch","test",0,TRUE,FALSE,4,TRUE,"1","familiarization"
"Jan 17 2015","18:15:47",13,"Live",2,"Zero",4,"Chrome",4,"Switch",0,"Novel106",2,"Novel87",3,13,"down-left-4sec","2","0same100switch","exposure",0,TRUE,FALSE,4,TRUE,"1","familiarization"
"Jan 17 2015","18:15:47",14,"Live",2,"Zero",4,"Chrome",4,"Switch",0,"Novel126",0,"Novel87",3,2420,"straight-ahead","-1","0same100switch","test",0,TRUE,FALSE,4,FALSE,"1","familiarization"
"Jan 17 2015","18:15:47",15,"Live",2,"Zero",4,"Chrome",5,"Switch",1,"Novel82",2,"Novel97",0,1973,"down-left-4sec","2","0same100switch","exposure",0,TRUE,FALSE,4,TRUE,"1","familiarization"
"Jan 17 2015","18:15:47",16,"Live",2,"Zero",4,"Chrome",5,"Switch",1,"Novel132",3,"Novel97",0,708,"straight-ahead","-1","0same100switch","test",0,TRUE,FALSE,4,FALSE,"1","familiarization"
"Jan 17 2015","18:15:47",17,"Live",2,"Zero",4,"Chrome",6,"Switch",0,"Novel79",0,"Novel105",2,285,"up-left-4sec","0","0same100switch","exposure",0,TRUE,FALSE,4,TRUE,"1","familiarization"
"Jan 17 2015","18:15:47",18,"Live",2,"Zero",4,"Chrome",6,"Switch",0,"Novel94",0,"Novel105",2,5,"straight-ahead","-1","0same100switch","test",0,TRUE,FALSE,4,FALSE,"1","familiarization"
"Jan 17 2015","18:15:47",19,"Live",2,"Zero",4,"Chrome",7,"Switch",1,"Novel21",0,"Novel47",1,1568,"up-left-4sec","0","0same100switch","exposure",0,TRUE,FALSE,4,TRUE,"1","familiarization"
"Jan 17 2015","18:15:47",20,"Live",2,"Zero",4,"Chrome",7,"Switch",1,"Novel38",2,"Novel47",1,120,"straight-ahead","-1","0same100switch","test",0,TRUE,FALSE,4,FALSE,"1","familiarization"
"Jan 17 2015","18:15:47",21,"Live",2,"Zero",4,"Chrome",8,"Same",1,"Novel99",3,"Novel99",3,357,"down-right-4sec","3","0same100switch","exposure",0,TRUE,FALSE,4,TRUE,"1","test"
"Jan 17 2015","18:15:47",22,"Live",2,"Zero",4,"Chrome",8,"Same",1,"Novel99",3,"Novel99",3,110,"straight-ahead","-1","0same100switch","test",0,TRUE,FALSE,4,TRUE,"1","test"
"Jan 17 2015","18:15:47",23,"Live",2,"Zero",4,"Chrome",9,"Switch",0,"Novel6",1,"Novel8",3,469,"up-right-4sec","1","0same100switch","exposure",0,TRUE,FALSE,4,TRUE,"1","test"
"Jan 17 2015","18:15:47",24,"Live",2,"Zero",4,"Chrome",9,"Switch",0,"Novel23",1,"Novel8",3,14,"straight-ahead","-1","0same100switch","test",0,TRUE,FALSE,4,FALSE,"1","test"
"Jan 17 2015","18:15:47",25,"Live",2,"Zero",4,"Chrome",10,"Same",1,"Novel43",1,"Novel43",1,56,"up-right-4sec","1","0same100switch","exposure",0,TRUE,FALSE,4,TRUE,"1","test"
"Jan 17 2015","18:15:47",26,"Live",2,"Zero",4,"Chrome",10,"Same",1,"Novel43",1,"Novel43",1,165,"straight-ahead","-1","0same100switch","test",0,TRUE,FALSE,4,TRUE,"1","test"
"Jan 17 2015","18:15:47",27,"Live",2,"Zero",4,"Chrome",11,"Switch",0,"Novel31",3,"Novel74",2,29,"down-right-4sec","3","0same100switch","exposure",0,TRUE,FALSE,4,TRUE,"1","test"
"Jan 17 2015","18:15:47",28,"Live",2,"Zero",4,"Chrome",11,"Switch",0,"Novel51",0,"Novel74",2,562,"straight-ahead","-1","0same100switch","test",0,TRUE,FALSE,4,FALSE,"1","test"
"Jan 17 2015","18:15:47",29,"Live",2,"Zero",4,"Chrome",12,"Same",0,"Novel81",2,"Novel81",2,16,"down-left-4sec","2","0same100switch","exposure",0,TRUE,FALSE,4,TRUE,"1","test"
"Jan 17 2015","18:15:47",30,"Live",2,"Zero",4,"Chrome",12,"Same",0,"Novel81",0,"Novel81",2,102,"straight-ahead","-1","0same100switch","test",0,TRUE,FALSE,4,TRUE,"1","test"
"Jan 17 2015","18:15:47",31,"Live",2,"Zero",4,"Chrome",13,"Switch",1,"Novel135",1,"Novel45",2,157,"up-right-4sec","1","0same100switch","exposure",0,TRUE,FALSE,4,TRUE,"1","test"
"Jan 17 2015","18:15:47",32,"Live",2,"Zero",4,"Chrome",13,"Switch",1,"Novel45",2,"Novel45",2,531,"straight-ahead","-1","0same100switch","test",0,TRUE,FALSE,4,TRUE,"1","test"
"Jan 17 2015","18:15:47",33,"Live",2,"Zero",4,"Chrome",14,"Same",0,"Novel86",1,"Novel86",1,275,"up-right-4sec","1","0same100switch","exposure",0,TRUE,FALSE,4,TRUE,"1","test"
"Jan 17 2015","18:15:47",34,"Live",2,"Zero",4,"Chrome",14,"Same",0,"Novel86",3,"Novel86",1,168,"straight-ahead","-1","0same100switch","test",0,TRUE,FALSE,4,TRUE,"1","test"
"Jan 17 2015","18:15:47",35,"Live",2,"Zero",4,"Chrome",15,"Switch",1,"Novel13",3,"Novel35",1,154,"down-right-4sec","3","0same100switch","exposure",0,TRUE,FALSE,4,TRUE,"1","test"
"Jan 17 2015","18:15:47",36,"Live",2,"Zero",4,"Chrome",15,"Switch",1,"Novel116",0,"Novel35",1,0,"straight-ahead","-1","0same100switch","test",0,TRUE,FALSE,4,FALSE,"1","test"
"Jan 17 2015","16:43:35",1,"Live",2,"Zero",4,"Firefox",0,"Switch",0,"squirrel",0,"",0,845,"up-left-4sec","0","0same100switch","example",0,TRUE,FALSE,4,TRUE,"2","familiarization"
"Jan 17 2015","16:43:35",2,"Live",2,"Zero",4,"Firefox",0,"Switch",0,"squirrel",0,"",0,465,"up-left-4sec","0","0same100switch","example",0,TRUE,FALSE,4,TRUE,"2","familiarization"
"Jan 17 2015","16:43:35",3,"Live",2,"Zero",4,"Firefox",0,"Switch",0,"tomato",1,"",0,880,"up-right-4sec","1","0same100switch","example",0,TRUE,FALSE,4,TRUE,"2","familiarization"
"Jan 17 2015","16:43:35",4,"Live",2,"Zero",4,"Firefox",0,"Switch",0,"tomato",2,"",0,1489,"down-left-4sec","2","0same100switch","example",0,TRUE,FALSE,4,TRUE,"2","familiarization"
"Jan 17 2015","16:43:35",5,"Live",2,"Zero",4,"Firefox",0,"Switch",0,"Novel20",1,"Novel57",3,1500,"up-left-4sec","0","0same100switch","exposure",0,TRUE,FALSE,4,FALSE,"2","familiarization"
"Jan 17 2015","16:43:35",6,"Live",2,"Zero",4,"Firefox",0,"Switch",0,"Novel57",2,"Novel57",3,1424,"straight-ahead","-1","0same100switch","test",0,TRUE,TRUE,4,TRUE,"2","familiarization"
"Jan 17 2015","16:43:35",7,"Live",2,"Zero",4,"Firefox",1,"Switch",1,"Novel116",0,"Novel23",2,2287,"down-left-4sec","2","0same100switch","exposure",0,TRUE,FALSE,4,FALSE,"2","familiarization"
"Jan 17 2015","16:43:35",8,"Live",2,"Zero",4,"Firefox",1,"Switch",1,"Novel61",1,"Novel23",2,882,"straight-ahead","-1","0same100switch","test",0,TRUE,FALSE,4,FALSE,"2","familiarization"
"Jan 17 2015","16:43:35",9,"Live",2,"Zero",4,"Firefox",2,"Switch",1,"Novel42",0,"Novel108",2,1256,"down-right-4sec","3","0same100switch","exposure",0,TRUE,FALSE,4,FALSE,"2","familiarization"
"Jan 17 2015","16:43:35",10,"Live",2,"Zero",4,"Firefox",2,"Switch",1,"Novel88",1,"Novel108",2,1842,"straight-ahead","-1","0same100switch","test",0,TRUE,FALSE,4,FALSE,"2","familiarization"
"Jan 17 2015","16:43:35",11,"Live",2,"Zero",4,"Firefox",3,"Switch",1,"Novel3",2,"Novel26",0,2612,"down-right-4sec","3","0same100switch","exposure",0,TRUE,FALSE,4,FALSE,"2","familiarization"
"Jan 17 2015","16:43:35",12,"Live",2,"Zero",4,"Firefox",3,"Switch",1,"Novel26",0,"Novel26",0,1990,"straight-ahead","-1","0same100switch","test",0,TRUE,FALSE,4,TRUE,"2","familiarization"
"Jan 17 2015","16:43:35",13,"Live",2,"Zero",4,"Firefox",4,"Switch",0,"Novel79",3,"Novel51",1,2170,"up-left-4sec","0","0same100switch","exposure",0,TRUE,FALSE,4,FALSE,"2","familiarization"
"Jan 17 2015","16:43:35",14,"Live",2,"Zero",4,"Firefox",4,"Switch",0,"Novel29",3,"Novel51",1,1340,"straight-ahead","-1","0same100switch","test",0,TRUE,FALSE,4,FALSE,"2","familiarization"
"Jan 17 2015","16:43:35",15,"Live",2,"Zero",4,"Firefox",5,"Switch",0,"Novel41",1,"Novel84",0,2433,"down-right-4sec","3","0same100switch","exposure",0,TRUE,FALSE,4,FALSE,"2","familiarization"
"Jan 17 2015","16:43:35",16,"Live",2,"Zero",4,"Firefox",5,"Switch",0,"Novel84",2,"Novel84",0,1030,"straight-ahead","-1","0same100switch","test",0,TRUE,FALSE,4,TRUE,"2","familiarization"
"Jan 17 2015","16:43:35",17,"Live",2,"Zero",4,"Firefox",6,"Switch",1,"Novel33",1,"Novel4",2,2414,"down-left-4sec","2","0same100switch","exposure",0,TRUE,FALSE,4,FALSE,"2","familiarization"
"Jan 17 2015","16:43:35",18,"Live",2,"Zero",4,"Firefox",6,"Switch",1,"Novel4",2,"Novel4",2,754,"straight-ahead","-1","0same100switch","test",0,TRUE,FALSE,4,TRUE,"2","familiarization"
"Jan 17 2015","16:43:35",19,"Live",2,"Zero",4,"Firefox",7,"Switch",0,"Novel121",2,"Novel6",0,1056,"up-left-4sec","0","0same100switch","exposure",0,TRUE,FALSE,4,FALSE,"2","familiarization"
"Jan 17 2015","16:43:35",20,"Live",2,"Zero",4,"Firefox",7,"Switch",0,"Novel6",2,"Novel6",0,525,"straight-ahead","-1","0same100switch","test",0,TRUE,FALSE,4,TRUE,"2","familiarization"
"Jan 17 2015","16:43:35",21,"Live",2,"Zero",4,"Firefox",8,"Switch",0,"Novel8",0,"Novel18",1,1839,"up-left-4sec","0","0same100switch","exposure",0,TRUE,FALSE,4,TRUE,"2","test"
"Jan 17 2015","16:43:35",22,"Live",2,"Zero",4,"Firefox",8,"Switch",0,"Novel83",0,"Novel18",1,633,"straight-ahead","-1","0same100switch","test",0,TRUE,FALSE,4,FALSE,"2","test"
"Jan 17 2015","16:43:35",23,"Live",2,"Zero",4,"Firefox",9,"Same",1,"Novel19",1,"Novel19",1,1405,"down-left-4sec","2","0same100switch","exposure",0,TRUE,FALSE,4,FALSE,"2","test"
"Jan 17 2015","16:43:35",24,"Live",2,"Zero",4,"Firefox",9,"Same",1,"Novel19",1,"Novel19",1,571,"straight-ahead","-1","0same100switch","test",0,TRUE,FALSE,4,TRUE,"2","test"
"Jan 17 2015","16:43:35",25,"Live",2,"Zero",4,"Firefox",10,"Switch",1,"Novel5",1,"Novel67",3,643,"up-right-4sec","1","0same100switch","exposure",0,TRUE,FALSE,4,TRUE,"2","test"
"Jan 17 2015","16:43:35",26,"Live",2,"Zero",4,"Firefox",10,"Switch",1,"Novel97",2,"Novel67",3,1149,"straight-ahead","-1","0same100switch","test",0,TRUE,FALSE,4,FALSE,"2","test"
"Jan 17 2015","16:43:35",27,"Live",2,"Zero",4,"Firefox",11,"Same",1,"Novel49",3,"Novel49",3,1261,"up-left-4sec","0","0same100switch","exposure",0,TRUE,FALSE,4,FALSE,"2","test"
"Jan 17 2015","16:43:35",28,"Live",2,"Zero",4,"Firefox",11,"Same",1,"Novel49",3,"Novel49",3,680,"straight-ahead","-1","0same100switch","test",0,TRUE,FALSE,4,TRUE,"2","test"
"Jan 17 2015","16:43:35",29,"Live",2,"Zero",4,"Firefox",12,"Switch",0,"Novel130",1,"Novel17",3,2283,"down-left-4sec","2","0same100switch","exposure",0,TRUE,FALSE,4,FALSE,"2","test"
"Jan 17 2015","16:43:35",30,"Live",2,"Zero",4,"Firefox",12,"Switch",0,"Novel17",1,"Novel17",3,569,"straight-ahead","-1","0same100switch","test",0,TRUE,FALSE,4,TRUE,"2","test"
"Jan 17 2015","16:43:35",31,"Live",2,"Zero",4,"Firefox",13,"Same",0,"Novel25",0,"Novel25",0,1526,"down-right-4sec","3","0same100switch","exposure",0,TRUE,FALSE,4,FALSE,"2","test"
"Jan 17 2015","16:43:35",32,"Live",2,"Zero",4,"Firefox",13,"Same",0,"Novel25",1,"Novel25",0,642,"straight-ahead","-1","0same100switch","test",0,TRUE,FALSE,4,TRUE,"2","test"
"Jan 17 2015","16:43:35",33,"Live",2,"Zero",4,"Firefox",14,"Switch",1,"Novel115",1,"Novel31",0,521,"down-left-4sec","2","0same100switch","exposure",0,TRUE,FALSE,4,FALSE,"2","test"
"Jan 17 2015","16:43:35",34,"Live",2,"Zero",4,"Firefox",14,"Switch",1,"Novel65",3,"Novel31",0,355,"straight-ahead","-1","0same100switch","test",0,TRUE,FALSE,4,FALSE,"2","test"
"Jan 17 2015","16:43:35",35,"Live",2,"Zero",4,"Firefox",15,"Same",0,"Novel30",0,"Novel30",0,1665,"down-right-4sec","3","0same100switch","exposure",0,TRUE,FALSE,4,FALSE,"2","test"
"Jan 17 2015","16:43:35",36,"Live",2,"Zero",4,"Firefox",15,"Same",0,"Novel30",3,"Novel30",0,1168,"straight-ahead","-1","0same100switch","test",0,TRUE,FALSE,4,TRUE,"2","test"
"Jan 17 2015","16:01:23",1,"Live",1,"Zero",4,"Firefox",0,"Same",1,"squirrel",0,"",0,2203,"up-left-4sec","0","100same0switch","example",0,TRUE,FALSE,4,TRUE,"3","familiarization"
"Jan 17 2015","16:01:23",2,"Live",1,"Zero",4,"Firefox",0,"Same",1,"squirrel",0,"",0,334,"up-left-4sec","0","100same0switch","example",0,TRUE,FALSE,4,TRUE,"3","familiarization"
"Jan 17 2015","16:01:23",3,"Live",1,"Zero",4,"Firefox",0,"Same",1,"tomato",1,"",0,749,"up-right-4sec","1","100same0switch","example",0,TRUE,FALSE,4,TRUE,"3","familiarization"
"Jan 17 2015","16:01:23",4,"Live",1,"Zero",4,"Firefox",0,"Same",1,"tomato",2,"",0,1591,"down-left-4sec","2","100same0switch","example",0,TRUE,FALSE,4,TRUE,"3","familiarization"
"Jan 17 2015","16:01:23",5,"Live",1,"Zero",4,"Firefox",0,"Same",1,"Novel82",0,"Novel82",0,192,"up-right-4sec","1","100same0switch","exposure",0,TRUE,FALSE,4,FALSE,"3","familiarization"
"Jan 17 2015","16:01:23",6,"Live",1,"Zero",4,"Firefox",0,"Same",1,"Novel33",1,"Novel82",0,110,"straight-ahead","-1","100same0switch","test",0,TRUE,TRUE,4,FALSE,"3","familiarization"
"Jan 17 2015","16:01:23",7,"Live",1,"Zero",4,"Firefox",1,"Same",0,"Novel125",3,"Novel125",3,276,"up-right-4sec","1","100same0switch","exposure",0,TRUE,FALSE,4,FALSE,"3","familiarization"
"Jan 17 2015","16:01:23",8,"Live",1,"Zero",4,"Firefox",1,"Same",0,"Novel60",2,"Novel125",3,133,"straight-ahead","-1","100same0switch","test",0,TRUE,FALSE,4,FALSE,"3","familiarization"
"Jan 17 2015","16:01:23",9,"Live",1,"Zero",4,"Firefox",2,"Same",1,"Novel67",0,"Novel67",0,113,"down-right-4sec","3","100same0switch","exposure",0,TRUE,FALSE,4,FALSE,"3","familiarization"
"Jan 17 2015","16:01:23",10,"Live",1,"Zero",4,"Firefox",2,"Same",1,"Novel1",1,"Novel67",0,105,"straight-ahead","-1","100same0switch","test",0,TRUE,FALSE,4,FALSE,"3","familiarization"
"Jan 17 2015","16:01:23",11,"Live",1,"Zero",4,"Firefox",3,"Same",1,"Novel126",1,"Novel126",1,2919,"up-left-4sec","0","100same0switch","exposure",0,TRUE,FALSE,4,FALSE,"3","familiarization"
"Jan 17 2015","16:01:23",12,"Live",1,"Zero",4,"Firefox",3,"Same",1,"Novel126",1,"Novel126",1,778,"straight-ahead","-1","100same0switch","test",0,TRUE,FALSE,4,TRUE,"3","familiarization"
"Jan 17 2015","16:01:23",13,"Live",1,"Zero",4,"Firefox",4,"Same",0,"Novel122",2,"Novel122",2,195,"down-right-4sec","3","100same0switch","exposure",0,TRUE,FALSE,4,FALSE,"3","familiarization"
"Jan 17 2015","16:01:23",14,"Live",1,"Zero",4,"Firefox",4,"Same",0,"Novel136",0,"Novel122",2,18,"straight-ahead","-1","100same0switch","test",0,TRUE,FALSE,4,FALSE,"3","familiarization"
"Jan 17 2015","16:01:23",15,"Live",1,"Zero",4,"Firefox",5,"Same",0,"Novel85",3,"Novel85",3,269,"down-left-4sec","2","100same0switch","exposure",0,TRUE,FALSE,4,FALSE,"3","familiarization"
"Jan 17 2015","16:01:23",16,"Live",1,"Zero",4,"Firefox",5,"Same",0,"Novel30",1,"Novel85",3,31,"straight-ahead","-1","100same0switch","test",0,TRUE,FALSE,4,FALSE,"3","familiarization"
"Jan 17 2015","16:01:23",17,"Live",1,"Zero",4,"Firefox",6,"Same",0,"Novel140",0,"Novel140",0,7,"down-right-4sec","3","100same0switch","exposure",0,TRUE,FALSE,4,FALSE,"3","familiarization"
"Jan 17 2015","16:01:23",18,"Live",1,"Zero",4,"Firefox",6,"Same",0,"Novel140",1,"Novel140",0,811,"straight-ahead","-1","100same0switch","test",0,TRUE,FALSE,4,TRUE,"3","familiarization"
"Jan 17 2015","16:01:23",19,"Live",1,"Zero",4,"Firefox",7,"Same",1,"Novel89",2,"Novel89",2,189,"down-left-4sec","2","100same0switch","exposure",0,TRUE,FALSE,4,TRUE,"3","familiarization"
"Jan 17 2015","16:01:23",20,"Live",1,"Zero",4,"Firefox",7,"Same",1,"Novel52",0,"Novel89",2,142,"straight-ahead","-1","100same0switch","test",0,TRUE,FALSE,4,FALSE,"3","familiarization"
"Jan 17 2015","16:01:23",21,"Live",1,"Zero",4,"Firefox",8,"Same",1,"Novel86",3,"Novel86",3,159,"down-right-4sec","3","100same0switch","exposure",0,TRUE,FALSE,4,TRUE,"3","test"
"Jan 17 2015","16:01:23",22,"Live",1,"Zero",4,"Firefox",8,"Same",1,"Novel132",1,"Novel86",3,194,"straight-ahead","-1","100same0switch","test",0,TRUE,FALSE,4,FALSE,"3","test"
"Jan 17 2015","16:01:23",23,"Live",1,"Zero",4,"Firefox",9,"Switch",0,"Novel65",2,"Novel100",1,2344,"down-right-4sec","3","100same0switch","exposure",0,TRUE,FALSE,4,FALSE,"3","test"
"Jan 17 2015","16:01:23",24,"Live",1,"Zero",4,"Firefox",9,"Switch",0,"Novel130",0,"Novel100",1,11491,"straight-ahead","-1","100same0switch","test",0,TRUE,FALSE,4,FALSE,"3","test"
"Jan 17 2015","16:01:23",25,"Live",1,"Zero",4,"Firefox",10,"Same",1,"Novel53",2,"Novel53",2,68,"down-right-4sec","3","100same0switch","exposure",0,TRUE,FALSE,4,FALSE,"3","test"
"Jan 17 2015","16:01:23",26,"Live",1,"Zero",4,"Firefox",10,"Same",1,"Novel53",2,"Novel53",2,3525,"straight-ahead","-1","100same0switch","test",0,TRUE,FALSE,4,TRUE,"3","test"
"Jan 17 2015","16:01:23",27,"Live",1,"Zero",4,"Firefox",11,"Switch",1,"Novel31",3,"Novel63",0,144,"down-right-4sec","3","100same0switch","exposure",0,TRUE,FALSE,4,TRUE,"3","test"
"Jan 17 2015","16:01:23",28,"Live",1,"Zero",4,"Firefox",11,"Switch",1,"Novel25",1,"Novel63",0,321,"straight-ahead","-1","100same0switch","test",0,TRUE,FALSE,4,FALSE,"3","test"
"Jan 17 2015","16:01:23",29,"Live",1,"Zero",4,"Firefox",12,"Same",0,"Novel74",0,"Novel74",0,254,"up-left-4sec","0","100same0switch","exposure",0,TRUE,FALSE,4,TRUE,"3","test"
"Jan 17 2015","16:01:23",30,"Live",1,"Zero",4,"Firefox",12,"Same",0,"Novel64",2,"Novel74",0,206,"straight-ahead","-1","100same0switch","test",0,TRUE,FALSE,4,FALSE,"3","test"
"Jan 17 2015","16:01:23",31,"Live",1,"Zero",4,"Firefox",13,"Switch",0,"Novel99",3,"Novel38",2,69,"down-right-4sec","3","100same0switch","exposure",0,TRUE,FALSE,4,TRUE,"3","test"
"Jan 17 2015","16:01:23",32,"Live",1,"Zero",4,"Firefox",13,"Switch",0,"Novel133",0,"Novel38",2,87,"straight-ahead","-1","100same0switch","test",0,TRUE,FALSE,4,FALSE,"3","test"
"Jan 17 2015","16:01:23",33,"Live",1,"Zero",4,"Firefox",14,"Same",0,"Novel91",0,"Novel91",0,112,"up-left-4sec","0","100same0switch","exposure",0,TRUE,FALSE,4,TRUE,"3","test"
"Jan 17 2015","16:01:23",34,"Live",1,"Zero",4,"Firefox",14,"Same",0,"Novel91",2,"Novel91",0,111,"straight-ahead","-1","100same0switch","test",0,TRUE,FALSE,4,TRUE,"3","test"
"Jan 17 2015","16:01:23",35,"Live",1,"Zero",4,"Firefox",15,"Switch",1,"Novel72",2,"Novel40",0,4928,"up-right-4sec","1","100same0switch","exposure",0,TRUE,FALSE,4,FALSE,"3","test"
"Jan 17 2015","16:01:23",36,"Live",1,"Zero",4,"Firefox",15,"Switch",1,"Novel11",1,"Novel40",0,410,"straight-ahead","-1","100same0switch","test",0,TRUE,FALSE,4,FALSE,"3","test"
"Jan 17 2015","18:11:04",1,"Live",2,"Zero",4,"Chrome",0,"Switch",1,"squirrel",0,"",0,284,"up-left-4sec","0","0same100switch","example",0,TRUE,FALSE,4,TRUE,"4","familiarization"
"Jan 17 2015","18:11:04",2,"Live",2,"Zero",4,"Chrome",0,"Switch",1,"squirrel",0,"",0,200,"up-left-4sec","0","0same100switch","example",0,TRUE,FALSE,4,TRUE,"4","familiarization"
"Jan 17 2015","18:11:04",3,"Live",2,"Zero",4,"Chrome",0,"Switch",1,"tomato",1,"",0,14,"up-right-4sec","1","0same100switch","example",0,TRUE,FALSE,4,TRUE,"4","familiarization"
"Jan 17 2015","18:11:04",4,"Live",2,"Zero",4,"Chrome",0,"Switch",1,"tomato",2,"",0,239,"down-left-4sec","2","0same100switch","example",0,TRUE,FALSE,4,TRUE,"4","familiarization"
"Jan 17 2015","18:11:04",5,"Live",2,"Zero",4,"Chrome",0,"Switch",1,"Novel95",2,"Novel49",0,386,"down-left-4sec","2","0same100switch","exposure",0,TRUE,FALSE,4,TRUE,"4","familiarization"
"Jan 17 2015","18:11:04",6,"Live",2,"Zero",4,"Chrome",0,"Switch",1,"Novel46",2,"Novel49",0,1824,"straight-ahead","-1","0same100switch","test",0,TRUE,TRUE,4,FALSE,"4","familiarization"
"Jan 17 2015","18:11:04",7,"Live",2,"Zero",4,"Chrome",1,"Switch",1,"Novel44",1,"Novel29",0,924,"up-right-4sec","1","0same100switch","exposure",0,TRUE,FALSE,4,TRUE,"4","familiarization"
"Jan 17 2015","18:11:04",8,"Live",2,"Zero",4,"Chrome",1,"Switch",1,"Novel103",3,"Novel29",0,1098,"straight-ahead","-1","0same100switch","test",0,TRUE,FALSE,4,FALSE,"4","familiarization"
"Jan 17 2015","18:11:04",9,"Live",2,"Zero",4,"Chrome",2,"Switch",0,"Novel112",3,"Novel22",1,787,"down-right-4sec","3","0same100switch","exposure",0,TRUE,FALSE,4,TRUE,"4","familiarization"
"Jan 17 2015","18:11:04",10,"Live",2,"Zero",4,"Chrome",2,"Switch",0,"Novel65",2,"Novel22",1,2427,"straight-ahead","-1","0same100switch","test",0,TRUE,FALSE,4,FALSE,"4","familiarization"
"Jan 17 2015","18:11:04",11,"Live",2,"Zero",4,"Chrome",3,"Switch",0,"Novel54",3,"Novel21",1,354,"down-right-4sec","3","0same100switch","exposure",0,TRUE,FALSE,4,TRUE,"4","familiarization"
"Jan 17 2015","18:11:04",12,"Live",2,"Zero",4,"Chrome",3,"Switch",0,"Novel131",2,"Novel21",1,365,"straight-ahead","-1","0same100switch","test",0,TRUE,FALSE,4,FALSE,"4","familiarization"
"Jan 17 2015","18:11:04",13,"Live",2,"Zero",4,"Chrome",4,"Switch",0,"Novel128",1,"Novel23",2,522,"up-right-4sec","1","0same100switch","exposure",0,TRUE,FALSE,4,TRUE,"4","familiarization"
"Jan 17 2015","18:11:04",14,"Live",2,"Zero",4,"Chrome",4,"Switch",0,"Novel47",0,"Novel23",2,605,"straight-ahead","-1","0same100switch","test",0,TRUE,FALSE,4,FALSE,"4","familiarization"
"Jan 17 2015","18:11:04",15,"Live",2,"Zero",4,"Chrome",5,"Switch",1,"Novel51",2,"Novel105",1,1192,"down-left-4sec","2","0same100switch","exposure",0,TRUE,FALSE,4,TRUE,"4","familiarization"
"Jan 17 2015","18:11:04",16,"Live",2,"Zero",4,"Chrome",5,"Switch",1,"Novel110",3,"Novel105",1,342,"straight-ahead","-1","0same100switch","test",0,TRUE,FALSE,4,FALSE,"4","familiarization"
"Jan 17 2015","18:11:04",17,"Live",2,"Zero",4,"Chrome",6,"Switch",1,"Novel121",0,"Novel140",1,790,"up-left-4sec","0","0same100switch","exposure",0,TRUE,FALSE,4,TRUE,"4","familiarization"
"Jan 17 2015","18:11:04",18,"Live",2,"Zero",4,"Chrome",6,"Switch",1,"Novel92",3,"Novel140",1,558,"straight-ahead","-1","0same100switch","test",0,TRUE,FALSE,4,FALSE,"4","familiarization"
"Jan 17 2015","18:11:04",19,"Live",2,"Zero",4,"Chrome",7,"Switch",0,"Novel58",3,"Novel114",2,425,"down-right-4sec","3","0same100switch","exposure",0,TRUE,FALSE,4,TRUE,"4","familiarization"
"Jan 17 2015","18:11:04",20,"Live",2,"Zero",4,"Chrome",7,"Switch",0,"Novel127",1,"Novel114",2,225,"straight-ahead","-1","0same100switch","test",0,TRUE,FALSE,4,FALSE,"4","familiarization"
"Jan 17 2015","18:11:04",21,"Live",2,"Zero",4,"Chrome",8,"Switch",1,"Novel4",0,"Novel59",1,838,"up-left-4sec","0","0same100switch","exposure",0,TRUE,FALSE,4,TRUE,"4","test"
"Jan 17 2015","18:11:04",22,"Live",2,"Zero",4,"Chrome",8,"Switch",1,"Novel133",3,"Novel59",1,242,"straight-ahead","-1","0same100switch","test",0,TRUE,FALSE,4,FALSE,"4","test"
"Jan 17 2015","18:11:04",23,"Live",2,"Zero",4,"Chrome",9,"Same",1,"Novel108",2,"Novel108",2,554,"down-left-4sec","2","0same100switch","exposure",0,TRUE,FALSE,4,TRUE,"4","test"
"Jan 17 2015","18:11:04",24,"Live",2,"Zero",4,"Chrome",9,"Same",1,"Novel108",2,"Novel108",2,238,"straight-ahead","-1","0same100switch","test",0,TRUE,FALSE,4,TRUE,"4","test"
"Jan 17 2015","18:11:04",25,"Live",2,"Zero",4,"Chrome",10,"Switch",0,"Novel64",3,"Novel81",1,476,"down-right-4sec","3","0same100switch","exposure",0,TRUE,FALSE,4,TRUE,"4","test"
"Jan 17 2015","18:11:04",26,"Live",2,"Zero",4,"Chrome",10,"Switch",0,"Novel81",3,"Novel81",1,683,"straight-ahead","-1","0same100switch","test",0,TRUE,FALSE,4,TRUE,"4","test"
"Jan 17 2015","18:11:04",27,"Live",2,"Zero",4,"Chrome",11,"Same",0,"Novel55",2,"Novel55",2,977,"down-left-4sec","2","0same100switch","exposure",0,TRUE,FALSE,4,TRUE,"4","test"
"Jan 17 2015","18:11:04",28,"Live",2,"Zero",4,"Chrome",11,"Same",0,"Novel55",0,"Novel55",2,63,"straight-ahead","-1","0same100switch","test",0,TRUE,FALSE,4,TRUE,"4","test"
"Jan 17 2015","18:11:04",29,"Live",2,"Zero",4,"Chrome",12,"Switch",0,"Novel12",1,"Novel28",0,679,"up-right-4sec","1","0same100switch","exposure",0,TRUE,FALSE,4,TRUE,"4","test"
"Jan 17 2015","18:11:04",30,"Live",2,"Zero",4,"Chrome",12,"Switch",0,"Novel3",0,"Novel28",0,235,"straight-ahead","-1","0same100switch","test",0,TRUE,FALSE,4,FALSE,"4","test"
"Jan 17 2015","18:11:04",31,"Live",2,"Zero",4,"Chrome",13,"Same",1,"Novel43",2,"Novel43",2,647,"down-left-4sec","2","0same100switch","exposure",0,TRUE,FALSE,4,TRUE,"4","test"
"Jan 17 2015","18:11:04",32,"Live",2,"Zero",4,"Chrome",13,"Same",1,"Novel43",2,"Novel43",2,360,"straight-ahead","-1","0same100switch","test",0,TRUE,FALSE,4,TRUE,"4","test"
"Jan 17 2015","18:11:04",33,"Live",2,"Zero",4,"Chrome",14,"Switch",1,"Novel42",0,"Novel61",2,712,"up-left-4sec","0","0same100switch","exposure",0,TRUE,FALSE,4,TRUE,"4","test"
"Jan 17 2015","18:11:04",34,"Live",2,"Zero",4,"Chrome",14,"Switch",1,"Novel70",0,"Novel61",2,180,"straight-ahead","-1","0same100switch","test",0,TRUE,FALSE,4,FALSE,"4","test"
"Jan 17 2015","18:11:04",35,"Live",2,"Zero",4,"Chrome",15,"Same",0,"Novel6",3,"Novel6",3,701,"down-right-4sec","3","0same100switch","exposure",0,TRUE,FALSE,4,TRUE,"4","test"
"Jan 17 2015","18:11:04",36,"Live",2,"Zero",4,"Chrome",15,"Same",0,"Novel6",1,"Novel6",3,293,"straight-ahead","-1","0same100switch","test",0,TRUE,FALSE,4,TRUE,"4","test"
"Jan 17 2015","17:04:26",1,"Live",1,"Zero",4,"Firefox",0,"Same",1,"squirrel",0,"",0,1208,"up-left-4sec","0","100same0switch","example",0,TRUE,FALSE,4,TRUE,"5","familiarization"
"Jan 17 2015","17:04:26",2,"Live",1,"Zero",4,"Firefox",0,"Same",1,"squirrel",0,"",0,1153,"up-left-4sec","0","100same0switch","example",0,TRUE,FALSE,4,TRUE,"5","familiarization"
"Jan 17 2015","17:04:26",3,"Live",1,"Zero",4,"Firefox",0,"Same",1,"tomato",1,"",0,1462,"up-right-4sec","1","100same0switch","example",0,TRUE,FALSE,4,TRUE,"5","familiarization"
"Jan 17 2015","17:04:26",4,"Live",1,"Zero",4,"Firefox",0,"Same",1,"tomato",2,"",0,1180,"down-left-4sec","2","100same0switch","example",0,TRUE,FALSE,4,TRUE,"5","familiarization"
"Jan 17 2015","17:04:26",5,"Live",1,"Zero",4,"Firefox",0,"Same",1,"Novel131",0,"Novel131",0,3970,"down-left-4sec","2","100same0switch","exposure",0,TRUE,FALSE,4,FALSE,"5","familiarization"
"Jan 17 2015","17:04:26",6,"Live",1,"Zero",4,"Firefox",0,"Same",1,"Novel131",0,"Novel131",0,1611,"straight-ahead","-1","100same0switch","test",0,TRUE,TRUE,4,TRUE,"5","familiarization"
"Jan 17 2015","17:04:26",7,"Live",1,"Zero",4,"Firefox",1,"Same",1,"Novel40",1,"Novel40",1,6534,"up-left-4sec","0","100same0switch","exposure",0,TRUE,FALSE,4,FALSE,"5","familiarization"
"Jan 17 2015","17:04:26",8,"Live",1,"Zero",4,"Firefox",1,"Same",1,"Novel40",1,"Novel40",1,1004,"straight-ahead","-1","100same0switch","test",0,TRUE,FALSE,4,TRUE,"5","familiarization"
"Jan 17 2015","17:04:26",9,"Live",1,"Zero",4,"Firefox",2,"Same",0,"Novel12",1,"Novel12",1,3765,"up-left-4sec","0","100same0switch","exposure",0,TRUE,FALSE,4,FALSE,"5","familiarization"
"Jan 17 2015","17:04:26",10,"Live",1,"Zero",4,"Firefox",2,"Same",0,"Novel12",2,"Novel12",1,2277,"straight-ahead","-1","100same0switch","test",0,TRUE,FALSE,4,TRUE,"5","familiarization"
"Jan 17 2015","17:04:26",11,"Live",1,"Zero",4,"Firefox",3,"Same",1,"Novel70",1,"Novel70",1,2591,"down-left-4sec","2","100same0switch","exposure",0,TRUE,FALSE,4,FALSE,"5","familiarization"
"Jan 17 2015","17:04:26",12,"Live",1,"Zero",4,"Firefox",3,"Same",1,"Novel70",1,"Novel70",1,1233,"straight-ahead","-1","100same0switch","test",0,TRUE,FALSE,4,TRUE,"5","familiarization"
"Jan 17 2015","17:04:26",13,"Live",1,"Zero",4,"Firefox",4,"Same",0,"Novel94",0,"Novel94",0,3323,"down-left-4sec","2","100same0switch","exposure",0,TRUE,FALSE,4,FALSE,"5","familiarization"
"Jan 17 2015","17:04:26",14,"Live",1,"Zero",4,"Firefox",4,"Same",0,"Novel94",1,"Novel94",0,124,"straight-ahead","-1","100same0switch","test",0,TRUE,FALSE,4,TRUE,"5","familiarization"
"Jan 17 2015","17:04:26",15,"Live",1,"Zero",4,"Firefox",5,"Same",0,"Novel34",1,"Novel34",1,4661,"up-left-4sec","0","100same0switch","exposure",0,TRUE,FALSE,4,FALSE,"5","familiarization"
"Jan 17 2015","17:04:26",16,"Live",1,"Zero",4,"Firefox",5,"Same",0,"Novel34",3,"Novel34",1,3141,"straight-ahead","-1","100same0switch","test",0,TRUE,FALSE,4,TRUE,"5","familiarization"
"Jan 17 2015","17:04:26",17,"Live",1,"Zero",4,"Firefox",6,"Same",1,"Novel113",3,"Novel113",3,3086,"down-left-4sec","2","100same0switch","exposure",0,TRUE,FALSE,4,FALSE,"5","familiarization"
"Jan 17 2015","17:04:26",18,"Live",1,"Zero",4,"Firefox",6,"Same",1,"Novel113",3,"Novel113",3,4103,"straight-ahead","-1","100same0switch","test",0,TRUE,FALSE,4,TRUE,"5","familiarization"
"Jan 17 2015","17:04:26",19,"Live",1,"Zero",4,"Firefox",7,"Same",0,"Novel92",1,"Novel92",1,4442,"up-right-4sec","1","100same0switch","exposure",0,TRUE,FALSE,4,TRUE,"5","familiarization"
"Jan 17 2015","17:04:26",20,"Live",1,"Zero",4,"Firefox",7,"Same",0,"Novel92",3,"Novel92",1,629,"straight-ahead","-1","100same0switch","test",0,TRUE,FALSE,4,TRUE,"5","familiarization"
"Jan 17 2015","17:04:26",21,"Live",1,"Zero",4,"Firefox",8,"Switch",1,"Novel108",3,"Novel139",2,4249,"up-left-4sec","0","100same0switch","exposure",0,TRUE,FALSE,4,FALSE,"5","test"
"Jan 17 2015","17:04:26",22,"Live",1,"Zero",4,"Firefox",8,"Switch",1,"Novel46",0,"Novel139",2,11133,"straight-ahead","-1","100same0switch","test",0,TRUE,FALSE,4,FALSE,"5","test"
"Jan 17 2015","17:04:26",23,"Live",1,"Zero",4,"Firefox",9,"Same",1,"Novel107",1,"Novel107",1,2841,"down-left-4sec","2","100same0switch","exposure",0,TRUE,FALSE,4,FALSE,"5","test"
"Jan 17 2015","17:04:26",24,"Live",1,"Zero",4,"Firefox",9,"Same",1,"Novel107",1,"Novel107",1,871,"straight-ahead","-1","100same0switch","test",0,TRUE,FALSE,4,TRUE,"5","test"
"Jan 17 2015","17:04:26",25,"Live",1,"Zero",4,"Firefox",10,"Switch",0,"Novel7",0,"Novel137",1,10760,"up-right-4sec","1","100same0switch","exposure",0,TRUE,FALSE,4,FALSE,"5","test"
"Jan 17 2015","17:04:26",26,"Live",1,"Zero",4,"Firefox",10,"Switch",0,"Novel49",0,"Novel137",1,2381,"straight-ahead","-1","100same0switch","test",0,TRUE,FALSE,4,FALSE,"5","test"
"Jan 17 2015","17:04:26",27,"Live",1,"Zero",4,"Firefox",11,"Same",1,"Novel124",3,"Novel124",3,4124,"down-left-4sec","2","100same0switch","exposure",0,TRUE,FALSE,4,FALSE,"5","test"
"Jan 17 2015","17:04:26",28,"Live",1,"Zero",4,"Firefox",11,"Same",1,"Novel124",3,"Novel124",3,517,"straight-ahead","-1","100same0switch","test",0,TRUE,FALSE,4,TRUE,"5","test"
"Jan 17 2015","17:04:26",29,"Live",1,"Zero",4,"Firefox",12,"Switch",0,"Novel80",0,"Novel121",3,902,"up-right-4sec","1","100same0switch","exposure",0,TRUE,FALSE,4,FALSE,"5","test"
"Jan 17 2015","17:04:26",30,"Live",1,"Zero",4,"Firefox",12,"Switch",0,"Novel16",1,"Novel121",3,198,"straight-ahead","-1","100same0switch","test",0,TRUE,FALSE,4,FALSE,"5","test"
"Jan 17 2015","17:04:26",31,"Live",1,"Zero",4,"Firefox",13,"Same",0,"Novel74",2,"Novel74",2,1160,"up-left-4sec","0","100same0switch","exposure",0,TRUE,FALSE,4,FALSE,"5","test"
"Jan 17 2015","17:04:26",32,"Live",1,"Zero",4,"Firefox",13,"Same",0,"Novel74",3,"Novel74",2,720,"straight-ahead","-1","100same0switch","test",0,TRUE,FALSE,4,TRUE,"5","test"
"Jan 17 2015","17:04:26",33,"Live",1,"Zero",4,"Firefox",14,"Switch",1,"Novel89",1,"Novel93",0,1887,"down-right-4sec","3","100same0switch","exposure",0,TRUE,FALSE,4,FALSE,"5","test"
"Jan 17 2015","17:04:26",34,"Live",1,"Zero",4,"Firefox",14,"Switch",1,"Novel22",3,"Novel93",0,3600,"straight-ahead","-1","100same0switch","test",0,TRUE,FALSE,4,FALSE,"5","test"
"Jan 17 2015","17:04:26",35,"Live",1,"Zero",4,"Firefox",15,"Same",0,"Novel136",3,"Novel136",3,2959,"up-left-4sec","0","100same0switch","exposure",0,TRUE,FALSE,4,FALSE,"5","test"
"Jan 17 2015","17:04:26",36,"Live",1,"Zero",4,"Firefox",15,"Same",0,"Novel136",0,"Novel136",3,1074,"straight-ahead","-1","100same0switch","test",0,TRUE,FALSE,4,TRUE,"5","test"
"Jan 17 2015","16:38:07",1,"Live",1,"Zero",4,"Chrome",0,"Same",1,"squirrel",0,"",0,1446,"up-left-4sec","0","100same0switch","example",0,TRUE,FALSE,4,TRUE,"6","familiarization"
"Jan 17 2015","16:38:07",2,"Live",1,"Zero",4,"Chrome",0,"Same",1,"squirrel",0,"",0,1164,"up-left-4sec","0","100same0switch","example",0,TRUE,FALSE,4,TRUE,"6","familiarization"
"Jan 17 2015","16:38:07",3,"Live",1,"Zero",4,"Chrome",0,"Same",1,"tomato",1,"",0,1265,"up-right-4sec","1","100same0switch","example",0,TRUE,FALSE,4,TRUE,"6","familiarization"
"Jan 17 2015","16:38:07",4,"Live",1,"Zero",4,"Chrome",0,"Same",1,"tomato",2,"",0,995,"down-left-4sec","2","100same0switch","example",0,TRUE,FALSE,4,TRUE,"6","familiarization"
"Jan 17 2015","16:38:07",5,"Live",1,"Zero",4,"Chrome",0,"Same",1,"Novel109",0,"Novel109",0,2191,"up-left-4sec","0","100same0switch","exposure",0,TRUE,FALSE,4,TRUE,"6","familiarization"
"Jan 17 2015","16:38:07",6,"Live",1,"Zero",4,"Chrome",0,"Same",1,"Novel109",0,"Novel109",0,1088,"straight-ahead","-1","100same0switch","test",0,TRUE,TRUE,4,TRUE,"6","familiarization"
"Jan 17 2015","16:38:07",7,"Live",1,"Zero",4,"Chrome",1,"Same",1,"Novel138",2,"Novel138",2,1230,"down-left-4sec","2","100same0switch","exposure",0,TRUE,FALSE,4,TRUE,"6","familiarization"
"Jan 17 2015","16:38:07",8,"Live",1,"Zero",4,"Chrome",1,"Same",1,"Novel138",2,"Novel138",2,937,"straight-ahead","-1","100same0switch","test",0,TRUE,FALSE,4,TRUE,"6","familiarization"
"Jan 17 2015","16:38:07",9,"Live",1,"Zero",4,"Chrome",2,"Same",0,"Novel72",1,"Novel72",1,1402,"up-right-4sec","1","100same0switch","exposure",0,TRUE,FALSE,4,TRUE,"6","familiarization"
"Jan 17 2015","16:38:07",10,"Live",1,"Zero",4,"Chrome",2,"Same",0,"Novel72",3,"Novel72",1,705,"straight-ahead","-1","100same0switch","test",0,TRUE,FALSE,4,TRUE,"6","familiarization"
"Jan 17 2015","16:38:07",11,"Live",1,"Zero",4,"Chrome",3,"Same",1,"Novel82",2,"Novel82",2,1497,"down-left-4sec","2","100same0switch","exposure",0,TRUE,FALSE,4,TRUE,"6","familiarization"
"Jan 17 2015","16:38:07",12,"Live",1,"Zero",4,"Chrome",3,"Same",1,"Novel82",2,"Novel82",2,908,"straight-ahead","-1","100same0switch","test",0,TRUE,FALSE,4,TRUE,"6","familiarization"
"Jan 17 2015","16:38:07",13,"Live",1,"Zero",4,"Chrome",4,"Same",1,"Novel92",0,"Novel92",0,1875,"up-left-4sec","0","100same0switch","exposure",0,TRUE,FALSE,4,TRUE,"6","familiarization"
"Jan 17 2015","16:38:07",14,"Live",1,"Zero",4,"Chrome",4,"Same",1,"Novel92",0,"Novel92",0,649,"straight-ahead","-1","100same0switch","test",0,TRUE,FALSE,4,TRUE,"6","familiarization"
"Jan 17 2015","16:38:07",15,"Live",1,"Zero",4,"Chrome",5,"Same",0,"Novel90",3,"Novel90",3,2342,"down-right-4sec","3","100same0switch","exposure",0,TRUE,FALSE,4,TRUE,"6","familiarization"
"Jan 17 2015","16:38:07",16,"Live",1,"Zero",4,"Chrome",5,"Same",0,"Novel90",1,"Novel90",3,733,"straight-ahead","-1","100same0switch","test",0,TRUE,FALSE,4,TRUE,"6","familiarization"
"Jan 17 2015","16:38:07",17,"Live",1,"Zero",4,"Chrome",6,"Same",0,"Novel74",3,"Novel74",3,1742,"down-right-4sec","3","100same0switch","exposure",0,TRUE,FALSE,4,TRUE,"6","familiarization"
"Jan 17 2015","16:38:07",18,"Live",1,"Zero",4,"Chrome",6,"Same",0,"Novel74",2,"Novel74",3,1015,"straight-ahead","-1","100same0switch","test",0,TRUE,FALSE,4,TRUE,"6","familiarization"
"Jan 17 2015","16:38:07",19,"Live",1,"Zero",4,"Chrome",7,"Same",0,"Novel15",3,"Novel15",3,2335,"down-right-4sec","3","100same0switch","exposure",0,TRUE,FALSE,4,TRUE,"6","familiarization"
"Jan 17 2015","16:38:07",20,"Live",1,"Zero",4,"Chrome",7,"Same",0,"Novel15",0,"Novel15",3,1205,"straight-ahead","-1","100same0switch","test",0,TRUE,FALSE,4,TRUE,"6","familiarization"
"Jan 17 2015","16:38:07",21,"Live",1,"Zero",4,"Chrome",8,"Same",1,"Novel42",0,"Novel42",0,2231,"up-left-4sec","0","100same0switch","exposure",0,TRUE,FALSE,4,TRUE,"6","test"
"Jan 17 2015","16:38:07",22,"Live",1,"Zero",4,"Chrome",8,"Same",1,"Novel42",0,"Novel42",0,2238,"straight-ahead","-1","100same0switch","test",0,TRUE,FALSE,4,TRUE,"6","test"
"Jan 17 2015","16:38:07",23,"Live",1,"Zero",4,"Chrome",9,"Switch",1,"Novel80",3,"Novel119",1,2662,"down-right-4sec","3","100same0switch","exposure",0,TRUE,FALSE,4,TRUE,"6","test"
"Jan 17 2015","16:38:07",24,"Live",1,"Zero",4,"Chrome",9,"Switch",1,"Novel119",1,"Novel119",1,2820,"straight-ahead","-1","100same0switch","test",0,TRUE,FALSE,4,TRUE,"6","test"
"Jan 17 2015","16:38:07",25,"Live",1,"Zero",4,"Chrome",10,"Same",0,"Novel49",0,"Novel49",0,1589,"up-left-4sec","0","100same0switch","exposure",0,TRUE,FALSE,4,TRUE,"6","test"
"Jan 17 2015","16:38:07",26,"Live",1,"Zero",4,"Chrome",10,"Same",0,"Novel49",1,"Novel49",0,527,"straight-ahead","-1","100same0switch","test",0,TRUE,FALSE,4,TRUE,"6","test"
"Jan 17 2015","16:38:07",27,"Live",1,"Zero",4,"Chrome",11,"Switch",1,"Novel14",1,"Novel70",0,2753,"up-right-4sec","1","100same0switch","exposure",0,TRUE,FALSE,4,TRUE,"6","test"
"Jan 17 2015","16:38:07",28,"Live",1,"Zero",4,"Chrome",11,"Switch",1,"Novel29",3,"Novel70",0,5081,"straight-ahead","-1","100same0switch","test",0,TRUE,FALSE,4,FALSE,"6","test"
"Jan 17 2015","16:38:07",29,"Live",1,"Zero",4,"Chrome",12,"Same",1,"Novel85",3,"Novel85",3,2855,"down-right-4sec","3","100same0switch","exposure",0,TRUE,FALSE,4,TRUE,"6","test"
"Jan 17 2015","16:38:07",30,"Live",1,"Zero",4,"Chrome",12,"Same",1,"Novel85",3,"Novel85",3,759,"straight-ahead","-1","100same0switch","test",0,TRUE,FALSE,4,TRUE,"6","test"
"Jan 17 2015","16:38:07",31,"Live",1,"Zero",4,"Chrome",13,"Switch",0,"Novel8",0,"Novel68",3,1560,"up-left-4sec","0","100same0switch","exposure",0,TRUE,FALSE,4,TRUE,"6","test"
"Jan 17 2015","16:38:07",32,"Live",1,"Zero",4,"Chrome",13,"Switch",0,"Novel126",2,"Novel68",3,1422,"straight-ahead","-1","100same0switch","test",0,TRUE,FALSE,4,FALSE,"6","test"
"Jan 17 2015","16:38:07",33,"Live",1,"Zero",4,"Chrome",14,"Same",0,"Novel89",3,"Novel89",3,1317,"down-right-4sec","3","100same0switch","exposure",0,TRUE,FALSE,4,TRUE,"6","test"
"Jan 17 2015","16:38:07",34,"Live",1,"Zero",4,"Chrome",14,"Same",0,"Novel89",2,"Novel89",3,717,"straight-ahead","-1","100same0switch","test",0,TRUE,FALSE,4,TRUE,"6","test"
"Jan 17 2015","16:38:07",35,"Live",1,"Zero",4,"Chrome",15,"Switch",0,"Novel46",1,"Novel116",3,2494,"up-right-4sec","1","100same0switch","exposure",0,TRUE,FALSE,4,TRUE,"6","test"
"Jan 17 2015","16:38:07",36,"Live",1,"Zero",4,"Chrome",15,"Switch",0,"Novel84",0,"Novel116",3,5042,"straight-ahead","-1","100same0switch","test",0,TRUE,FALSE,4,FALSE,"6","test"
"Jan 17 2015","16:07:25",1,"Live",2,"Zero",4,"Chrome",0,"Switch",1,"squirrel",0,"",0,4318,"up-left-4sec","0","0same100switch","example",0,TRUE,FALSE,4,TRUE,"7","familiarization"
"Jan 17 2015","16:07:25",2,"Live",2,"Zero",4,"Chrome",0,"Switch",1,"squirrel",0,"",0,202,"up-left-4sec","0","0same100switch","example",0,TRUE,FALSE,4,TRUE,"7","familiarization"
"Jan 17 2015","16:07:25",3,"Live",2,"Zero",4,"Chrome",0,"Switch",1,"tomato",1,"",0,373,"up-right-4sec","1","0same100switch","example",0,TRUE,FALSE,4,TRUE,"7","familiarization"
"Jan 17 2015","16:07:25",4,"Live",2,"Zero",4,"Chrome",0,"Switch",1,"tomato",2,"",0,1400,"down-left-4sec","2","0same100switch","example",0,TRUE,FALSE,4,TRUE,"7","familiarization"
"Jan 17 2015","16:07:25",5,"Live",2,"Zero",4,"Chrome",0,"Switch",1,"Novel104",0,"Novel31",3,1316,"up-left-4sec","0","0same100switch","exposure",0,TRUE,FALSE,4,TRUE,"7","familiarization"
"Jan 17 2015","16:07:25",6,"Live",2,"Zero",4,"Chrome",0,"Switch",1,"Novel38",1,"Novel31",3,3084,"straight-ahead","-1","0same100switch","test",0,TRUE,TRUE,4,FALSE,"7","familiarization"
"Jan 17 2015","16:07:25",7,"Live",2,"Zero",4,"Chrome",1,"Switch",0,"Novel99",1,"Novel94",2,504,"up-right-4sec","1","0same100switch","exposure",0,TRUE,FALSE,4,TRUE,"7","familiarization"
"Jan 17 2015","16:07:25",8,"Live",2,"Zero",4,"Chrome",1,"Switch",0,"Novel127",1,"Novel94",2,207,"straight-ahead","-1","0same100switch","test",0,TRUE,FALSE,4,FALSE,"7","familiarization"
"Jan 17 2015","16:07:25",9,"Live",2,"Zero",4,"Chrome",2,"Switch",1,"Novel42",3,"Novel6",1,168,"down-right-4sec","3","0same100switch","exposure",0,TRUE,FALSE,4,TRUE,"7","familiarization"
"Jan 17 2015","16:07:25",10,"Live",2,"Zero",4,"Chrome",2,"Switch",1,"Novel50",3,"Novel6",1,823,"straight-ahead","-1","0same100switch","test",0,TRUE,FALSE,4,FALSE,"7","familiarization"
"Jan 17 2015","16:07:25",11,"Live",2,"Zero",4,"Chrome",3,"Switch",1,"Novel5",0,"Novel133",1,312,"up-left-4sec","0","0same100switch","exposure",0,TRUE,FALSE,4,TRUE,"7","familiarization"
"Jan 17 2015","16:07:25",12,"Live",2,"Zero",4,"Chrome",3,"Switch",1,"Novel85",0,"Novel133",1,481,"straight-ahead","-1","0same100switch","test",0,TRUE,FALSE,4,FALSE,"7","familiarization"
"Jan 17 2015","16:07:25",13,"Live",2,"Zero",4,"Chrome",4,"Switch",0,"Novel116",0,"Novel11",2,4782,"up-left-4sec","0","0same100switch","exposure",0,TRUE,FALSE,4,TRUE,"7","familiarization"
"Jan 17 2015","16:07:25",14,"Live",2,"Zero",4,"Chrome",4,"Switch",0,"Novel17",3,"Novel11",2,105,"straight-ahead","-1","0same100switch","test",0,TRUE,FALSE,4,FALSE,"7","familiarization"
"Jan 17 2015","16:07:25",15,"Live",2,"Zero",4,"Chrome",5,"Switch",1,"Novel137",1,"Novel28",2,161,"up-right-4sec","1","0same100switch","exposure",0,TRUE,FALSE,4,TRUE,"7","familiarization"
"Jan 17 2015","16:07:25",16,"Live",2,"Zero",4,"Chrome",5,"Switch",1,"Novel68",1,"Novel28",2,591,"straight-ahead","-1","0same100switch","test",0,TRUE,FALSE,4,FALSE,"7","familiarization"
"Jan 17 2015","16:07:25",17,"Live",2,"Zero",4,"Chrome",6,"Switch",0,"Novel12",3,"Novel129",2,234,"down-right-4sec","3","0same100switch","exposure",0,TRUE,FALSE,4,TRUE,"7","familiarization"
"Jan 17 2015","16:07:25",18,"Live",2,"Zero",4,"Chrome",6,"Switch",0,"Novel80",3,"Novel129",2,4071,"straight-ahead","-1","0same100switch","test",0,TRUE,FALSE,4,FALSE,"7","familiarization"
"Jan 17 2015","16:07:25",19,"Live",2,"Zero",4,"Chrome",7,"Switch",0,"Novel26",1,"Novel37",3,1384,"up-right-4sec","1","0same100switch","exposure",0,TRUE,FALSE,4,TRUE,"7","familiarization"
"Jan 17 2015","16:07:25",20,"Live",2,"Zero",4,"Chrome",7,"Switch",0,"Novel37",1,"Novel37",3,21038,"straight-ahead","-1","0same100switch","test",0,TRUE,FALSE,4,TRUE,"7","familiarization"
"Jan 17 2015","16:07:25",21,"Live",2,"Zero",4,"Chrome",8,"Switch",1,"Novel108",1,"Novel41",2,266,"up-right-4sec","1","0same100switch","exposure",0,TRUE,FALSE,4,TRUE,"7","test"
"Jan 17 2015","16:07:25",22,"Live",2,"Zero",4,"Chrome",8,"Switch",1,"Novel59",3,"Novel41",2,1112,"straight-ahead","-1","0same100switch","test",0,TRUE,FALSE,4,FALSE,"7","test"
"Jan 17 2015","16:07:25",23,"Live",2,"Zero",4,"Chrome",9,"Same",0,"Novel24",2,"Novel24",2,174,"down-left-4sec","2","0same100switch","exposure",0,TRUE,FALSE,4,TRUE,"7","test"
"Jan 17 2015","16:07:25",24,"Live",2,"Zero",4,"Chrome",9,"Same",0,"Novel128",2,"Novel24",2,814,"straight-ahead","-1","0same100switch","test",0,TRUE,FALSE,4,FALSE,"7","test"
"Jan 17 2015","16:07:25",25,"Live",2,"Zero",4,"Chrome",10,"Switch",1,"Novel103",3,"Novel35",1,141,"down-right-4sec","3","0same100switch","exposure",0,TRUE,FALSE,4,TRUE,"7","test"
"Jan 17 2015","16:07:25",26,"Live",2,"Zero",4,"Chrome",10,"Switch",1,"Novel119",2,"Novel35",1,1118,"straight-ahead","-1","0same100switch","test",0,TRUE,FALSE,4,FALSE,"7","test"
"Jan 17 2015","16:07:25",27,"Live",2,"Zero",4,"Chrome",11,"Same",1,"Novel135",3,"Novel135",3,2168,"down-right-4sec","3","0same100switch","exposure",0,TRUE,FALSE,4,TRUE,"7","test"
"Jan 17 2015","16:07:25",28,"Live",2,"Zero",4,"Chrome",11,"Same",1,"Novel135",3,"Novel135",3,114,"straight-ahead","-1","0same100switch","test",0,TRUE,FALSE,4,TRUE,"7","test"
"Jan 17 2015","16:07:25",29,"Live",2,"Zero",4,"Chrome",12,"Switch",0,"Novel33",0,"Novel19",2,2187,"up-left-4sec","0","0same100switch","exposure",0,TRUE,FALSE,4,TRUE,"7","test"
"Jan 17 2015","16:07:25",30,"Live",2,"Zero",4,"Chrome",12,"Switch",0,"Novel25",3,"Novel19",2,218,"straight-ahead","-1","0same100switch","test",0,TRUE,FALSE,4,FALSE,"7","test"
"Jan 17 2015","16:07:25",31,"Live",2,"Zero",4,"Chrome",13,"Same",1,"Novel100",3,"Novel100",3,1149,"down-right-4sec","3","0same100switch","exposure",0,TRUE,FALSE,4,TRUE,"7","test"
"Jan 17 2015","16:07:25",32,"Live",2,"Zero",4,"Chrome",13,"Same",1,"Novel100",3,"Novel100",3,740,"straight-ahead","-1","0same100switch","test",0,TRUE,FALSE,4,TRUE,"7","test"
"Jan 17 2015","16:07:25",33,"Live",2,"Zero",4,"Chrome",14,"Switch",0,"Novel58",0,"Novel114",1,1130,"up-left-4sec","0","0same100switch","exposure",0,TRUE,FALSE,4,TRUE,"7","test"
"Jan 17 2015","16:07:25",34,"Live",2,"Zero",4,"Chrome",14,"Switch",0,"Novel123",1,"Novel114",1,1246,"straight-ahead","-1","0same100switch","test",0,TRUE,FALSE,4,FALSE,"7","test"
"Jan 17 2015","16:07:25",35,"Live",2,"Zero",4,"Chrome",15,"Same",0,"Novel34",1,"Novel34",1,818,"up-right-4sec","1","0same100switch","exposure",0,TRUE,FALSE,4,TRUE,"7","test"
"Jan 17 2015","16:07:25",36,"Live",2,"Zero",4,"Chrome",15,"Same",0,"Novel34",0,"Novel34",1,112,"straight-ahead","-1","0same100switch","test",0,TRUE,FALSE,4,TRUE,"7","test"
"Jan 17 2015","17:47:31",1,"Live",1,"Zero",4,"Chrome",0,"Same",1,"squirrel",0,"",0,5429,"up-left-4sec","0","100same0switch","example",0,TRUE,FALSE,4,TRUE,"8","familiarization"
"Jan 17 2015","17:47:31",2,"Live",1,"Zero",4,"Chrome",0,"Same",1,"squirrel",0,"",0,796,"up-left-4sec","0","100same0switch","example",0,TRUE,FALSE,4,TRUE,"8","familiarization"
"Jan 17 2015","17:47:31",3,"Live",1,"Zero",4,"Chrome",0,"Same",1,"tomato",1,"",0,406,"up-right-4sec","1","100same0switch","example",0,TRUE,FALSE,4,TRUE,"8","familiarization"
"Jan 17 2015","17:47:31",4,"Live",1,"Zero",4,"Chrome",0,"Same",1,"tomato",2,"",0,4044,"down-left-4sec","2","100same0switch","example",0,TRUE,FALSE,4,TRUE,"8","familiarization"
"Jan 17 2015","17:47:31",5,"Live",1,"Zero",4,"Chrome",0,"Same",1,"Novel53",3,"Novel53",3,4962,"down-right-4sec","3","100same0switch","exposure",0,TRUE,FALSE,4,TRUE,"8","familiarization"
"Jan 17 2015","17:47:31",6,"Live",1,"Zero",4,"Chrome",0,"Same",1,"Novel53",3,"Novel53",3,4694,"straight-ahead","-1","100same0switch","test",0,TRUE,TRUE,4,TRUE,"8","familiarization"
"Jan 17 2015","17:47:31",7,"Live",1,"Zero",4,"Chrome",1,"Same",1,"Novel48",0,"Novel48",0,4936,"up-left-4sec","0","100same0switch","exposure",0,TRUE,FALSE,4,TRUE,"8","familiarization"
"Jan 17 2015","17:47:31",8,"Live",1,"Zero",4,"Chrome",1,"Same",1,"Novel48",0,"Novel48",0,1068,"straight-ahead","-1","100same0switch","test",0,TRUE,FALSE,4,TRUE,"8","familiarization"
"Jan 17 2015","17:47:31",9,"Live",1,"Zero",4,"Chrome",2,"Same",0,"Novel22",1,"Novel22",1,514,"up-right-4sec","1","100same0switch","exposure",0,TRUE,FALSE,4,TRUE,"8","familiarization"
"Jan 17 2015","17:47:31",10,"Live",1,"Zero",4,"Chrome",2,"Same",0,"Novel22",3,"Novel22",1,2771,"straight-ahead","-1","100same0switch","test",0,TRUE,FALSE,4,TRUE,"8","familiarization"
"Jan 17 2015","17:47:31",11,"Live",1,"Zero",4,"Chrome",3,"Same",0,"Novel31",1,"Novel31",1,890,"up-right-4sec","1","100same0switch","exposure",0,TRUE,FALSE,4,TRUE,"8","familiarization"
"Jan 17 2015","17:47:31",12,"Live",1,"Zero",4,"Chrome",3,"Same",0,"Novel31",2,"Novel31",1,65,"straight-ahead","-1","100same0switch","test",0,TRUE,FALSE,4,TRUE,"8","familiarization"
"Jan 17 2015","17:47:31",13,"Live",1,"Zero",4,"Chrome",4,"Same",0,"Novel93",1,"Novel93",1,554,"up-right-4sec","1","100same0switch","exposure",0,TRUE,FALSE,4,TRUE,"8","familiarization"
"Jan 17 2015","17:47:31",14,"Live",1,"Zero",4,"Chrome",4,"Same",0,"Novel93",3,"Novel93",1,370,"straight-ahead","-1","100same0switch","test",0,TRUE,FALSE,4,TRUE,"8","familiarization"
"Jan 17 2015","17:47:31",15,"Live",1,"Zero",4,"Chrome",5,"Same",1,"Novel4",0,"Novel4",0,1445,"up-left-4sec","0","100same0switch","exposure",0,TRUE,FALSE,4,TRUE,"8","familiarization"
"Jan 17 2015","17:47:31",16,"Live",1,"Zero",4,"Chrome",5,"Same",1,"Novel4",0,"Novel4",0,402,"straight-ahead","-1","100same0switch","test",0,TRUE,FALSE,4,TRUE,"8","familiarization"
"Jan 17 2015","17:47:31",17,"Live",1,"Zero",4,"Chrome",6,"Same",1,"Novel132",2,"Novel132",2,2429,"down-left-4sec","2","100same0switch","exposure",0,TRUE,FALSE,4,TRUE,"8","familiarization"
"Jan 17 2015","17:47:31",18,"Live",1,"Zero",4,"Chrome",6,"Same",1,"Novel132",2,"Novel132",2,2419,"straight-ahead","-1","100same0switch","test",0,TRUE,FALSE,4,TRUE,"8","familiarization"
"Jan 17 2015","17:47:31",19,"Live",1,"Zero",4,"Chrome",7,"Same",0,"Novel76",1,"Novel76",1,8137,"up-left-4sec","0","100same0switch","exposure",0,TRUE,FALSE,4,FALSE,"8","familiarization"
"Jan 17 2015","17:47:31",20,"Live",1,"Zero",4,"Chrome",7,"Same",0,"Novel76",0,"Novel76",1,251,"straight-ahead","-1","100same0switch","test",0,TRUE,FALSE,4,TRUE,"8","familiarization"
"Jan 17 2015","17:47:31",21,"Live",1,"Zero",4,"Chrome",8,"Switch",1,"Novel45",1,"Novel92",3,584,"up-right-4sec","1","100same0switch","exposure",0,TRUE,FALSE,4,TRUE,"8","test"
"Jan 17 2015","17:47:31",22,"Live",1,"Zero",4,"Chrome",8,"Switch",1,"Novel44",0,"Novel92",3,2002,"straight-ahead","-1","100same0switch","test",0,TRUE,FALSE,4,FALSE,"8","test"
"Jan 17 2015","17:47:31",23,"Live",1,"Zero",4,"Chrome",9,"Same",1,"Novel106",2,"Novel106",2,351,"down-left-4sec","2","100same0switch","exposure",0,TRUE,FALSE,4,TRUE,"8","test"
"Jan 17 2015","17:47:31",24,"Live",1,"Zero",4,"Chrome",9,"Same",1,"Novel106",2,"Novel106",2,173,"straight-ahead","-1","100same0switch","test",0,TRUE,FALSE,4,TRUE,"8","test"
"Jan 17 2015","17:47:31",25,"Live",1,"Zero",4,"Chrome",10,"Switch",0,"Novel109",0,"Novel139",2,424,"up-left-4sec","0","100same0switch","exposure",0,TRUE,FALSE,4,TRUE,"8","test"
"Jan 17 2015","17:47:31",26,"Live",1,"Zero",4,"Chrome",10,"Switch",0,"Novel139",3,"Novel139",2,424,"straight-ahead","-1","100same0switch","test",0,TRUE,FALSE,4,TRUE,"8","test"
"Jan 17 2015","17:47:31",27,"Live",1,"Zero",4,"Chrome",11,"Same",0,"Novel72",0,"Novel72",0,149,"up-left-4sec","0","100same0switch","exposure",0,TRUE,FALSE,4,TRUE,"8","test"
"Jan 17 2015","17:47:31",28,"Live",1,"Zero",4,"Chrome",11,"Same",0,"Novel72",3,"Novel72",0,61,"straight-ahead","-1","100same0switch","test",0,TRUE,FALSE,4,TRUE,"8","test"
"Jan 17 2015","17:47:31",29,"Live",1,"Zero",4,"Chrome",12,"Switch",0,"Novel81",1,"Novel117",2,3023,"up-right-4sec","1","100same0switch","exposure",0,TRUE,FALSE,4,TRUE,"8","test"
"Jan 17 2015","17:47:31",30,"Live",1,"Zero",4,"Chrome",12,"Switch",0,"Novel9",3,"Novel117",2,558,"straight-ahead","-1","100same0switch","test",0,TRUE,FALSE,4,FALSE,"8","test"
"Jan 17 2015","17:47:31",31,"Live",1,"Zero",4,"Chrome",13,"Same",1,"Novel61",3,"Novel61",3,123,"down-right-4sec","3","100same0switch","exposure",0,TRUE,FALSE,4,TRUE,"8","test"
"Jan 17 2015","17:47:31",32,"Live",1,"Zero",4,"Chrome",13,"Same",1,"Novel61",3,"Novel61",3,347,"straight-ahead","-1","100same0switch","test",0,TRUE,FALSE,4,TRUE,"8","test"
"Jan 17 2015","17:47:31",33,"Live",1,"Zero",4,"Chrome",14,"Switch",1,"Novel131",3,"Novel67",0,2016,"down-right-4sec","3","100same0switch","exposure",0,TRUE,FALSE,4,TRUE,"8","test"
"Jan 17 2015","17:47:31",34,"Live",1,"Zero",4,"Chrome",14,"Switch",1,"Novel79",2,"Novel67",0,3415,"straight-ahead","-1","100same0switch","test",0,TRUE,FALSE,4,FALSE,"8","test"
"Jan 17 2015","17:47:31",35,"Live",1,"Zero",4,"Chrome",15,"Same",0,"Novel121",3,"Novel121",3,995,"down-right-4sec","3","100same0switch","exposure",0,TRUE,FALSE,4,TRUE,"8","test"
"Jan 17 2015","17:47:31",36,"Live",1,"Zero",4,"Chrome",15,"Same",0,"Novel121",0,"Novel121",3,134,"straight-ahead","-1","100same0switch","test",0,TRUE,FALSE,4,TRUE,"8","test"
"Jan 17 2015","17:51:52",1,"Live",2,"Zero",4,"Chrome",0,"Switch",1,"squirrel",0,"",0,399,"up-left-4sec","0","0same100switch","example",0,TRUE,FALSE,4,TRUE,"9","familiarization"
"Jan 17 2015","17:51:52",2,"Live",2,"Zero",4,"Chrome",0,"Switch",1,"squirrel",0,"",0,511,"up-left-4sec","0","0same100switch","example",0,TRUE,FALSE,4,TRUE,"9","familiarization"
"Jan 17 2015","17:51:52",3,"Live",2,"Zero",4,"Chrome",0,"Switch",1,"tomato",1,"",0,1621,"up-right-4sec","1","0same100switch","example",0,TRUE,FALSE,4,TRUE,"9","familiarization"
"Jan 17 2015","17:51:52",4,"Live",2,"Zero",4,"Chrome",0,"Switch",1,"tomato",2,"",0,108,"down-left-4sec","2","0same100switch","example",0,TRUE,FALSE,4,TRUE,"9","familiarization"
"Jan 17 2015","17:51:52",5,"Live",2,"Zero",4,"Chrome",0,"Switch",1,"Novel64",2,"Novel78",0,1321,"down-left-4sec","2","0same100switch","exposure",0,TRUE,FALSE,4,TRUE,"9","familiarization"
"Jan 17 2015","17:51:52",6,"Live",2,"Zero",4,"Chrome",0,"Switch",1,"Novel13",2,"Novel78",0,1048,"straight-ahead","-1","0same100switch","test",0,TRUE,TRUE,4,FALSE,"9","familiarization"
"Jan 17 2015","17:51:52",7,"Live",2,"Zero",4,"Chrome",1,"Switch",1,"Novel3",3,"Novel103",2,1725,"down-right-4sec","3","0same100switch","exposure",0,TRUE,FALSE,4,TRUE,"9","familiarization"
"Jan 17 2015","17:51:52",8,"Live",2,"Zero",4,"Chrome",1,"Switch",1,"Novel103",2,"Novel103",2,4150,"straight-ahead","-1","0same100switch","test",0,TRUE,FALSE,4,TRUE,"9","familiarization"
"Jan 17 2015","17:51:52",9,"Live",2,"Zero",4,"Chrome",2,"Switch",0,"Novel86",1,"Novel135",3,1021,"up-right-4sec","1","0same100switch","exposure",0,TRUE,FALSE,4,TRUE,"9","familiarization"
"Jan 17 2015","17:51:52",10,"Live",2,"Zero",4,"Chrome",2,"Switch",0,"Novel55",3,"Novel135",3,1806,"straight-ahead","-1","0same100switch","test",0,TRUE,FALSE,4,FALSE,"9","familiarization"
"Jan 17 2015","17:51:52",11,"Live",2,"Zero",4,"Chrome",3,"Switch",0,"Novel133",0,"Novel131",2,2659,"up-left-4sec","0","0same100switch","exposure",0,TRUE,FALSE,4,TRUE,"9","familiarization"
"Jan 17 2015","17:51:52",12,"Live",2,"Zero",4,"Chrome",3,"Switch",0,"Novel51",3,"Novel131",2,2517,"straight-ahead","-1","0same100switch","test",0,TRUE,FALSE,4,FALSE,"9","familiarization"
"Jan 17 2015","17:51:52",13,"Live",2,"Zero",4,"Chrome",4,"Switch",0,"Novel71",0,"Novel9",2,1307,"up-left-4sec","0","0same100switch","exposure",0,TRUE,FALSE,4,TRUE,"9","familiarization"
"Jan 17 2015","17:51:52",14,"Live",2,"Zero",4,"Chrome",4,"Switch",0,"Novel126",1,"Novel9",2,7725,"straight-ahead","-1","0same100switch","test",0,TRUE,FALSE,4,FALSE,"9","familiarization"
"Jan 17 2015","17:51:52",15,"Live",2,"Zero",4,"Chrome",5,"Switch",0,"Novel68",3,"Novel108",1,740,"down-right-4sec","3","0same100switch","exposure",0,TRUE,FALSE,4,TRUE,"9","familiarization"
"Jan 17 2015","17:51:52",16,"Live",2,"Zero",4,"Chrome",5,"Switch",0,"Novel102",0,"Novel108",1,2118,"straight-ahead","-1","0same100switch","test",0,TRUE,FALSE,4,FALSE,"9","familiarization"
"Jan 17 2015","17:51:52",17,"Live",2,"Zero",4,"Chrome",6,"Switch",1,"Novel81",0,"Novel106",3,651,"up-left-4sec","0","0same100switch","exposure",0,TRUE,FALSE,4,TRUE,"9","familiarization"
"Jan 17 2015","17:51:52",18,"Live",2,"Zero",4,"Chrome",6,"Switch",1,"Novel27",2,"Novel106",3,4050,"straight-ahead","-1","0same100switch","test",0,TRUE,FALSE,4,FALSE,"9","familiarization"
"Jan 17 2015","17:51:52",19,"Live",2,"Zero",4,"Chrome",7,"Switch",1,"Novel42",1,"Novel107",3,514,"up-right-4sec","1","0same100switch","exposure",0,TRUE,FALSE,4,TRUE,"9","familiarization"
"Jan 17 2015","17:51:52",20,"Live",2,"Zero",4,"Chrome",7,"Switch",1,"Novel107",3,"Novel107",3,2085,"straight-ahead","-1","0same100switch","test",0,TRUE,FALSE,4,TRUE,"9","familiarization"
"Jan 17 2015","17:51:52",21,"Live",2,"Zero",4,"Chrome",8,"Switch",1,"Novel137",1,"Novel49",2,702,"up-right-4sec","1","0same100switch","exposure",0,TRUE,FALSE,4,TRUE,"9","test"
"Jan 17 2015","17:51:52",22,"Live",2,"Zero",4,"Chrome",8,"Switch",1,"Novel76",3,"Novel49",2,1309,"straight-ahead","-1","0same100switch","test",0,TRUE,FALSE,4,FALSE,"9","test"
"Jan 17 2015","17:51:52",23,"Live",2,"Zero",4,"Chrome",9,"Same",1,"Novel112",3,"Novel112",3,841,"down-right-4sec","3","0same100switch","exposure",0,TRUE,FALSE,4,TRUE,"9","test"
"Jan 17 2015","17:51:52",24,"Live",2,"Zero",4,"Chrome",9,"Same",1,"Novel112",3,"Novel112",3,489,"straight-ahead","-1","0same100switch","test",0,TRUE,FALSE,4,TRUE,"9","test"
"Jan 17 2015","17:51:52",25,"Live",2,"Zero",4,"Chrome",10,"Switch",0,"Novel88",3,"Novel28",2,321,"down-right-4sec","3","0same100switch","exposure",0,TRUE,FALSE,4,TRUE,"9","test"
"Jan 17 2015","17:51:52",26,"Live",2,"Zero",4,"Chrome",10,"Switch",0,"Novel28",0,"Novel28",2,3417,"straight-ahead","-1","0same100switch","test",0,TRUE,FALSE,4,TRUE,"9","test"
"Jan 17 2015","17:51:52",27,"Live",2,"Zero",4,"Chrome",11,"Same",0,"Novel59",3,"Novel59",3,525,"down-right-4sec","3","0same100switch","exposure",0,TRUE,FALSE,4,TRUE,"9","test"
"Jan 17 2015","17:51:52",28,"Live",2,"Zero",4,"Chrome",11,"Same",0,"Novel59",2,"Novel59",3,329,"straight-ahead","-1","0same100switch","test",0,TRUE,FALSE,4,TRUE,"9","test"
"Jan 17 2015","17:51:52",29,"Live",2,"Zero",4,"Chrome",12,"Switch",0,"Novel5",2,"Novel77",1,668,"down-left-4sec","2","0same100switch","exposure",0,TRUE,FALSE,4,TRUE,"9","test"
"Jan 17 2015","17:51:52",30,"Live",2,"Zero",4,"Chrome",12,"Switch",0,"Novel77",3,"Novel77",1,2760,"straight-ahead","-1","0same100switch","test",0,TRUE,FALSE,4,TRUE,"9","test"
"Jan 17 2015","17:51:52",31,"Live",2,"Zero",4,"Chrome",13,"Same",0,"Novel20",0,"Novel20",0,878,"up-left-4sec","0","0same100switch","exposure",0,TRUE,FALSE,4,TRUE,"9","test"
"Jan 17 2015","17:51:52",32,"Live",2,"Zero",4,"Chrome",13,"Same",0,"Novel20",2,"Novel20",0,383,"straight-ahead","-1","0same100switch","test",0,TRUE,FALSE,4,TRUE,"9","test"
"Jan 17 2015","17:51:52",33,"Live",2,"Zero",4,"Chrome",14,"Switch",1,"Novel85",1,"Novel134",3,457,"up-right-4sec","1","0same100switch","exposure",0,TRUE,FALSE,4,TRUE,"9","test"
"Jan 17 2015","17:51:52",34,"Live",2,"Zero",4,"Chrome",14,"Switch",1,"Novel128",1,"Novel134",3,3547,"straight-ahead","-1","0same100switch","test",0,TRUE,FALSE,4,FALSE,"9","test"
"Jan 17 2015","17:51:52",35,"Live",2,"Zero",4,"Chrome",15,"Same",1,"Novel47",2,"Novel47",2,942,"down-left-4sec","2","0same100switch","exposure",0,TRUE,FALSE,4,TRUE,"9","test"
"Jan 17 2015","17:51:52",36,"Live",2,"Zero",4,"Chrome",15,"Same",1,"Novel47",2,"Novel47",2,391,"straight-ahead","-1","0same100switch","test",0,TRUE,FALSE,4,TRUE,"9","test"
"Jan 17 2015","16:54:31",1,"Live",1,"Zero",4,"Chrome",0,"Same",0,"squirrel",0,"",0,1824,"up-left-4sec","0","100same0switch","example",0,TRUE,FALSE,4,TRUE,"10","familiarization"
"Jan 17 2015","16:54:31",2,"Live",1,"Zero",4,"Chrome",0,"Same",0,"squirrel",0,"",0,760,"up-left-4sec","0","100same0switch","example",0,TRUE,FALSE,4,TRUE,"10","familiarization"
"Jan 17 2015","16:54:31",3,"Live",1,"Zero",4,"Chrome",0,"Same",0,"tomato",1,"",0,1103,"up-right-4sec","1","100same0switch","example",0,TRUE,FALSE,4,TRUE,"10","familiarization"
"Jan 17 2015","16:54:31",4,"Live",1,"Zero",4,"Chrome",0,"Same",0,"tomato",2,"",0,616,"down-left-4sec","2","100same0switch","example",0,TRUE,FALSE,4,TRUE,"10","familiarization"
"Jan 17 2015","16:54:31",5,"Live",1,"Zero",4,"Chrome",0,"Same",0,"Novel83",1,"Novel83",1,549,"up-right-4sec","1","100same0switch","exposure",0,TRUE,FALSE,4,TRUE,"10","familiarization"
"Jan 17 2015","16:54:31",6,"Live",1,"Zero",4,"Chrome",0,"Same",0,"Novel83",0,"Novel83",1,361,"straight-ahead","-1","100same0switch","test",0,TRUE,TRUE,4,TRUE,"10","familiarization"
"Jan 17 2015","16:54:31",7,"Live",1,"Zero",4,"Chrome",1,"Same",1,"Novel99",2,"Novel99",2,888,"down-left-4sec","2","100same0switch","exposure",0,TRUE,FALSE,4,TRUE,"10","familiarization"
"Jan 17 2015","16:54:31",8,"Live",1,"Zero",4,"Chrome",1,"Same",1,"Novel99",2,"Novel99",2,175,"straight-ahead","-1","100same0switch","test",0,TRUE,FALSE,4,TRUE,"10","familiarization"
"Jan 17 2015","16:54:31",9,"Live",1,"Zero",4,"Chrome",2,"Same",1,"Novel44",0,"Novel44",0,629,"up-left-4sec","0","100same0switch","exposure",0,TRUE,FALSE,4,TRUE,"10","familiarization"
"Jan 17 2015","16:54:31",10,"Live",1,"Zero",4,"Chrome",2,"Same",1,"Novel44",0,"Novel44",0,114,"straight-ahead","-1","100same0switch","test",0,TRUE,FALSE,4,TRUE,"10","familiarization"
"Jan 17 2015","16:54:31",11,"Live",1,"Zero",4,"Chrome",3,"Same",0,"Novel128",0,"Novel128",0,673,"up-left-4sec","0","100same0switch","exposure",0,TRUE,FALSE,4,TRUE,"10","familiarization"
"Jan 17 2015","16:54:31",12,"Live",1,"Zero",4,"Chrome",3,"Same",0,"Novel128",1,"Novel128",0,140,"straight-ahead","-1","100same0switch","test",0,TRUE,FALSE,4,TRUE,"10","familiarization"
"Jan 17 2015","16:54:31",13,"Live",1,"Zero",4,"Chrome",4,"Same",0,"Novel5",1,"Novel5",1,523,"up-right-4sec","1","100same0switch","exposure",0,TRUE,FALSE,4,TRUE,"10","familiarization"
"Jan 17 2015","16:54:31",14,"Live",1,"Zero",4,"Chrome",4,"Same",0,"Novel5",3,"Novel5",1,354,"straight-ahead","-1","100same0switch","test",0,TRUE,FALSE,4,TRUE,"10","familiarization"
"Jan 17 2015","16:54:31",15,"Live",1,"Zero",4,"Chrome",5,"Same",1,"Novel69",1,"Novel69",1,427,"up-right-4sec","1","100same0switch","exposure",0,TRUE,FALSE,4,TRUE,"10","familiarization"
"Jan 17 2015","16:54:31",16,"Live",1,"Zero",4,"Chrome",5,"Same",1,"Novel69",1,"Novel69",1,325,"straight-ahead","-1","100same0switch","test",0,TRUE,FALSE,4,TRUE,"10","familiarization"
"Jan 17 2015","16:54:31",17,"Live",1,"Zero",4,"Chrome",6,"Same",1,"Novel62",1,"Novel62",1,451,"up-right-4sec","1","100same0switch","exposure",0,TRUE,FALSE,4,TRUE,"10","familiarization"
"Jan 17 2015","16:54:31",18,"Live",1,"Zero",4,"Chrome",6,"Same",1,"Novel62",1,"Novel62",1,329,"straight-ahead","-1","100same0switch","test",0,TRUE,FALSE,4,TRUE,"10","familiarization"
"Jan 17 2015","16:54:31",19,"Live",1,"Zero",4,"Chrome",7,"Same",0,"Novel35",2,"Novel35",2,683,"down-left-4sec","2","100same0switch","exposure",0,TRUE,FALSE,4,TRUE,"10","familiarization"
"Jan 17 2015","16:54:31",20,"Live",1,"Zero",4,"Chrome",7,"Same",0,"Novel35",1,"Novel35",2,317,"straight-ahead","-1","100same0switch","test",0,TRUE,FALSE,4,TRUE,"10","familiarization"
"Jan 17 2015","16:54:31",21,"Live",1,"Zero",4,"Chrome",8,"Same",0,"Novel134",1,"Novel134",1,642,"up-right-4sec","1","100same0switch","exposure",0,TRUE,FALSE,4,TRUE,"10","test"
"Jan 17 2015","16:54:31",22,"Live",1,"Zero",4,"Chrome",8,"Same",0,"Novel134",0,"Novel134",1,343,"straight-ahead","-1","100same0switch","test",0,TRUE,FALSE,4,TRUE,"10","test"
"Jan 17 2015","16:54:31",23,"Live",1,"Zero",4,"Chrome",9,"Switch",1,"Novel109",1,"Novel10",3,525,"up-right-4sec","1","100same0switch","exposure",0,TRUE,FALSE,4,TRUE,"10","test"
"Jan 17 2015","16:54:31",24,"Live",1,"Zero",4,"Chrome",9,"Switch",1,"Novel10",3,"Novel10",3,10093,"straight-ahead","-1","100same0switch","test",0,TRUE,FALSE,4,TRUE,"10","test"
"Jan 17 2015","16:54:31",25,"Live",1,"Zero",4,"Chrome",10,"Same",1,"Novel9",2,"Novel9",2,2736,"down-left-4sec","2","100same0switch","exposure",0,TRUE,FALSE,4,TRUE,"10","test"
"Jan 17 2015","16:54:31",26,"Live",1,"Zero",4,"Chrome",10,"Same",1,"Novel9",2,"Novel9",2,235,"straight-ahead","-1","100same0switch","test",0,TRUE,FALSE,4,TRUE,"10","test"
"Jan 17 2015","16:54:31",27,"Live",1,"Zero",4,"Chrome",11,"Switch",0,"Novel11",1,"Novel36",0,3122,"up-right-4sec","1","100same0switch","exposure",0,TRUE,FALSE,4,TRUE,"10","test"
"Jan 17 2015","16:54:31",28,"Live",1,"Zero",4,"Chrome",11,"Switch",0,"Novel36",1,"Novel36",0,898,"straight-ahead","-1","100same0switch","test",0,TRUE,FALSE,4,TRUE,"10","test"
"Jan 17 2015","16:54:31",29,"Live",1,"Zero",4,"Chrome",12,"Same",0,"Novel84",0,"Novel84",0,2300,"up-left-4sec","0","100same0switch","exposure",0,TRUE,FALSE,4,TRUE,"10","test"
"Jan 17 2015","16:54:31",30,"Live",1,"Zero",4,"Chrome",12,"Same",0,"Novel84",3,"Novel84",0,665,"straight-ahead","-1","100same0switch","test",0,TRUE,FALSE,4,TRUE,"10","test"
"Jan 17 2015","16:54:31",31,"Live",1,"Zero",4,"Chrome",13,"Switch",1,"Novel32",0,"Novel58",2,2794,"up-left-4sec","0","100same0switch","exposure",0,TRUE,FALSE,4,TRUE,"10","test"
"Jan 17 2015","16:54:31",32,"Live",1,"Zero",4,"Chrome",13,"Switch",1,"Novel58",2,"Novel58",2,3812,"straight-ahead","-1","100same0switch","test",0,TRUE,FALSE,4,TRUE,"10","test"
"Jan 17 2015","16:54:31",33,"Live",1,"Zero",4,"Chrome",14,"Same",1,"Novel90",1,"Novel90",1,1668,"up-right-4sec","1","100same0switch","exposure",0,TRUE,FALSE,4,TRUE,"10","test"
"Jan 17 2015","16:54:31",34,"Live",1,"Zero",4,"Chrome",14,"Same",1,"Novel90",1,"Novel90",1,4091,"straight-ahead","-1","100same0switch","test",0,TRUE,FALSE,4,TRUE,"10","test"
"Jan 17 2015","16:54:31",35,"Live",1,"Zero",4,"Chrome",15,"Switch",0,"Novel60",3,"Novel49",1,786,"down-right-4sec","3","100same0switch","exposure",0,TRUE,FALSE,4,TRUE,"10","test"
"Jan 17 2015","16:54:31",36,"Live",1,"Zero",4,"Chrome",15,"Switch",0,"Novel23",3,"Novel49",1,2825,"straight-ahead","-1","100same0switch","test",0,TRUE,FALSE,4,FALSE,"10","test"
"Jan 17 2015","17:37:38",1,"Live",2,"Zero",4,"Chrome",0,"Switch",0,"squirrel",0,"",0,1337,"up-left-4sec","0","0same100switch","example",0,TRUE,FALSE,4,TRUE,"11","familiarization"
"Jan 17 2015","17:37:38",2,"Live",2,"Zero",4,"Chrome",0,"Switch",0,"squirrel",0,"",0,479,"up-left-4sec","0","0same100switch","example",0,TRUE,FALSE,4,TRUE,"11","familiarization"
"Jan 17 2015","17:37:38",3,"Live",2,"Zero",4,"Chrome",0,"Switch",0,"tomato",1,"",0,242,"up-right-4sec","1","0same100switch","example",0,TRUE,FALSE,4,TRUE,"11","familiarization"
"Jan 17 2015","17:37:38",4,"Live",2,"Zero",4,"Chrome",0,"Switch",0,"tomato",2,"",0,264,"down-left-4sec","2","0same100switch","example",0,TRUE,FALSE,4,TRUE,"11","familiarization"
"Jan 17 2015","17:37:38",5,"Live",2,"Zero",4,"Chrome",0,"Switch",0,"Novel6",0,"Novel14",2,1009,"up-left-4sec","0","0same100switch","exposure",0,TRUE,FALSE,4,TRUE,"11","familiarization"
"Jan 17 2015","17:37:38",6,"Live",2,"Zero",4,"Chrome",0,"Switch",0,"Novel55",2,"Novel14",2,4773,"straight-ahead","-1","0same100switch","test",0,TRUE,TRUE,4,FALSE,"11","familiarization"
"Jan 17 2015","17:37:38",7,"Live",2,"Zero",4,"Chrome",1,"Switch",1,"Novel46",0,"Novel89",3,503,"up-left-4sec","0","0same100switch","exposure",0,TRUE,FALSE,4,TRUE,"11","familiarization"
"Jan 17 2015","17:37:38",8,"Live",2,"Zero",4,"Chrome",1,"Switch",1,"Novel62",2,"Novel89",3,520,"straight-ahead","-1","0same100switch","test",0,TRUE,FALSE,4,FALSE,"11","familiarization"
"Jan 17 2015","17:37:38",9,"Live",2,"Zero",4,"Chrome",2,"Switch",1,"Novel94",0,"Novel124",2,1742,"up-left-4sec","0","0same100switch","exposure",0,TRUE,FALSE,4,TRUE,"11","familiarization"
"Jan 17 2015","17:37:38",10,"Live",2,"Zero",4,"Chrome",2,"Switch",1,"Novel34",1,"Novel124",2,1695,"straight-ahead","-1","0same100switch","test",0,TRUE,FALSE,4,FALSE,"11","familiarization"
"Jan 17 2015","17:37:38",11,"Live",2,"Zero",4,"Chrome",3,"Switch",1,"Novel100",3,"Novel73",2,1547,"down-right-4sec","3","0same100switch","exposure",0,TRUE,FALSE,4,TRUE,"11","familiarization"
"Jan 17 2015","17:37:38",12,"Live",2,"Zero",4,"Chrome",3,"Switch",1,"Novel7",1,"Novel73",2,904,"straight-ahead","-1","0same100switch","test",0,TRUE,FALSE,4,FALSE,"11","familiarization"
"Jan 17 2015","17:37:38",13,"Live",2,"Zero",4,"Chrome",4,"Switch",0,"Novel67",0,"Novel119",2,586,"up-left-4sec","0","0same100switch","exposure",0,TRUE,FALSE,4,TRUE,"11","familiarization"
"Jan 17 2015","17:37:38",14,"Live",2,"Zero",4,"Chrome",4,"Switch",0,"Novel32",0,"Novel119",2,272,"straight-ahead","-1","0same100switch","test",0,TRUE,FALSE,4,FALSE,"11","familiarization"
"Jan 17 2015","17:37:38",15,"Live",2,"Zero",4,"Chrome",5,"Switch",0,"Novel1",3,"Novel68",1,801,"down-right-4sec","3","0same100switch","exposure",0,TRUE,FALSE,4,TRUE,"11","familiarization"
"Jan 17 2015","17:37:38",16,"Live",2,"Zero",4,"Chrome",5,"Switch",0,"Novel19",1,"Novel68",1,1133,"straight-ahead","-1","0same100switch","test",0,TRUE,FALSE,4,FALSE,"11","familiarization"
"Jan 17 2015","17:37:38",17,"Live",2,"Zero",4,"Chrome",6,"Switch",1,"Novel95",3,"Novel23",2,377,"down-right-4sec","3","0same100switch","exposure",0,TRUE,FALSE,4,TRUE,"11","familiarization"
"Jan 17 2015","17:37:38",18,"Live",2,"Zero",4,"Chrome",6,"Switch",1,"Novel4",1,"Novel23",2,288,"straight-ahead","-1","0same100switch","test",0,TRUE,FALSE,4,FALSE,"11","familiarization"
"Jan 17 2015","17:37:38",19,"Live",2,"Zero",4,"Chrome",7,"Switch",0,"Novel65",3,"Novel40",1,448,"down-right-4sec","3","0same100switch","exposure",0,TRUE,FALSE,4,TRUE,"11","familiarization"
"Jan 17 2015","17:37:38",20,"Live",2,"Zero",4,"Chrome",7,"Switch",0,"Novel133",3,"Novel40",1,1883,"straight-ahead","-1","0same100switch","test",0,TRUE,FALSE,4,FALSE,"11","familiarization"
"Jan 17 2015","17:37:38",21,"Live",2,"Zero",4,"Chrome",8,"Same",0,"Novel11",3,"Novel11",3,499,"down-right-4sec","3","0same100switch","exposure",0,TRUE,FALSE,4,TRUE,"11","test"
"Jan 17 2015","17:37:38",22,"Live",2,"Zero",4,"Chrome",8,"Same",0,"Novel11",0,"Novel11",3,5,"straight-ahead","-1","0same100switch","test",0,TRUE,FALSE,4,TRUE,"11","test"
"Jan 17 2015","17:37:38",23,"Live",2,"Zero",4,"Chrome",9,"Switch",1,"Novel8",1,"Novel81",2,67,"up-right-4sec","1","0same100switch","exposure",0,TRUE,FALSE,4,TRUE,"11","test"
"Jan 17 2015","17:37:38",24,"Live",2,"Zero",4,"Chrome",9,"Switch",1,"Novel81",2,"Novel81",2,206,"straight-ahead","-1","0same100switch","test",0,TRUE,FALSE,4,TRUE,"11","test"
"Jan 17 2015","17:37:38",25,"Live",2,"Zero",4,"Chrome",10,"Same",1,"Novel78",1,"Novel78",1,138,"up-right-4sec","1","0same100switch","exposure",0,TRUE,FALSE,4,TRUE,"11","test"
"Jan 17 2015","17:37:38",26,"Live",2,"Zero",4,"Chrome",10,"Same",1,"Novel78",1,"Novel78",1,91,"straight-ahead","-1","0same100switch","test",0,TRUE,FALSE,4,TRUE,"11","test"
"Jan 17 2015","17:37:38",27,"Live",2,"Zero",4,"Chrome",11,"Switch",1,"Novel10",2,"Novel2",1,70,"down-left-4sec","2","0same100switch","exposure",0,TRUE,FALSE,4,TRUE,"11","test"
"Jan 17 2015","17:37:38",28,"Live",2,"Zero",4,"Chrome",11,"Switch",1,"Novel123",0,"Novel2",1,267,"straight-ahead","-1","0same100switch","test",0,TRUE,FALSE,4,FALSE,"11","test"
"Jan 17 2015","17:37:38",29,"Live",2,"Zero",4,"Chrome",12,"Same",0,"Novel58",0,"Novel58",0,461,"up-left-4sec","0","0same100switch","exposure",0,TRUE,FALSE,4,TRUE,"11","test"
"Jan 17 2015","17:37:38",30,"Live",2,"Zero",4,"Chrome",12,"Same",0,"Novel58",3,"Novel58",0,595,"straight-ahead","-1","0same100switch","test",0,TRUE,FALSE,4,TRUE,"11","test"
"Jan 17 2015","17:37:38",31,"Live",2,"Zero",4,"Chrome",13,"Switch",0,"Novel126",1,"Novel79",2,333,"up-right-4sec","1","0same100switch","exposure",0,TRUE,FALSE,4,TRUE,"11","test"
"Jan 17 2015","17:37:38",32,"Live",2,"Zero",4,"Chrome",13,"Switch",0,"Novel16",3,"Novel79",2,501,"straight-ahead","-1","0same100switch","test",0,TRUE,FALSE,4,FALSE,"11","test"
"Jan 17 2015","17:37:38",33,"Live",2,"Zero",4,"Chrome",14,"Same",1,"Novel107",0,"Novel107",0,362,"up-left-4sec","0","0same100switch","exposure",0,TRUE,FALSE,4,TRUE,"11","test"
"Jan 17 2015","17:37:38",34,"Live",2,"Zero",4,"Chrome",14,"Same",1,"Novel107",0,"Novel107",0,395,"straight-ahead","-1","0same100switch","test",0,TRUE,FALSE,4,TRUE,"11","test"
"Jan 17 2015","17:37:38",35,"Live",2,"Zero",4,"Chrome",15,"Switch",0,"Novel116",0,"Novel121",3,467,"up-left-4sec","0","0same100switch","exposure",0,TRUE,FALSE,4,TRUE,"11","test"
"Jan 17 2015","17:37:38",36,"Live",2,"Zero",4,"Chrome",15,"Switch",0,"Novel75",3,"Novel121",3,531,"straight-ahead","-1","0same100switch","test",0,TRUE,FALSE,4,FALSE,"11","test"
"Jan 17 2015","18:11:22",1,"Live",2,"Zero",4,"Chrome",0,"Switch",0,"squirrel",0,"",0,3527,"up-left-4sec","0","0same100switch","example",0,TRUE,FALSE,4,TRUE,"12","familiarization"
"Jan 17 2015","18:11:22",2,"Live",2,"Zero",4,"Chrome",0,"Switch",0,"squirrel",0,"",0,2781,"up-left-4sec","0","0same100switch","example",0,TRUE,FALSE,4,TRUE,"12","familiarization"
"Jan 17 2015","18:11:22",3,"Live",2,"Zero",4,"Chrome",0,"Switch",0,"tomato",1,"",0,1156,"up-right-4sec","1","0same100switch","example",0,TRUE,FALSE,4,TRUE,"12","familiarization"
"Jan 17 2015","18:11:22",4,"Live",2,"Zero",4,"Chrome",0,"Switch",0,"tomato",2,"",0,1553,"down-left-4sec","2","0same100switch","example",0,TRUE,FALSE,4,TRUE,"12","familiarization"
"Jan 17 2015","18:11:22",5,"Live",2,"Zero",4,"Chrome",0,"Switch",0,"Novel124",1,"Novel58",2,1767,"up-right-4sec","1","0same100switch","exposure",0,TRUE,FALSE,4,TRUE,"12","familiarization"
"Jan 17 2015","18:11:22",6,"Live",2,"Zero",4,"Chrome",0,"Switch",0,"Novel93",3,"Novel58",2,4803,"straight-ahead","-1","0same100switch","test",0,TRUE,TRUE,4,FALSE,"12","familiarization"
"Jan 17 2015","18:11:22",7,"Live",2,"Zero",4,"Chrome",1,"Switch",1,"Novel80",3,"Novel47",0,1050,"down-right-4sec","3","0same100switch","exposure",0,TRUE,FALSE,4,TRUE,"12","familiarization"
"Jan 17 2015","18:11:22",8,"Live",2,"Zero",4,"Chrome",1,"Switch",1,"Novel107",1,"Novel47",0,4506,"straight-ahead","-1","0same100switch","test",0,TRUE,FALSE,4,FALSE,"12","familiarization"
"Jan 17 2015","18:11:22",9,"Live",2,"Zero",4,"Chrome",2,"Switch",1,"Novel26",1,"Novel25",2,1449,"up-right-4sec","1","0same100switch","exposure",0,TRUE,FALSE,4,TRUE,"12","familiarization"
"Jan 17 2015","18:11:22",10,"Live",2,"Zero",4,"Chrome",2,"Switch",1,"Novel136",3,"Novel25",2,3362,"straight-ahead","-1","0same100switch","test",0,TRUE,FALSE,4,FALSE,"12","familiarization"
"Jan 17 2015","18:11:22",11,"Live",2,"Zero",4,"Chrome",3,"Switch",1,"Novel65",1,"Novel125",3,1703,"up-right-4sec","1","0same100switch","exposure",0,TRUE,FALSE,4,TRUE,"12","familiarization"
"Jan 17 2015","18:11:22",12,"Live",2,"Zero",4,"Chrome",3,"Switch",1,"Novel72",2,"Novel125",3,873,"straight-ahead","-1","0same100switch","test",0,TRUE,FALSE,4,FALSE,"12","familiarization"
"Jan 17 2015","18:11:22",13,"Live",2,"Zero",4,"Chrome",4,"Switch",1,"Novel38",0,"Novel95",1,1010,"up-left-4sec","0","0same100switch","exposure",0,TRUE,FALSE,4,TRUE,"12","familiarization"
"Jan 17 2015","18:11:22",14,"Live",2,"Zero",4,"Chrome",4,"Switch",1,"Novel22",2,"Novel95",1,1390,"straight-ahead","-1","0same100switch","test",0,TRUE,FALSE,4,FALSE,"12","familiarization"
"Jan 17 2015","18:11:22",15,"Live",2,"Zero",4,"Chrome",5,"Switch",0,"Novel48",1,"Novel30",3,1042,"up-right-4sec","1","0same100switch","exposure",0,TRUE,FALSE,4,TRUE,"12","familiarization"
"Jan 17 2015","18:11:22",16,"Live",2,"Zero",4,"Chrome",5,"Switch",0,"Novel84",3,"Novel30",3,416,"straight-ahead","-1","0same100switch","test",0,TRUE,FALSE,4,FALSE,"12","familiarization"
"Jan 17 2015","18:11:22",17,"Live",2,"Zero",4,"Chrome",6,"Switch",0,"Novel4",0,"Novel100",2,739,"up-left-4sec","0","0same100switch","exposure",0,TRUE,FALSE,4,TRUE,"12","familiarization"
"Jan 17 2015","18:11:22",18,"Live",2,"Zero",4,"Chrome",6,"Switch",0,"Novel77",2,"Novel100",2,717,"straight-ahead","-1","0same100switch","test",0,TRUE,FALSE,4,FALSE,"12","familiarization"
"Jan 17 2015","18:11:22",19,"Live",2,"Zero",4,"Chrome",7,"Switch",0,"Novel74",3,"Novel134",0,964,"down-right-4sec","3","0same100switch","exposure",0,TRUE,FALSE,4,TRUE,"12","familiarization"
"Jan 17 2015","18:11:22",20,"Live",2,"Zero",4,"Chrome",7,"Switch",0,"Novel134",2,"Novel134",0,1597,"straight-ahead","-1","0same100switch","test",0,TRUE,FALSE,4,TRUE,"12","familiarization"
"Jan 17 2015","18:11:22",21,"Live",2,"Zero",4,"Chrome",8,"Same",0,"Novel66",3,"Novel66",3,344,"down-right-4sec","3","0same100switch","exposure",0,TRUE,FALSE,4,TRUE,"12","test"
"Jan 17 2015","18:11:22",22,"Live",2,"Zero",4,"Chrome",8,"Same",0,"Novel66",1,"Novel66",3,849,"straight-ahead","-1","0same100switch","test",0,TRUE,FALSE,4,TRUE,"12","test"
"Jan 17 2015","18:11:22",23,"Live",2,"Zero",4,"Chrome",9,"Switch",1,"Novel32",3,"Novel7",2,922,"down-right-4sec","3","0same100switch","exposure",0,TRUE,FALSE,4,TRUE,"12","test"
"Jan 17 2015","18:11:22",24,"Live",2,"Zero",4,"Chrome",9,"Switch",1,"Novel49",1,"Novel7",2,1894,"straight-ahead","-1","0same100switch","test",0,TRUE,FALSE,4,FALSE,"12","test"
"Jan 17 2015","18:11:22",25,"Live",2,"Zero",4,"Chrome",10,"Same",1,"Novel44",2,"Novel44",2,2263,"down-left-4sec","2","0same100switch","exposure",0,TRUE,FALSE,4,TRUE,"12","test"
"Jan 17 2015","18:11:22",26,"Live",2,"Zero",4,"Chrome",10,"Same",1,"Novel59",1,"Novel44",2,1330,"straight-ahead","-1","0same100switch","test",0,TRUE,FALSE,4,FALSE,"12","test"
"Jan 17 2015","18:11:22",27,"Live",2,"Zero",4,"Chrome",11,"Switch",1,"Novel76",3,"Novel120",1,661,"down-right-4sec","3","0same100switch","exposure",0,TRUE,FALSE,4,TRUE,"12","test"
"Jan 17 2015","18:11:22",28,"Live",2,"Zero",4,"Chrome",11,"Switch",1,"Novel98",2,"Novel120",1,997,"straight-ahead","-1","0same100switch","test",0,TRUE,FALSE,4,FALSE,"12","test"
"Jan 17 2015","18:11:22",29,"Live",2,"Zero",4,"Chrome",12,"Same",1,"Novel101",1,"Novel101",1,980,"up-right-4sec","1","0same100switch","exposure",0,TRUE,FALSE,4,TRUE,"12","test"
"Jan 17 2015","18:11:22",30,"Live",2,"Zero",4,"Chrome",12,"Same",1,"Novel101",1,"Novel101",1,369,"straight-ahead","-1","0same100switch","test",0,TRUE,FALSE,4,TRUE,"12","test"
"Jan 17 2015","18:11:22",31,"Live",2,"Zero",4,"Chrome",13,"Switch",0,"Novel15",3,"Novel14",2,817,"down-right-4sec","3","0same100switch","exposure",0,TRUE,FALSE,4,TRUE,"12","test"
"Jan 17 2015","18:11:22",32,"Live",2,"Zero",4,"Chrome",13,"Switch",0,"Novel14",0,"Novel14",2,1212,"straight-ahead","-1","0same100switch","test",0,TRUE,FALSE,4,TRUE,"12","test"
"Jan 17 2015","18:11:22",33,"Live",2,"Zero",4,"Chrome",14,"Same",0,"Novel24",3,"Novel24",3,755,"down-right-4sec","3","0same100switch","exposure",0,TRUE,FALSE,4,TRUE,"12","test"
"Jan 17 2015","18:11:22",34,"Live",2,"Zero",4,"Chrome",14,"Same",0,"Novel24",2,"Novel24",3,469,"straight-ahead","-1","0same100switch","test",0,TRUE,FALSE,4,TRUE,"12","test"
"Jan 17 2015","18:11:22",35,"Live",2,"Zero",4,"Chrome",15,"Switch",0,"Novel97",2,"Novel105",3,723,"down-left-4sec","2","0same100switch","exposure",0,TRUE,FALSE,4,TRUE,"12","test"
"Jan 17 2015","18:11:22",36,"Live",2,"Zero",4,"Chrome",15,"Switch",0,"Novel31",3,"Novel105",3,845,"straight-ahead","-1","0same100switch","test",0,TRUE,FALSE,4,FALSE,"12","test"
"Jan 17 2015","16:02:55",1,"Live",1,"Zero",4,"Firefox",0,"Same",0,"squirrel",0,"",0,969,"up-left-4sec","0","100same0switch","example",0,TRUE,FALSE,4,TRUE,"13","familiarization"
"Jan 17 2015","16:02:55",2,"Live",1,"Zero",4,"Firefox",0,"Same",0,"squirrel",0,"",0,656,"up-left-4sec","0","100same0switch","example",0,TRUE,FALSE,4,TRUE,"13","familiarization"
"Jan 17 2015","16:02:55",3,"Live",1,"Zero",4,"Firefox",0,"Same",0,"tomato",1,"",0,609,"up-right-4sec","1","100same0switch","example",0,TRUE,FALSE,4,TRUE,"13","familiarization"
"Jan 17 2015","16:02:55",4,"Live",1,"Zero",4,"Firefox",0,"Same",0,"tomato",2,"",0,1255,"down-left-4sec","2","100same0switch","example",0,TRUE,FALSE,4,TRUE,"13","familiarization"
"Jan 17 2015","16:02:55",5,"Live",1,"Zero",4,"Firefox",0,"Same",0,"Novel56",2,"Novel56",2,1834,"up-right-4sec","1","100same0switch","exposure",0,TRUE,FALSE,4,FALSE,"13","familiarization"
"Jan 17 2015","16:02:55",6,"Live",1,"Zero",4,"Firefox",0,"Same",0,"Novel56",0,"Novel56",2,1357,"straight-ahead","-1","100same0switch","test",0,TRUE,TRUE,4,TRUE,"13","familiarization"
"Jan 17 2015","16:02:55",7,"Live",1,"Zero",4,"Firefox",1,"Same",1,"Novel136",0,"Novel136",0,1002,"down-right-4sec","3","100same0switch","exposure",0,TRUE,FALSE,4,FALSE,"13","familiarization"
"Jan 17 2015","16:02:55",8,"Live",1,"Zero",4,"Firefox",1,"Same",1,"Novel136",0,"Novel136",0,407,"straight-ahead","-1","100same0switch","test",0,TRUE,FALSE,4,TRUE,"13","familiarization"
"Jan 17 2015","16:02:55",9,"Live",1,"Zero",4,"Firefox",2,"Same",1,"Novel98",0,"Novel98",0,2021,"up-left-4sec","0","100same0switch","exposure",0,TRUE,FALSE,4,TRUE,"13","familiarization"
"Jan 17 2015","16:02:55",10,"Live",1,"Zero",4,"Firefox",2,"Same",1,"Novel98",0,"Novel98",0,4077,"straight-ahead","-1","100same0switch","test",0,TRUE,FALSE,4,TRUE,"13","familiarization"
"Jan 17 2015","16:02:55",11,"Live",1,"Zero",4,"Firefox",3,"Same",0,"Novel3",0,"Novel3",0,3782,"up-right-4sec","1","100same0switch","exposure",0,TRUE,FALSE,4,FALSE,"13","familiarization"
"Jan 17 2015","16:02:55",12,"Live",1,"Zero",4,"Firefox",3,"Same",0,"Novel3",3,"Novel3",0,4120,"straight-ahead","-1","100same0switch","test",0,TRUE,FALSE,4,TRUE,"13","familiarization"
"Jan 17 2015","16:02:55",13,"Live",1,"Zero",4,"Firefox",4,"Same",1,"Novel75",3,"Novel75",3,2889,"down-left-4sec","2","100same0switch","exposure",0,TRUE,FALSE,4,FALSE,"13","familiarization"
"Jan 17 2015","16:02:55",14,"Live",1,"Zero",4,"Firefox",4,"Same",1,"Novel75",3,"Novel75",3,241,"straight-ahead","-1","100same0switch","test",0,TRUE,FALSE,4,TRUE,"13","familiarization"
"Jan 17 2015","16:02:55",15,"Live",1,"Zero",4,"Firefox",5,"Same",1,"Novel70",2,"Novel70",2,2809,"up-left-4sec","0","100same0switch","exposure",0,TRUE,FALSE,4,FALSE,"13","familiarization"
"Jan 17 2015","16:02:55",16,"Live",1,"Zero",4,"Firefox",5,"Same",1,"Novel70",2,"Novel70",2,11918,"straight-ahead","-1","100same0switch","test",0,TRUE,FALSE,4,TRUE,"13","familiarization"
"Jan 17 2015","16:02:55",17,"Live",1,"Zero",4,"Firefox",6,"Same",0,"Novel23",3,"Novel23",3,1953,"up-left-4sec","0","100same0switch","exposure",0,TRUE,FALSE,4,FALSE,"13","familiarization"
"Jan 17 2015","16:02:55",18,"Live",1,"Zero",4,"Firefox",6,"Same",0,"Novel23",2,"Novel23",3,4153,"straight-ahead","-1","100same0switch","test",0,TRUE,FALSE,4,TRUE,"13","familiarization"
"Jan 17 2015","16:02:55",19,"Live",1,"Zero",4,"Firefox",7,"Same",0,"Novel67",3,"Novel67",3,1838,"up-left-4sec","0","100same0switch","exposure",0,TRUE,FALSE,4,FALSE,"13","familiarization"
"Jan 17 2015","16:02:55",20,"Live",1,"Zero",4,"Firefox",7,"Same",0,"Novel67",1,"Novel67",3,5929,"straight-ahead","-1","100same0switch","test",0,TRUE,FALSE,4,TRUE,"13","familiarization"
"Jan 17 2015","16:02:55",21,"Live",1,"Zero",4,"Firefox",8,"Same",0,"Novel134",1,"Novel134",1,21901,"up-right-4sec","1","100same0switch","exposure",0,TRUE,FALSE,4,TRUE,"13","test"
"Jan 17 2015","16:02:55",22,"Live",1,"Zero",4,"Firefox",8,"Same",0,"Novel134",0,"Novel134",1,44,"straight-ahead","-1","100same0switch","test",0,TRUE,FALSE,4,TRUE,"13","test"
"Jan 17 2015","16:02:55",23,"Live",1,"Zero",4,"Firefox",9,"Switch",1,"Novel46",0,"Novel62",1,1346,"down-right-4sec","3","100same0switch","exposure",0,TRUE,FALSE,4,FALSE,"13","test"
"Jan 17 2015","16:02:55",24,"Live",1,"Zero",4,"Firefox",9,"Switch",1,"Novel123",3,"Novel62",1,2227,"straight-ahead","-1","100same0switch","test",0,TRUE,FALSE,4,FALSE,"13","test"
"Jan 17 2015","16:02:55",25,"Live",1,"Zero",4,"Firefox",10,"Same",1,"Novel37",1,"Novel37",1,9434,"up-right-4sec","1","100same0switch","exposure",0,TRUE,FALSE,4,TRUE,"13","test"
"Jan 17 2015","16:02:55",26,"Live",1,"Zero",4,"Firefox",10,"Same",1,"Novel37",1,"Novel37",1,6331,"straight-ahead","-1","100same0switch","test",0,TRUE,FALSE,4,TRUE,"13","test"
"Jan 17 2015","16:02:55",27,"Live",1,"Zero",4,"Firefox",11,"Switch",0,"Novel14",1,"Novel57",2,1718,"up-right-4sec","1","100same0switch","exposure",0,TRUE,FALSE,4,TRUE,"13","test"
"Jan 17 2015","16:02:55",28,"Live",1,"Zero",4,"Firefox",11,"Switch",0,"Novel30",1,"Novel57",2,20648,"straight-ahead","-1","100same0switch","test",0,TRUE,FALSE,4,FALSE,"13","test"
"Jan 17 2015","16:02:55",29,"Live",1,"Zero",4,"Firefox",12,"Same",1,"Novel127",3,"Novel127",3,1554,"down-left-4sec","2","100same0switch","exposure",0,TRUE,FALSE,4,FALSE,"13","test"
"Jan 17 2015","16:02:55",30,"Live",1,"Zero",4,"Firefox",12,"Same",1,"Novel127",3,"Novel127",3,279,"straight-ahead","-1","100same0switch","test",0,TRUE,FALSE,4,TRUE,"13","test"
"Jan 17 2015","16:02:55",31,"Live",1,"Zero",4,"Firefox",13,"Switch",1,"Novel118",2,"Novel96",3,836,"down-right-4sec","3","100same0switch","exposure",0,TRUE,FALSE,4,FALSE,"13","test"
"Jan 17 2015","16:02:55",32,"Live",1,"Zero",4,"Firefox",13,"Switch",1,"Novel44",1,"Novel96",3,438,"straight-ahead","-1","100same0switch","test",0,TRUE,FALSE,4,FALSE,"13","test"
"Jan 17 2015","16:02:55",33,"Live",1,"Zero",4,"Firefox",14,"Same",0,"Novel51",3,"Novel51",3,2491,"down-left-4sec","2","100same0switch","exposure",0,TRUE,FALSE,4,FALSE,"13","test"
"Jan 17 2015","16:02:55",34,"Live",1,"Zero",4,"Firefox",14,"Same",0,"Novel51",1,"Novel51",3,185,"straight-ahead","-1","100same0switch","test",0,TRUE,FALSE,4,TRUE,"13","test"
"Jan 17 2015","16:02:55",35,"Live",1,"Zero",4,"Firefox",15,"Switch",0,"Novel5",2,"Novel77",3,1969,"up-right-4sec","1","100same0switch","exposure",0,TRUE,FALSE,4,FALSE,"13","test"
"Jan 17 2015","16:02:55",36,"Live",1,"Zero",4,"Firefox",15,"Switch",0,"Novel77",1,"Novel77",3,147,"straight-ahead","-1","100same0switch","test",0,TRUE,FALSE,4,TRUE,"13","test"
"Jan 17 2015","17:42:41",1,"Live",2,"Zero",4,"Firefox",0,"Switch",0,"squirrel",0,"",0,4824,"up-left-4sec","0","0same100switch","example",0,TRUE,FALSE,4,TRUE,"14","familiarization"
"Jan 17 2015","17:42:41",2,"Live",2,"Zero",4,"Firefox",0,"Switch",0,"squirrel",0,"",0,1403,"up-left-4sec","0","0same100switch","example",0,TRUE,FALSE,4,TRUE,"14","familiarization"
"Jan 17 2015","17:42:41",3,"Live",2,"Zero",4,"Firefox",0,"Switch",0,"tomato",1,"",0,809,"up-right-4sec","1","0same100switch","example",0,TRUE,FALSE,4,TRUE,"14","familiarization"
"Jan 17 2015","17:42:41",4,"Live",2,"Zero",4,"Firefox",0,"Switch",0,"tomato",2,"",0,990,"down-left-4sec","2","0same100switch","example",0,TRUE,FALSE,4,TRUE,"14","familiarization"
"Jan 17 2015","17:42:41",5,"Live",2,"Zero",4,"Firefox",0,"Switch",0,"Novel49",3,"Novel131",1,3254,"up-right-4sec","1","0same100switch","exposure",0,TRUE,FALSE,4,FALSE,"14","familiarization"
"Jan 17 2015","17:42:41",6,"Live",2,"Zero",4,"Firefox",0,"Switch",0,"Novel83",1,"Novel131",1,4987,"straight-ahead","-1","0same100switch","test",0,TRUE,TRUE,4,FALSE,"14","familiarization"
"Jan 17 2015","17:42:41",7,"Live",2,"Zero",4,"Firefox",1,"Switch",1,"Novel7",3,"Novel110",1,2834,"up-right-4sec","1","0same100switch","exposure",0,TRUE,FALSE,4,FALSE,"14","familiarization"
"Jan 17 2015","17:42:41",8,"Live",2,"Zero",4,"Firefox",1,"Switch",1,"Novel110",1,"Novel110",1,1565,"straight-ahead","-1","0same100switch","test",0,TRUE,FALSE,4,TRUE,"14","familiarization"
"Jan 17 2015","17:42:41",9,"Live",2,"Zero",4,"Firefox",2,"Switch",0,"Novel107",3,"Novel39",1,5000,"up-left-4sec","0","0same100switch","exposure",0,TRUE,FALSE,4,FALSE,"14","familiarization"
"Jan 17 2015","17:42:41",10,"Live",2,"Zero",4,"Firefox",2,"Switch",0,"Novel18",0,"Novel39",1,3039,"straight-ahead","-1","0same100switch","test",0,TRUE,FALSE,4,FALSE,"14","familiarization"
"Jan 17 2015","17:42:41",11,"Live",2,"Zero",4,"Firefox",3,"Switch",1,"Novel132",1,"Novel35",0,4692,"up-right-4sec","1","0same100switch","exposure",0,TRUE,FALSE,4,TRUE,"14","familiarization"
"Jan 17 2015","17:42:41",12,"Live",2,"Zero",4,"Firefox",3,"Switch",1,"Novel35",0,"Novel35",0,1515,"straight-ahead","-1","0same100switch","test",0,TRUE,FALSE,4,TRUE,"14","familiarization"
"Jan 17 2015","17:42:41",13,"Live",2,"Zero",4,"Firefox",4,"Switch",1,"Novel33",0,"Novel66",3,4713,"down-left-4sec","2","0same100switch","exposure",0,TRUE,FALSE,4,FALSE,"14","familiarization"
"Jan 17 2015","17:42:41",14,"Live",2,"Zero",4,"Firefox",4,"Switch",1,"Novel75",1,"Novel66",3,2666,"straight-ahead","-1","0same100switch","test",0,TRUE,FALSE,4,FALSE,"14","familiarization"
"Jan 17 2015","17:42:41",15,"Live",2,"Zero",4,"Firefox",5,"Switch",0,"Novel19",1,"Novel97",3,3666,"up-left-4sec","0","0same100switch","exposure",0,TRUE,FALSE,4,FALSE,"14","familiarization"
"Jan 17 2015","17:42:41",16,"Live",2,"Zero",4,"Firefox",5,"Switch",0,"Novel89",1,"Novel97",3,1145,"straight-ahead","-1","0same100switch","test",0,TRUE,FALSE,4,FALSE,"14","familiarization"
"Jan 17 2015","17:42:41",17,"Live",2,"Zero",4,"Firefox",6,"Switch",1,"Novel122",2,"Novel105",1,4758,"down-left-4sec","2","0same100switch","exposure",0,TRUE,FALSE,4,TRUE,"14","familiarization"
"Jan 17 2015","17:42:41",18,"Live",2,"Zero",4,"Firefox",6,"Switch",1,"Novel115",3,"Novel105",1,915,"straight-ahead","-1","0same100switch","test",0,TRUE,FALSE,4,FALSE,"14","familiarization"
"Jan 17 2015","17:42:41",19,"Live",2,"Zero",4,"Firefox",7,"Switch",0,"Novel136",1,"Novel112",2,3120,"up-right-4sec","1","0same100switch","exposure",0,TRUE,FALSE,4,TRUE,"14","familiarization"
"Jan 17 2015","17:42:41",20,"Live",2,"Zero",4,"Firefox",7,"Switch",0,"Novel50",3,"Novel112",2,3493,"straight-ahead","-1","0same100switch","test",0,TRUE,FALSE,4,FALSE,"14","familiarization"
"Jan 17 2015","17:42:41",21,"Live",2,"Zero",4,"Firefox",8,"Same",0,"Novel3",2,"Novel3",2,2078,"up-left-4sec","0","0same100switch","exposure",0,TRUE,FALSE,4,FALSE,"14","test"
"Jan 17 2015","17:42:41",22,"Live",2,"Zero",4,"Firefox",8,"Same",0,"Novel3",3,"Novel3",2,471,"straight-ahead","-1","0same100switch","test",0,TRUE,FALSE,4,TRUE,"14","test"
"Jan 17 2015","17:42:41",23,"Live",2,"Zero",4,"Firefox",9,"Switch",1,"Novel130",1,"Novel102",0,3311,"up-right-4sec","1","0same100switch","exposure",0,TRUE,FALSE,4,TRUE,"14","test"
"Jan 17 2015","17:42:41",24,"Live",2,"Zero",4,"Firefox",9,"Switch",1,"Novel68",3,"Novel102",0,782,"straight-ahead","-1","0same100switch","test",0,TRUE,FALSE,4,FALSE,"14","test"
"Jan 17 2015","17:42:41",25,"Live",2,"Zero",4,"Firefox",10,"Same",0,"Novel24",2,"Novel24",2,3203,"up-left-4sec","0","0same100switch","exposure",0,TRUE,FALSE,4,FALSE,"14","test"
"Jan 17 2015","17:42:41",26,"Live",2,"Zero",4,"Firefox",10,"Same",0,"Novel24",0,"Novel24",2,701,"straight-ahead","-1","0same100switch","test",0,TRUE,FALSE,4,TRUE,"14","test"
"Jan 17 2015","17:42:41",27,"Live",2,"Zero",4,"Firefox",11,"Switch",1,"Novel88",0,"Novel113",3,4049,"up-right-4sec","1","0same100switch","exposure",0,TRUE,FALSE,4,FALSE,"14","test"
"Jan 17 2015","17:42:41",28,"Live",2,"Zero",4,"Firefox",11,"Switch",1,"Novel85",2,"Novel113",3,552,"straight-ahead","-1","0same100switch","test",0,TRUE,FALSE,4,FALSE,"14","test"
"Jan 17 2015","17:42:41",29,"Live",2,"Zero",4,"Firefox",12,"Same",1,"Novel99",3,"Novel99",3,1861,"down-left-4sec","2","0same100switch","exposure",0,TRUE,FALSE,4,FALSE,"14","test"
"Jan 17 2015","17:42:41",30,"Live",2,"Zero",4,"Firefox",12,"Same",1,"Novel99",3,"Novel99",3,193,"straight-ahead","-1","0same100switch","test",0,TRUE,FALSE,4,TRUE,"14","test"
"Jan 17 2015","17:42:41",31,"Live",2,"Zero",4,"Firefox",13,"Switch",0,"Novel60",3,"Novel11",2,1889,"down-right-4sec","3","0same100switch","exposure",0,TRUE,FALSE,4,TRUE,"14","test"
"Jan 17 2015","17:42:41",32,"Live",2,"Zero",4,"Firefox",13,"Switch",0,"Novel41",1,"Novel11",2,2072,"straight-ahead","-1","0same100switch","test",0,TRUE,FALSE,4,FALSE,"14","test"
"Jan 17 2015","17:42:41",33,"Live",2,"Zero",4,"Firefox",14,"Same",1,"Novel114",3,"Novel114",3,2053,"down-left-4sec","2","0same100switch","exposure",0,TRUE,FALSE,4,FALSE,"14","test"
"Jan 17 2015","17:42:41",34,"Live",2,"Zero",4,"Firefox",14,"Same",1,"Novel114",3,"Novel114",3,186,"straight-ahead","-1","0same100switch","test",0,TRUE,FALSE,4,TRUE,"14","test"
"Jan 17 2015","17:42:41",35,"Live",2,"Zero",4,"Firefox",15,"Switch",0,"Novel95",3,"Novel96",1,6166,"down-right-4sec","3","0same100switch","exposure",0,TRUE,FALSE,4,TRUE,"14","test"
"Jan 17 2015","17:42:41",36,"Live",2,"Zero",4,"Firefox",15,"Switch",0,"Novel96",3,"Novel96",1,3123,"straight-ahead","-1","0same100switch","test",0,TRUE,FALSE,4,TRUE,"14","test"
"Jan 17 2015","18:29:21",1,"Live",1,"Zero",4,"Chrome",0,"Same",1,"squirrel",0,"",0,4338,"up-left-4sec","0","100same0switch","example",0,TRUE,FALSE,4,TRUE,"15","familiarization"
"Jan 17 2015","18:29:21",2,"Live",1,"Zero",4,"Chrome",0,"Same",1,"squirrel",0,"",0,2964,"up-left-4sec","0","100same0switch","example",0,TRUE,FALSE,4,TRUE,"15","familiarization"
"Jan 17 2015","18:29:21",3,"Live",1,"Zero",4,"Chrome",0,"Same",1,"tomato",1,"",0,1601,"up-right-4sec","1","100same0switch","example",0,TRUE,FALSE,4,TRUE,"15","familiarization"
"Jan 17 2015","18:29:21",4,"Live",1,"Zero",4,"Chrome",0,"Same",1,"tomato",2,"",0,1626,"down-left-4sec","2","100same0switch","example",0,TRUE,FALSE,4,TRUE,"15","familiarization"
"Jan 17 2015","18:29:21",5,"Live",1,"Zero",4,"Chrome",0,"Same",1,"Novel14",1,"Novel14",1,11173,"up-right-4sec","1","100same0switch","exposure",0,TRUE,FALSE,4,TRUE,"15","familiarization"
"Jan 17 2015","18:29:21",6,"Live",1,"Zero",4,"Chrome",0,"Same",1,"Novel14",1,"Novel14",1,2763,"straight-ahead","-1","100same0switch","test",0,TRUE,TRUE,4,TRUE,"15","familiarization"
"Jan 17 2015","18:29:21",7,"Live",1,"Zero",4,"Chrome",1,"Same",0,"Novel114",3,"Novel114",3,2687,"down-right-4sec","3","100same0switch","exposure",0,TRUE,FALSE,4,TRUE,"15","familiarization"
"Jan 17 2015","18:29:21",8,"Live",1,"Zero",4,"Chrome",1,"Same",0,"Novel114",0,"Novel114",3,3601,"straight-ahead","-1","100same0switch","test",0,TRUE,FALSE,4,TRUE,"15","familiarization"
"Jan 17 2015","18:29:21",9,"Live",1,"Zero",4,"Chrome",2,"Same",1,"Novel74",1,"Novel74",1,2779,"up-right-4sec","1","100same0switch","exposure",0,TRUE,FALSE,4,TRUE,"15","familiarization"
"Jan 17 2015","18:29:21",10,"Live",1,"Zero",4,"Chrome",2,"Same",1,"Novel74",1,"Novel74",1,1070,"straight-ahead","-1","100same0switch","test",0,TRUE,FALSE,4,TRUE,"15","familiarization"
"Jan 17 2015","18:29:21",11,"Live",1,"Zero",4,"Chrome",3,"Same",0,"Novel33",0,"Novel33",0,2334,"up-left-4sec","0","100same0switch","exposure",0,TRUE,FALSE,4,TRUE,"15","familiarization"
"Jan 17 2015","18:29:21",12,"Live",1,"Zero",4,"Chrome",3,"Same",0,"Novel33",3,"Novel33",0,1287,"straight-ahead","-1","100same0switch","test",0,TRUE,FALSE,4,TRUE,"15","familiarization"
"Jan 17 2015","18:29:21",13,"Live",1,"Zero",4,"Chrome",4,"Same",0,"Novel42",3,"Novel42",3,1992,"down-right-4sec","3","100same0switch","exposure",0,TRUE,FALSE,4,TRUE,"15","familiarization"
"Jan 17 2015","18:29:21",14,"Live",1,"Zero",4,"Chrome",4,"Same",0,"Novel42",2,"Novel42",3,784,"straight-ahead","-1","100same0switch","test",0,TRUE,FALSE,4,TRUE,"15","familiarization"
"Jan 17 2015","18:29:21",15,"Live",1,"Zero",4,"Chrome",5,"Same",1,"Novel106",3,"Novel106",3,2185,"down-right-4sec","3","100same0switch","exposure",0,TRUE,FALSE,4,TRUE,"15","familiarization"
"Jan 17 2015","18:29:21",16,"Live",1,"Zero",4,"Chrome",5,"Same",1,"Novel106",3,"Novel106",3,960,"straight-ahead","-1","100same0switch","test",0,TRUE,FALSE,4,TRUE,"15","familiarization"
"Jan 17 2015","18:29:21",17,"Live",1,"Zero",4,"Chrome",6,"Same",0,"Novel99",0,"Novel99",0,2303,"up-left-4sec","0","100same0switch","exposure",0,TRUE,FALSE,4,TRUE,"15","familiarization"
"Jan 17 2015","18:29:21",18,"Live",1,"Zero",4,"Chrome",6,"Same",0,"Novel99",3,"Novel99",0,816,"straight-ahead","-1","100same0switch","test",0,TRUE,FALSE,4,TRUE,"15","familiarization"
"Jan 17 2015","18:29:21",19,"Live",1,"Zero",4,"Chrome",7,"Same",1,"Novel88",1,"Novel88",1,2051,"up-right-4sec","1","100same0switch","exposure",0,TRUE,FALSE,4,TRUE,"15","familiarization"
"Jan 17 2015","18:29:21",20,"Live",1,"Zero",4,"Chrome",7,"Same",1,"Novel88",1,"Novel88",1,925,"straight-ahead","-1","100same0switch","test",0,TRUE,FALSE,4,TRUE,"15","familiarization"
"Jan 17 2015","18:29:21",21,"Live",1,"Zero",4,"Chrome",8,"Switch",1,"Novel43",1,"Novel126",0,2202,"up-right-4sec","1","100same0switch","exposure",0,TRUE,FALSE,4,TRUE,"15","test"
"Jan 17 2015","18:29:21",22,"Live",1,"Zero",4,"Chrome",8,"Switch",1,"Novel126",0,"Novel126",0,5511,"straight-ahead","-1","100same0switch","test",0,TRUE,FALSE,4,TRUE,"15","test"
"Jan 17 2015","18:29:21",23,"Live",1,"Zero",4,"Chrome",9,"Same",0,"Novel140",0,"Novel140",0,2325,"up-left-4sec","0","100same0switch","exposure",0,TRUE,FALSE,4,TRUE,"15","test"
"Jan 17 2015","18:29:21",24,"Live",1,"Zero",4,"Chrome",9,"Same",0,"Novel140",3,"Novel140",0,767,"straight-ahead","-1","100same0switch","test",0,TRUE,FALSE,4,TRUE,"15","test"
"Jan 17 2015","18:29:21",25,"Live",1,"Zero",4,"Chrome",10,"Switch",1,"Novel56",0,"Novel92",3,2376,"up-left-4sec","0","100same0switch","exposure",0,TRUE,FALSE,4,TRUE,"15","test"
"Jan 17 2015","18:29:21",26,"Live",1,"Zero",4,"Chrome",10,"Switch",1,"Novel123",0,"Novel92",3,3285,"straight-ahead","-1","100same0switch","test",0,TRUE,FALSE,4,FALSE,"15","test"
"Jan 17 2015","18:29:21",27,"Live",1,"Zero",4,"Chrome",11,"Same",0,"Novel105",2,"Novel105",2,3385,"down-left-4sec","2","100same0switch","exposure",0,TRUE,FALSE,4,TRUE,"15","test"
"Jan 17 2015","18:29:21",28,"Live",1,"Zero",4,"Chrome",11,"Same",0,"Novel105",0,"Novel105",2,1396,"straight-ahead","-1","100same0switch","test",0,TRUE,FALSE,4,TRUE,"15","test"
"Jan 17 2015","18:29:21",29,"Live",1,"Zero",4,"Chrome",12,"Switch",0,"Novel116",3,"Novel58",2,1953,"down-right-4sec","3","100same0switch","exposure",0,TRUE,FALSE,4,TRUE,"15","test"
"Jan 17 2015","18:29:21",30,"Live",1,"Zero",4,"Chrome",12,"Switch",0,"Novel91",2,"Novel58",2,1486,"straight-ahead","-1","100same0switch","test",0,TRUE,FALSE,4,FALSE,"15","test"
"Jan 17 2015","18:29:21",31,"Live",1,"Zero",4,"Chrome",13,"Same",1,"Novel61",0,"Novel61",0,1748,"up-left-4sec","0","100same0switch","exposure",0,TRUE,FALSE,4,TRUE,"15","test"
"Jan 17 2015","18:29:21",32,"Live",1,"Zero",4,"Chrome",13,"Same",1,"Novel61",0,"Novel61",0,559,"straight-ahead","-1","100same0switch","test",0,TRUE,FALSE,4,TRUE,"15","test"
"Jan 17 2015","18:29:21",33,"Live",1,"Zero",4,"Chrome",14,"Switch",0,"Novel16",1,"Novel67",2,1975,"up-right-4sec","1","100same0switch","exposure",0,TRUE,FALSE,4,TRUE,"15","test"
"Jan 17 2015","18:29:21",34,"Live",1,"Zero",4,"Chrome",14,"Switch",0,"Novel30",0,"Novel67",2,2150,"straight-ahead","-1","100same0switch","test",0,TRUE,FALSE,4,FALSE,"15","test"
"Jan 17 2015","18:29:21",35,"Live",1,"Zero",4,"Chrome",15,"Same",1,"Novel68",3,"Novel68",3,1828,"down-right-4sec","3","100same0switch","exposure",0,TRUE,FALSE,4,TRUE,"15","test"
"Jan 17 2015","18:29:21",36,"Live",1,"Zero",4,"Chrome",15,"Same",1,"Novel68",3,"Novel68",3,535,"straight-ahead","-1","100same0switch","test",0,TRUE,FALSE,4,TRUE,"15","test"
"Jan 17 2015","16:18:48",1,"Live",1,"Zero",4,"Chrome",0,"Same",1,"squirrel",0,"",0,681,"up-left-4sec","0","100same0switch","example",0,TRUE,FALSE,4,TRUE,"16","familiarization"
"Jan 17 2015","16:18:48",2,"Live",1,"Zero",4,"Chrome",0,"Same",1,"squirrel",0,"",0,575,"up-left-4sec","0","100same0switch","example",0,TRUE,FALSE,4,TRUE,"16","familiarization"
"Jan 17 2015","16:18:48",3,"Live",1,"Zero",4,"Chrome",0,"Same",1,"tomato",1,"",0,465,"up-right-4sec","1","100same0switch","example",0,TRUE,FALSE,4,TRUE,"16","familiarization"
"Jan 17 2015","16:18:48",4,"Live",1,"Zero",4,"Chrome",0,"Same",1,"tomato",2,"",0,285,"down-left-4sec","2","100same0switch","example",0,TRUE,FALSE,4,TRUE,"16","familiarization"
"Jan 17 2015","16:18:48",5,"Live",1,"Zero",4,"Chrome",0,"Same",1,"Novel95",0,"Novel95",0,535,"up-left-4sec","0","100same0switch","exposure",0,TRUE,FALSE,4,TRUE,"16","familiarization"
"Jan 17 2015","16:18:48",6,"Live",1,"Zero",4,"Chrome",0,"Same",1,"Novel95",0,"Novel95",0,639,"straight-ahead","-1","100same0switch","test",0,TRUE,TRUE,4,TRUE,"16","familiarization"
"Jan 17 2015","16:18:48",7,"Live",1,"Zero",4,"Chrome",1,"Same",1,"Novel101",0,"Novel101",0,961,"up-left-4sec","0","100same0switch","exposure",0,TRUE,FALSE,4,TRUE,"16","familiarization"
"Jan 17 2015","16:18:48",8,"Live",1,"Zero",4,"Chrome",1,"Same",1,"Novel101",0,"Novel101",0,696,"straight-ahead","-1","100same0switch","test",0,TRUE,FALSE,4,TRUE,"16","familiarization"
"Jan 17 2015","16:18:48",9,"Live",1,"Zero",4,"Chrome",2,"Same",0,"Novel30",1,"Novel30",1,621,"up-right-4sec","1","100same0switch","exposure",0,TRUE,FALSE,4,TRUE,"16","familiarization"
"Jan 17 2015","16:18:48",10,"Live",1,"Zero",4,"Chrome",2,"Same",0,"Novel30",2,"Novel30",1,397,"straight-ahead","-1","100same0switch","test",0,TRUE,FALSE,4,TRUE,"16","familiarization"
"Jan 17 2015","16:18:48",11,"Live",1,"Zero",4,"Chrome",3,"Same",0,"Novel127",1,"Novel127",1,301,"up-right-4sec","1","100same0switch","exposure",0,TRUE,FALSE,4,TRUE,"16","familiarization"
"Jan 17 2015","16:18:48",12,"Live",1,"Zero",4,"Chrome",3,"Same",0,"Novel127",3,"Novel127",1,262,"straight-ahead","-1","100same0switch","test",0,TRUE,FALSE,4,TRUE,"16","familiarization"
