"submit.date","submit.time","trial.num","gazeLength","condition","interval","numPic","browser","itemNum","trialType","samePos","chosen","chosenIdx","kept","keptIdx","rt","face","faceIdx","trial_cat","intervalNum","include","first.trial","numPicN","correct","subids"
"Jan 13 2015","22:37:50",1,"Live","No-social","Three",4,"Chrome",0,"Same",0,"squirrel",0,"",0,4121,"up-left-4sec","0","example",3,TRUE,FALSE,4,TRUE,"1"
"Jan 13 2015","22:37:50",2,"Live","No-social","Three",4,"Chrome",0,"Same",0,"squirrel",0,"",0,2059,"up-left-4sec","0","example",3,TRUE,FALSE,4,TRUE,"1"
"Jan 13 2015","22:37:50",3,"Live","No-social","Three",4,"Chrome",0,"Same",0,"tomato",1,"",0,557,"up-right-4sec","1","example",3,TRUE,FALSE,4,TRUE,"1"
"Jan 13 2015","22:37:50",4,"Live","No-social","Three",4,"Chrome",0,"Same",0,"tomato",2,"",0,697,"down-left-4sec","2","example",3,TRUE,FALSE,4,TRUE,"1"
"Jan 13 2015","22:37:50",5,"Live","No-social","Three",4,"Chrome",0,"Same",0,"Novel21",1,"Novel21",1,14408,"straight-ahead","-1","exposure",3,TRUE,FALSE,4,FALSE,"1"
"Jan 13 2015","22:37:50",6,"Live","No-social","Three",4,"Chrome",1,"Switch",0,"Novel36",0,"Novel62",1,2441,"straight-ahead","-1","exposure",3,TRUE,FALSE,4,FALSE,"1"
"Jan 13 2015","22:37:50",7,"Live","No-social","Three",4,"Chrome",2,"Same",1,"Novel96",1,"Novel96",1,1820,"straight-ahead","-1","exposure",3,TRUE,FALSE,4,FALSE,"1"
"Jan 13 2015","22:37:50",8,"Live","No-social","Three",4,"Chrome",3,"Switch",1,"Novel139",2,"Novel124",0,1488,"straight-ahead","-1","exposure",3,TRUE,FALSE,4,FALSE,"1"
"Jan 13 2015","22:37:50",9,"Live","No-social","Three",4,"Chrome",0,"Same",0,"Novel31",3,"Novel21",1,1929,"straight-ahead","-1","test",3,TRUE,TRUE,4,FALSE,"1"
"Jan 13 2015","22:37:50",10,"Live","No-social","Three",4,"Chrome",1,"Switch",0,"Novel62",0,"Novel62",1,3039,"straight-ahead","-1","test",3,TRUE,FALSE,4,TRUE,"1"
"Jan 13 2015","22:37:50",11,"Live","No-social","Three",4,"Chrome",2,"Same",1,"Novel15",2,"Novel96",1,3082,"straight-ahead","-1","test",3,TRUE,FALSE,4,FALSE,"1"
"Jan 13 2015","22:37:50",12,"Live","No-social","Three",4,"Chrome",3,"Switch",1,"Novel17",1,"Novel124",0,5330,"straight-ahead","-1","test",3,TRUE,FALSE,4,FALSE,"1"
"Jan 13 2015","22:37:50",13,"Live","No-social","Three",4,"Chrome",4,"Same",1,"Novel118",0,"Novel118",0,3554,"straight-ahead","-1","exposure",3,TRUE,FALSE,4,FALSE,"1"
"Jan 13 2015","22:37:50",14,"Live","No-social","Three",4,"Chrome",5,"Switch",1,"Novel108",1,"Novel78",0,3746,"straight-ahead","-1","exposure",3,TRUE,FALSE,4,FALSE,"1"
"Jan 13 2015","22:37:50",15,"Live","No-social","Three",4,"Chrome",6,"Same",0,"Novel119",0,"Novel119",0,1727,"straight-ahead","-1","exposure",3,TRUE,FALSE,4,FALSE,"1"
"Jan 13 2015","22:37:50",16,"Live","No-social","Three",4,"Chrome",7,"Switch",0,"Novel123",2,"Novel41",0,3134,"straight-ahead","-1","exposure",3,TRUE,FALSE,4,FALSE,"1"
"Jan 13 2015","22:37:50",17,"Live","No-social","Three",4,"Chrome",4,"Same",1,"Novel64",1,"Novel118",0,653,"straight-ahead","-1","test",3,TRUE,FALSE,4,FALSE,"1"
"Jan 13 2015","22:37:50",18,"Live","No-social","Three",4,"Chrome",5,"Switch",1,"Novel78",0,"Novel78",0,2250,"straight-ahead","-1","test",3,TRUE,FALSE,4,TRUE,"1"
"Jan 13 2015","22:37:50",19,"Live","No-social","Three",4,"Chrome",6,"Same",0,"Novel28",2,"Novel119",0,1971,"straight-ahead","-1","test",3,TRUE,FALSE,4,FALSE,"1"
"Jan 13 2015","22:37:50",20,"Live","No-social","Three",4,"Chrome",7,"Switch",0,"Novel106",3,"Novel41",0,1308,"straight-ahead","-1","test",3,TRUE,FALSE,4,FALSE,"1"
"Jan 13 2015","22:37:50",21,"Live","No-social","Three",4,"Chrome",8,"Same",0,"Novel130",1,"Novel130",1,2219,"straight-ahead","-1","exposure",3,TRUE,FALSE,4,FALSE,"1"
"Jan 13 2015","22:37:50",22,"Live","No-social","Three",4,"Chrome",9,"Switch",0,"Novel120",0,"Novel4",2,2587,"straight-ahead","-1","exposure",3,TRUE,FALSE,4,FALSE,"1"
"Jan 13 2015","22:37:50",23,"Live","No-social","Three",4,"Chrome",10,"Same",1,"Novel73",0,"Novel73",0,525,"straight-ahead","-1","exposure",3,TRUE,FALSE,4,FALSE,"1"
"Jan 13 2015","22:37:50",24,"Live","No-social","Three",4,"Chrome",11,"Switch",1,"Novel46",3,"Novel105",2,1592,"straight-ahead","-1","exposure",3,TRUE,FALSE,4,FALSE,"1"
"Jan 13 2015","22:37:50",25,"Live","No-social","Three",4,"Chrome",8,"Same",0,"Novel29",0,"Novel130",1,242,"straight-ahead","-1","test",3,TRUE,FALSE,4,FALSE,"1"
"Jan 13 2015","22:37:50",26,"Live","No-social","Three",4,"Chrome",9,"Switch",0,"Novel4",1,"Novel4",2,566,"straight-ahead","-1","test",3,TRUE,FALSE,4,TRUE,"1"
"Jan 13 2015","22:37:50",27,"Live","No-social","Three",4,"Chrome",10,"Same",1,"Novel25",3,"Novel73",0,1970,"straight-ahead","-1","test",3,TRUE,FALSE,4,FALSE,"1"
"Jan 13 2015","22:37:50",28,"Live","No-social","Three",4,"Chrome",11,"Switch",1,"Novel97",0,"Novel105",2,2192,"straight-ahead","-1","test",3,TRUE,FALSE,4,FALSE,"1"
"Jan 13 2015","22:37:50",29,"Live","No-social","Three",4,"Chrome",12,"Same",1,"Novel42",3,"Novel42",3,2310,"straight-ahead","-1","exposure",3,TRUE,FALSE,4,FALSE,"1"
"Jan 13 2015","22:37:50",30,"Live","No-social","Three",4,"Chrome",13,"Switch",1,"Novel2",1,"Novel113",3,639,"straight-ahead","-1","exposure",3,TRUE,FALSE,4,FALSE,"1"
"Jan 13 2015","22:37:50",31,"Live","No-social","Three",4,"Chrome",14,"Same",0,"Novel23",0,"Novel23",0,2048,"straight-ahead","-1","exposure",3,TRUE,FALSE,4,FALSE,"1"
"Jan 13 2015","22:37:50",32,"Live","No-social","Three",4,"Chrome",15,"Switch",0,"Novel112",1,"Novel56",2,1023,"straight-ahead","-1","exposure",3,TRUE,FALSE,4,FALSE,"1"
"Jan 13 2015","22:37:50",33,"Live","No-social","Three",4,"Chrome",12,"Same",1,"Novel99",1,"Novel42",3,934,"straight-ahead","-1","test",3,TRUE,FALSE,4,FALSE,"1"
"Jan 13 2015","22:37:50",34,"Live","No-social","Three",4,"Chrome",13,"Switch",1,"Novel113",3,"Novel113",3,1210,"straight-ahead","-1","test",3,TRUE,FALSE,4,TRUE,"1"
"Jan 13 2015","22:37:50",35,"Live","No-social","Three",4,"Chrome",14,"Same",0,"Novel85",2,"Novel23",0,864,"straight-ahead","-1","test",3,TRUE,FALSE,4,FALSE,"1"
"Jan 13 2015","22:37:50",36,"Live","No-social","Three",4,"Chrome",15,"Switch",0,"Novel8",2,"Novel56",2,1280,"straight-ahead","-1","test",3,TRUE,FALSE,4,FALSE,"1"
"Jan 13 2015","21:22:58",1,"Live","No-social","Three",4,"Chrome",0,"Switch",1,"squirrel",0,"",0,1389,"up-left-4sec","0","example",3,TRUE,FALSE,4,TRUE,"2"
"Jan 13 2015","21:22:58",2,"Live","No-social","Three",4,"Chrome",0,"Switch",1,"squirrel",0,"",0,1474,"up-left-4sec","0","example",3,TRUE,FALSE,4,TRUE,"2"
"Jan 13 2015","21:22:58",3,"Live","No-social","Three",4,"Chrome",0,"Switch",1,"tomato",1,"",0,949,"up-right-4sec","1","example",3,TRUE,FALSE,4,TRUE,"2"
"Jan 13 2015","21:22:58",4,"Live","No-social","Three",4,"Chrome",0,"Switch",1,"tomato",2,"",0,379,"down-left-4sec","2","example",3,TRUE,FALSE,4,TRUE,"2"
"Jan 13 2015","21:22:58",5,"Live","No-social","Three",4,"Chrome",0,"Switch",1,"Novel128",1,"Novel90",2,9647,"straight-ahead","-1","exposure",3,TRUE,FALSE,4,FALSE,"2"
"Jan 13 2015","21:22:58",6,"Live","No-social","Three",4,"Chrome",1,"Same",1,"Novel1",3,"Novel1",3,3276,"straight-ahead","-1","exposure",3,TRUE,FALSE,4,FALSE,"2"
"Jan 13 2015","21:22:58",7,"Live","No-social","Three",4,"Chrome",2,"Switch",0,"Novel136",1,"Novel49",3,3711,"straight-ahead","-1","exposure",3,TRUE,FALSE,4,FALSE,"2"
"Jan 13 2015","21:22:58",8,"Live","No-social","Three",4,"Chrome",3,"Same",1,"Novel19",1,"Novel19",1,2770,"straight-ahead","-1","exposure",3,TRUE,FALSE,4,FALSE,"2"
"Jan 13 2015","21:22:58",9,"Live","No-social","Three",4,"Chrome",0,"Switch",1,"Novel90",2,"Novel90",2,3127,"straight-ahead","-1","test",3,TRUE,TRUE,4,TRUE,"2"
"Jan 13 2015","21:22:58",10,"Live","No-social","Three",4,"Chrome",1,"Same",1,"Novel1",3,"Novel1",3,3571,"straight-ahead","-1","test",3,TRUE,FALSE,4,TRUE,"2"
"Jan 13 2015","21:22:58",11,"Live","No-social","Three",4,"Chrome",2,"Switch",0,"Novel49",2,"Novel49",3,1366,"straight-ahead","-1","test",3,TRUE,FALSE,4,TRUE,"2"
"Jan 13 2015","21:22:58",12,"Live","No-social","Three",4,"Chrome",3,"Same",1,"Novel121",3,"Novel19",1,2465,"straight-ahead","-1","test",3,TRUE,FALSE,4,FALSE,"2"
"Jan 13 2015","21:22:58",13,"Live","No-social","Three",4,"Chrome",4,"Switch",1,"Novel79",1,"Novel21",0,1457,"straight-ahead","-1","exposure",3,TRUE,FALSE,4,FALSE,"2"
"Jan 13 2015","21:22:58",14,"Live","No-social","Three",4,"Chrome",5,"Same",0,"Novel114",3,"Novel114",3,1656,"straight-ahead","-1","exposure",3,TRUE,FALSE,4,FALSE,"2"
"Jan 13 2015","21:22:58",15,"Live","No-social","Three",4,"Chrome",6,"Switch",0,"Novel29",0,"Novel97",3,7239,"straight-ahead","-1","exposure",3,TRUE,FALSE,4,FALSE,"2"
"Jan 13 2015","21:22:58",16,"Live","No-social","Three",4,"Chrome",7,"Same",0,"Novel44",1,"Novel44",1,1610,"straight-ahead","-1","exposure",3,TRUE,FALSE,4,FALSE,"2"
"Jan 13 2015","21:22:58",17,"Live","No-social","Three",4,"Chrome",4,"Switch",1,"Novel134",2,"Novel21",0,8077,"straight-ahead","-1","test",3,TRUE,FALSE,4,FALSE,"2"
"Jan 13 2015","21:22:58",18,"Live","No-social","Three",4,"Chrome",5,"Same",0,"Novel110",2,"Novel114",3,37196,"straight-ahead","-1","test",3,TRUE,FALSE,4,FALSE,"2"
"Jan 13 2015","21:22:58",19,"Live","No-social","Three",4,"Chrome",6,"Switch",0,"Novel15",0,"Novel97",3,1470,"straight-ahead","-1","test",3,TRUE,FALSE,4,FALSE,"2"
"Jan 13 2015","21:22:58",20,"Live","No-social","Three",4,"Chrome",7,"Same",0,"Novel120",3,"Novel44",1,1941,"straight-ahead","-1","test",3,TRUE,FALSE,4,FALSE,"2"
"Jan 13 2015","21:22:58",21,"Live","No-social","Three",4,"Chrome",8,"Switch",1,"Novel5",1,"Novel18",3,2163,"straight-ahead","-1","exposure",3,TRUE,FALSE,4,FALSE,"2"
"Jan 13 2015","21:22:58",22,"Live","No-social","Three",4,"Chrome",9,"Same",1,"Novel48",2,"Novel48",2,1236,"straight-ahead","-1","exposure",3,TRUE,FALSE,4,FALSE,"2"
"Jan 13 2015","21:22:58",23,"Live","No-social","Three",4,"Chrome",10,"Switch",0,"Novel33",2,"Novel118",3,1059,"straight-ahead","-1","exposure",3,TRUE,FALSE,4,FALSE,"2"
"Jan 13 2015","21:22:58",24,"Live","No-social","Three",4,"Chrome",11,"Same",1,"Novel112",0,"Novel112",0,1957,"straight-ahead","-1","exposure",3,TRUE,FALSE,4,FALSE,"2"
"Jan 13 2015","21:22:58",25,"Live","No-social","Three",4,"Chrome",8,"Switch",1,"Novel61",1,"Novel18",3,6756,"straight-ahead","-1","test",3,TRUE,FALSE,4,FALSE,"2"
"Jan 13 2015","21:22:58",26,"Live","No-social","Three",4,"Chrome",9,"Same",1,"Novel27",3,"Novel48",2,2109,"straight-ahead","-1","test",3,TRUE,FALSE,4,FALSE,"2"
"Jan 13 2015","21:22:58",27,"Live","No-social","Three",4,"Chrome",10,"Switch",0,"Novel118",1,"Novel118",3,1156,"straight-ahead","-1","test",3,TRUE,FALSE,4,TRUE,"2"
"Jan 13 2015","21:22:58",28,"Live","No-social","Three",4,"Chrome",11,"Same",1,"Novel23",3,"Novel112",0,1090,"straight-ahead","-1","test",3,TRUE,FALSE,4,FALSE,"2"
"Jan 13 2015","21:22:58",29,"Live","No-social","Three",4,"Chrome",12,"Switch",1,"Novel75",2,"Novel125",0,2023,"straight-ahead","-1","exposure",3,TRUE,FALSE,4,FALSE,"2"
"Jan 13 2015","21:22:58",30,"Live","No-social","Three",4,"Chrome",13,"Same",0,"Novel42",2,"Novel42",2,1611,"straight-ahead","-1","exposure",3,TRUE,FALSE,4,FALSE,"2"
"Jan 13 2015","21:22:58",31,"Live","No-social","Three",4,"Chrome",14,"Switch",0,"Novel31",3,"Novel106",1,61423,"straight-ahead","-1","exposure",3,TRUE,FALSE,4,FALSE,"2"
"Jan 13 2015","21:22:58",32,"Live","No-social","Three",4,"Chrome",15,"Same",0,"Novel30",2,"Novel30",2,5410,"straight-ahead","-1","exposure",3,TRUE,FALSE,4,FALSE,"2"
"Jan 13 2015","21:22:58",33,"Live","No-social","Three",4,"Chrome",12,"Switch",1,"Novel52",1,"Novel125",0,4480,"straight-ahead","-1","test",3,TRUE,FALSE,4,FALSE,"2"
"Jan 13 2015","21:22:58",34,"Live","No-social","Three",4,"Chrome",13,"Same",0,"Novel42",0,"Novel42",2,1663,"straight-ahead","-1","test",3,TRUE,FALSE,4,TRUE,"2"
"Jan 13 2015","21:22:58",35,"Live","No-social","Three",4,"Chrome",14,"Switch",0,"Novel106",3,"Novel106",1,1457,"straight-ahead","-1","test",3,TRUE,FALSE,4,TRUE,"2"
"Jan 13 2015","21:22:58",36,"Live","No-social","Three",4,"Chrome",15,"Same",0,"Novel30",0,"Novel30",2,276,"straight-ahead","-1","test",3,TRUE,FALSE,4,TRUE,"2"
"Jan 14 2015","19:25:16",1,"Live","Social","Three",4,"Mozilla",0,"Same",0,"squirrel",0,"",0,3787,"up-left-4sec","0","example",3,TRUE,FALSE,4,TRUE,"3"
"Jan 14 2015","19:25:16",2,"Live","Social","Three",4,"Mozilla",0,"Same",0,"squirrel",0,"",0,1482,"up-left-4sec","0","example",3,TRUE,FALSE,4,TRUE,"3"
"Jan 14 2015","19:25:16",3,"Live","Social","Three",4,"Mozilla",0,"Same",0,"tomato",1,"",0,2005,"up-right-4sec","1","example",3,TRUE,FALSE,4,TRUE,"3"
"Jan 14 2015","19:25:16",4,"Live","Social","Three",4,"Mozilla",0,"Same",0,"tomato",2,"",0,1818,"down-left-4sec","2","example",3,TRUE,FALSE,4,TRUE,"3"
"Jan 14 2015","19:25:16",5,"Live","Social","Three",4,"Mozilla",0,"Same",0,"Novel94",2,"Novel94",2,4978,"straight-ahead","-1","exposure",3,TRUE,FALSE,4,FALSE,"3"
"Jan 14 2015","19:25:16",6,"Live","Social","Three",4,"Mozilla",1,"Switch",0,"Novel89",3,"Novel38",2,6589,"straight-ahead","-1","exposure",3,TRUE,FALSE,4,FALSE,"3"
"Jan 14 2015","19:25:16",7,"Live","Social","Three",4,"Mozilla",2,"Same",1,"Novel46",2,"Novel46",2,3822,"straight-ahead","-1","exposure",3,TRUE,FALSE,4,FALSE,"3"
"Jan 14 2015","19:25:16",8,"Live","Social","Three",4,"Mozilla",3,"Switch",0,"Novel100",2,"Novel35",0,2924,"straight-ahead","-1","exposure",3,TRUE,FALSE,4,FALSE,"3"
"Jan 14 2015","19:25:16",9,"Live","Social","Three",4,"Mozilla",0,"Same",0,"Novel42",0,"Novel94",2,3747,"straight-ahead","-1","test",3,TRUE,TRUE,4,FALSE,"3"
"Jan 14 2015","19:25:16",10,"Live","Social","Three",4,"Mozilla",1,"Switch",0,"Novel69",1,"Novel38",2,4295,"straight-ahead","-1","test",3,TRUE,FALSE,4,FALSE,"3"
"Jan 14 2015","19:25:16",11,"Live","Social","Three",4,"Mozilla",2,"Same",1,"Novel108",3,"Novel46",2,4851,"straight-ahead","-1","test",3,TRUE,FALSE,4,FALSE,"3"
"Jan 14 2015","19:25:16",12,"Live","Social","Three",4,"Mozilla",3,"Switch",0,"Novel95",0,"Novel35",0,2695,"straight-ahead","-1","test",3,TRUE,FALSE,4,FALSE,"3"
"Jan 14 2015","19:25:16",13,"Live","Social","Three",4,"Mozilla",4,"Same",0,"Novel48",2,"Novel48",2,3214,"straight-ahead","-1","exposure",3,TRUE,FALSE,4,FALSE,"3"
"Jan 14 2015","19:25:16",14,"Live","Social","Three",4,"Mozilla",5,"Switch",1,"Novel80",3,"Novel111",1,4225,"straight-ahead","-1","exposure",3,TRUE,FALSE,4,FALSE,"3"
"Jan 14 2015","19:25:16",15,"Live","Social","Three",4,"Mozilla",6,"Same",1,"Novel75",1,"Novel75",1,3676,"straight-ahead","-1","exposure",3,TRUE,FALSE,4,FALSE,"3"
"Jan 14 2015","19:25:16",16,"Live","Social","Three",4,"Mozilla",7,"Switch",1,"Novel39",0,"Novel31",1,4759,"straight-ahead","-1","exposure",3,TRUE,FALSE,4,FALSE,"3"
"Jan 14 2015","19:25:16",17,"Live","Social","Three",4,"Mozilla",4,"Same",0,"Novel15",2,"Novel48",2,6402,"straight-ahead","-1","test",3,TRUE,FALSE,4,FALSE,"3"
"Jan 14 2015","19:25:16",18,"Live","Social","Three",4,"Mozilla",5,"Switch",1,"Novel111",1,"Novel111",1,7258,"straight-ahead","-1","test",3,TRUE,FALSE,4,TRUE,"3"
"Jan 14 2015","19:25:16",19,"Live","Social","Three",4,"Mozilla",6,"Same",1,"Novel75",1,"Novel75",1,4845,"straight-ahead","-1","test",3,TRUE,FALSE,4,TRUE,"3"
"Jan 14 2015","19:25:16",20,"Live","Social","Three",4,"Mozilla",7,"Switch",1,"Novel66",2,"Novel31",1,3074,"straight-ahead","-1","test",3,TRUE,FALSE,4,FALSE,"3"
"Jan 14 2015","19:25:16",21,"Live","Social","Three",4,"Mozilla",8,"Same",0,"Novel64",3,"Novel64",3,2072,"straight-ahead","-1","exposure",3,TRUE,FALSE,4,FALSE,"3"
"Jan 14 2015","19:25:16",22,"Live","Social","Three",4,"Mozilla",9,"Switch",0,"Novel121",0,"Novel16",2,2439,"straight-ahead","-1","exposure",3,TRUE,FALSE,4,FALSE,"3"
"Jan 14 2015","19:25:16",23,"Live","Social","Three",4,"Mozilla",10,"Same",1,"Novel116",2,"Novel116",2,3370,"straight-ahead","-1","exposure",3,TRUE,FALSE,4,FALSE,"3"
"Jan 14 2015","19:25:16",24,"Live","Social","Three",4,"Mozilla",11,"Switch",0,"Novel139",3,"Novel135",1,3257,"straight-ahead","-1","exposure",3,TRUE,FALSE,4,FALSE,"3"
"Jan 14 2015","19:25:16",25,"Live","Social","Three",4,"Mozilla",8,"Same",0,"Novel64",2,"Novel64",3,3400,"straight-ahead","-1","test",3,TRUE,FALSE,4,TRUE,"3"
"Jan 14 2015","19:25:16",26,"Live","Social","Three",4,"Mozilla",9,"Switch",0,"Novel118",0,"Novel16",2,6116,"straight-ahead","-1","test",3,TRUE,FALSE,4,FALSE,"3"
"Jan 14 2015","19:25:16",27,"Live","Social","Three",4,"Mozilla",10,"Same",1,"Novel116",2,"Novel116",2,1435,"straight-ahead","-1","test",3,TRUE,FALSE,4,TRUE,"3"
"Jan 14 2015","19:25:16",28,"Live","Social","Three",4,"Mozilla",11,"Switch",0,"Novel135",2,"Novel135",1,3021,"straight-ahead","-1","test",3,TRUE,FALSE,4,TRUE,"3"
"Jan 14 2015","19:25:16",29,"Live","Social","Three",4,"Mozilla",12,"Same",0,"Novel63",0,"Novel63",0,2631,"straight-ahead","-1","exposure",3,TRUE,FALSE,4,FALSE,"3"
"Jan 14 2015","19:25:16",30,"Live","Social","Three",4,"Mozilla",13,"Switch",1,"Novel76",1,"Novel88",2,1925,"straight-ahead","-1","exposure",3,TRUE,FALSE,4,FALSE,"3"
"Jan 14 2015","19:25:16",31,"Live","Social","Three",4,"Mozilla",14,"Same",1,"Novel109",2,"Novel109",2,2732,"straight-ahead","-1","exposure",3,TRUE,FALSE,4,FALSE,"3"
"Jan 14 2015","19:25:16",32,"Live","Social","Three",4,"Mozilla",15,"Switch",1,"Novel98",1,"Novel12",2,2961,"straight-ahead","-1","exposure",3,TRUE,FALSE,4,FALSE,"3"
"Jan 14 2015","19:25:16",33,"Live","Social","Three",4,"Mozilla",12,"Same",0,"Novel63",1,"Novel63",0,3828,"straight-ahead","-1","test",3,TRUE,FALSE,4,TRUE,"3"
"Jan 14 2015","19:25:16",34,"Live","Social","Three",4,"Mozilla",13,"Switch",1,"Novel88",2,"Novel88",2,3384,"straight-ahead","-1","test",3,TRUE,FALSE,4,TRUE,"3"
"Jan 14 2015","19:25:16",35,"Live","Social","Three",4,"Mozilla",14,"Same",1,"Novel59",3,"Novel109",2,6059,"straight-ahead","-1","test",3,TRUE,FALSE,4,FALSE,"3"
"Jan 14 2015","19:25:16",36,"Live","Social","Three",4,"Mozilla",15,"Switch",1,"Novel12",2,"Novel12",2,3231,"straight-ahead","-1","test",3,TRUE,FALSE,4,TRUE,"3"
"Jan 14 2015","09:47:49",1,"Live","Social","Three",4,"Chrome",0,"Same",1,"squirrel",0,"",0,2649,"up-left-4sec","0","example",3,TRUE,FALSE,4,TRUE,"4"
"Jan 14 2015","09:47:49",2,"Live","Social","Three",4,"Chrome",0,"Same",1,"squirrel",0,"",0,1099,"up-left-4sec","0","example",3,TRUE,FALSE,4,TRUE,"4"
"Jan 14 2015","09:47:49",3,"Live","Social","Three",4,"Chrome",0,"Same",1,"tomato",1,"",0,978,"up-right-4sec","1","example",3,TRUE,FALSE,4,TRUE,"4"
"Jan 14 2015","09:47:49",4,"Live","Social","Three",4,"Chrome",0,"Same",1,"tomato",2,"",0,939,"down-left-4sec","2","example",3,TRUE,FALSE,4,TRUE,"4"
"Jan 14 2015","09:47:49",5,"Live","Social","Three",4,"Chrome",0,"Same",1,"Novel108",1,"Novel108",1,4813,"straight-ahead","-1","exposure",3,TRUE,FALSE,4,FALSE,"4"
"Jan 14 2015","09:47:49",6,"Live","Social","Three",4,"Chrome",1,"Switch",0,"Novel25",3,"Novel68",0,3382,"straight-ahead","-1","exposure",3,TRUE,FALSE,4,FALSE,"4"
"Jan 14 2015","09:47:49",7,"Live","Social","Three",4,"Chrome",2,"Same",1,"Novel50",3,"Novel50",3,4420,"straight-ahead","-1","exposure",3,TRUE,FALSE,4,FALSE,"4"
"Jan 14 2015","09:47:49",8,"Live","Social","Three",4,"Chrome",3,"Switch",0,"Novel41",1,"Novel31",3,3535,"straight-ahead","-1","exposure",3,TRUE,FALSE,4,FALSE,"4"
"Jan 14 2015","09:47:49",9,"Live","Social","Three",4,"Chrome",0,"Same",1,"Novel108",1,"Novel108",1,2930,"straight-ahead","-1","test",3,TRUE,TRUE,4,TRUE,"4"
"Jan 14 2015","09:47:49",10,"Live","Social","Three",4,"Chrome",1,"Switch",0,"Novel104",1,"Novel68",0,3316,"straight-ahead","-1","test",3,TRUE,FALSE,4,FALSE,"4"
"Jan 14 2015","09:47:49",11,"Live","Social","Three",4,"Chrome",2,"Same",1,"Novel50",3,"Novel50",3,2480,"straight-ahead","-1","test",3,TRUE,FALSE,4,TRUE,"4"
"Jan 14 2015","09:47:49",12,"Live","Social","Three",4,"Chrome",3,"Switch",0,"Novel31",2,"Novel31",3,5222,"straight-ahead","-1","test",3,TRUE,FALSE,4,TRUE,"4"
"Jan 14 2015","09:47:49",13,"Live","Social","Three",4,"Chrome",4,"Same",0,"Novel111",0,"Novel111",0,3441,"straight-ahead","-1","exposure",3,TRUE,FALSE,4,FALSE,"4"
"Jan 14 2015","09:47:49",14,"Live","Social","Three",4,"Chrome",5,"Switch",1,"Novel67",2,"Novel129",0,2618,"straight-ahead","-1","exposure",3,TRUE,FALSE,4,FALSE,"4"
"Jan 14 2015","09:47:49",15,"Live","Social","Three",4,"Chrome",6,"Same",0,"Novel97",0,"Novel97",0,955,"straight-ahead","-1","exposure",3,TRUE,FALSE,4,FALSE,"4"
"Jan 14 2015","09:47:49",16,"Live","Social","Three",4,"Chrome",7,"Switch",1,"Novel7",0,"Novel6",1,514,"straight-ahead","-1","exposure",3,TRUE,FALSE,4,FALSE,"4"
"Jan 14 2015","09:47:49",17,"Live","Social","Three",4,"Chrome",4,"Same",0,"Novel111",1,"Novel111",0,2825,"straight-ahead","-1","test",3,TRUE,FALSE,4,TRUE,"4"
"Jan 14 2015","09:47:49",18,"Live","Social","Three",4,"Chrome",5,"Switch",1,"Novel103",3,"Novel129",0,1626,"straight-ahead","-1","test",3,TRUE,FALSE,4,FALSE,"4"
"Jan 14 2015","09:47:49",19,"Live","Social","Three",4,"Chrome",6,"Same",0,"Novel97",3,"Novel97",0,543,"straight-ahead","-1","test",3,TRUE,FALSE,4,TRUE,"4"
"Jan 14 2015","09:47:49",20,"Live","Social","Three",4,"Chrome",7,"Switch",1,"Novel58",0,"Novel6",1,2359,"straight-ahead","-1","test",3,TRUE,FALSE,4,FALSE,"4"
"Jan 14 2015","09:47:49",21,"Live","Social","Three",4,"Chrome",8,"Same",1,"Novel20",2,"Novel20",2,1544,"straight-ahead","-1","exposure",3,TRUE,FALSE,4,FALSE,"4"
"Jan 14 2015","09:47:49",22,"Live","Social","Three",4,"Chrome",9,"Switch",0,"Novel120",0,"Novel69",2,305,"straight-ahead","-1","exposure",3,TRUE,FALSE,4,FALSE,"4"
"Jan 14 2015","09:47:49",23,"Live","Social","Three",4,"Chrome",10,"Same",1,"Novel114",0,"Novel114",0,295,"straight-ahead","-1","exposure",3,TRUE,FALSE,4,FALSE,"4"
"Jan 14 2015","09:47:49",24,"Live","Social","Three",4,"Chrome",11,"Switch",0,"Novel2",1,"Novel85",3,528,"straight-ahead","-1","exposure",3,TRUE,FALSE,4,FALSE,"4"
"Jan 14 2015","09:47:49",25,"Live","Social","Three",4,"Chrome",8,"Same",1,"Novel20",2,"Novel20",2,243,"straight-ahead","-1","test",3,TRUE,FALSE,4,TRUE,"4"
"Jan 14 2015","09:47:49",26,"Live","Social","Three",4,"Chrome",9,"Switch",0,"Novel88",0,"Novel69",2,211,"straight-ahead","-1","test",3,TRUE,FALSE,4,FALSE,"4"
"Jan 14 2015","09:47:49",27,"Live","Social","Three",4,"Chrome",10,"Same",1,"Novel114",0,"Novel114",0,656,"straight-ahead","-1","test",3,TRUE,FALSE,4,TRUE,"4"
"Jan 14 2015","09:47:49",28,"Live","Social","Three",4,"Chrome",11,"Switch",0,"Novel40",3,"Novel85",3,404,"straight-ahead","-1","test",3,TRUE,FALSE,4,FALSE,"4"
"Jan 14 2015","09:47:49",29,"Live","Social","Three",4,"Chrome",12,"Same",0,"Novel138",0,"Novel138",0,901,"straight-ahead","-1","exposure",3,TRUE,FALSE,4,FALSE,"4"
"Jan 14 2015","09:47:49",30,"Live","Social","Three",4,"Chrome",13,"Switch",1,"Novel60",0,"Novel79",3,402,"straight-ahead","-1","exposure",3,TRUE,FALSE,4,FALSE,"4"
"Jan 14 2015","09:47:49",31,"Live","Social","Three",4,"Chrome",14,"Same",0,"Novel135",2,"Novel135",2,608,"straight-ahead","-1","exposure",3,TRUE,FALSE,4,FALSE,"4"
"Jan 14 2015","09:47:49",32,"Live","Social","Three",4,"Chrome",15,"Switch",1,"Novel65",0,"Novel54",3,845,"straight-ahead","-1","exposure",3,TRUE,FALSE,4,FALSE,"4"
"Jan 14 2015","09:47:49",33,"Live","Social","Three",4,"Chrome",12,"Same",0,"Novel138",3,"Novel138",0,134,"straight-ahead","-1","test",3,TRUE,FALSE,4,TRUE,"4"
"Jan 14 2015","09:47:49",34,"Live","Social","Three",4,"Chrome",13,"Switch",1,"Novel87",1,"Novel79",3,452,"straight-ahead","-1","test",3,TRUE,FALSE,4,FALSE,"4"
"Jan 14 2015","09:47:49",35,"Live","Social","Three",4,"Chrome",14,"Same",0,"Novel135",0,"Novel135",2,411,"straight-ahead","-1","test",3,TRUE,FALSE,4,TRUE,"4"
"Jan 14 2015","09:47:49",36,"Live","Social","Three",4,"Chrome",15,"Switch",1,"Novel100",0,"Novel54",3,514,"straight-ahead","-1","test",3,TRUE,FALSE,4,FALSE,"4"
"Jan 14 2015","00:36:34",1,"Live","Social","Three",4,"Firefox",0,"Switch",0,"squirrel",0,"",0,2100,"up-left-4sec","0","example",3,TRUE,FALSE,4,TRUE,"5"
"Jan 14 2015","00:36:34",2,"Live","Social","Three",4,"Firefox",0,"Switch",0,"squirrel",0,"",0,1120,"up-left-4sec","0","example",3,TRUE,FALSE,4,TRUE,"5"
"Jan 14 2015","00:36:34",3,"Live","Social","Three",4,"Firefox",0,"Switch",0,"tomato",1,"",0,1725,"up-right-4sec","1","example",3,TRUE,FALSE,4,TRUE,"5"
"Jan 14 2015","00:36:34",4,"Live","Social","Three",4,"Firefox",0,"Switch",0,"tomato",2,"",0,1069,"down-left-4sec","2","example",3,TRUE,FALSE,4,TRUE,"5"
"Jan 14 2015","00:36:34",5,"Live","Social","Three",4,"Firefox",0,"Switch",0,"Novel35",1,"Novel138",2,2256,"straight-ahead","-1","exposure",3,TRUE,FALSE,4,FALSE,"5"
"Jan 14 2015","00:36:34",6,"Live","Social","Three",4,"Firefox",1,"Same",1,"Novel7",2,"Novel7",2,2429,"straight-ahead","-1","exposure",3,TRUE,FALSE,4,FALSE,"5"
"Jan 14 2015","00:36:34",7,"Live","Social","Three",4,"Firefox",2,"Switch",1,"Novel107",1,"Novel119",2,1421,"straight-ahead","-1","exposure",3,TRUE,FALSE,4,FALSE,"5"
"Jan 14 2015","00:36:34",8,"Live","Social","Three",4,"Firefox",3,"Same",0,"Novel17",2,"Novel17",2,1626,"straight-ahead","-1","exposure",3,TRUE,FALSE,4,FALSE,"5"
"Jan 14 2015","00:36:34",9,"Live","Social","Three",4,"Firefox",0,"Switch",0,"Novel86",2,"Novel138",2,1822,"straight-ahead","-1","test",3,TRUE,TRUE,4,FALSE,"5"
"Jan 14 2015","00:36:34",10,"Live","Social","Three",4,"Firefox",1,"Same",1,"Novel7",2,"Novel7",2,2111,"straight-ahead","-1","test",3,TRUE,FALSE,4,TRUE,"5"
"Jan 14 2015","00:36:34",11,"Live","Social","Three",4,"Firefox",2,"Switch",1,"Novel48",1,"Novel119",2,2296,"straight-ahead","-1","test",3,TRUE,FALSE,4,FALSE,"5"
"Jan 14 2015","00:36:34",12,"Live","Social","Three",4,"Firefox",3,"Same",0,"Novel17",1,"Novel17",2,1663,"straight-ahead","-1","test",3,TRUE,FALSE,4,TRUE,"5"
"Jan 14 2015","00:36:34",13,"Live","Social","Three",4,"Firefox",4,"Switch",1,"Novel62",0,"Novel131",3,1677,"straight-ahead","-1","exposure",3,TRUE,FALSE,4,FALSE,"5"
"Jan 14 2015","00:36:34",14,"Live","Social","Three",4,"Firefox",5,"Same",1,"Novel3",3,"Novel3",3,1369,"straight-ahead","-1","exposure",3,TRUE,FALSE,4,FALSE,"5"
"Jan 14 2015","00:36:34",15,"Live","Social","Three",4,"Firefox",6,"Switch",0,"Novel32",1,"Novel73",3,3193,"straight-ahead","-1","exposure",3,TRUE,FALSE,4,FALSE,"5"
"Jan 14 2015","00:36:34",16,"Live","Social","Three",4,"Firefox",7,"Same",0,"Novel10",0,"Novel10",0,957,"straight-ahead","-1","exposure",3,TRUE,FALSE,4,FALSE,"5"
"Jan 14 2015","00:36:34",17,"Live","Social","Three",4,"Firefox",4,"Switch",1,"Novel117",1,"Novel131",3,1689,"straight-ahead","-1","test",3,TRUE,FALSE,4,FALSE,"5"
"Jan 14 2015","00:36:34",18,"Live","Social","Three",4,"Firefox",5,"Same",1,"Novel58",0,"Novel3",3,1091,"straight-ahead","-1","test",3,TRUE,FALSE,4,FALSE,"5"
"Jan 14 2015","00:36:34",19,"Live","Social","Three",4,"Firefox",6,"Switch",0,"Novel46",3,"Novel73",3,1094,"straight-ahead","-1","test",3,TRUE,FALSE,4,FALSE,"5"
"Jan 14 2015","00:36:34",20,"Live","Social","Three",4,"Firefox",7,"Same",0,"Novel4",2,"Novel10",0,1810,"straight-ahead","-1","test",3,TRUE,FALSE,4,FALSE,"5"
"Jan 14 2015","00:36:34",21,"Live","Social","Three",4,"Firefox",8,"Switch",0,"Novel134",2,"Novel53",0,1386,"straight-ahead","-1","exposure",3,TRUE,FALSE,4,FALSE,"5"
"Jan 14 2015","00:36:34",22,"Live","Social","Three",4,"Firefox",9,"Same",1,"Novel89",0,"Novel89",0,1017,"straight-ahead","-1","exposure",3,TRUE,FALSE,4,FALSE,"5"
"Jan 14 2015","00:36:34",23,"Live","Social","Three",4,"Firefox",10,"Switch",1,"Novel99",3,"Novel114",0,3790,"straight-ahead","-1","exposure",3,TRUE,FALSE,4,FALSE,"5"
"Jan 14 2015","00:36:34",24,"Live","Social","Three",4,"Firefox",11,"Same",0,"Novel18",2,"Novel18",2,2028,"straight-ahead","-1","exposure",3,TRUE,FALSE,4,FALSE,"5"
"Jan 14 2015","00:36:34",25,"Live","Social","Three",4,"Firefox",8,"Switch",0,"Novel72",1,"Novel53",0,1960,"straight-ahead","-1","test",3,TRUE,FALSE,4,FALSE,"5"
"Jan 14 2015","00:36:34",26,"Live","Social","Three",4,"Firefox",9,"Same",1,"Novel22",3,"Novel89",0,1231,"straight-ahead","-1","test",3,TRUE,FALSE,4,FALSE,"5"
"Jan 14 2015","00:36:34",27,"Live","Social","Three",4,"Firefox",10,"Switch",1,"Novel114",0,"Novel114",0,2233,"straight-ahead","-1","test",3,TRUE,FALSE,4,TRUE,"5"
"Jan 14 2015","00:36:34",28,"Live","Social","Three",4,"Firefox",11,"Same",0,"Novel18",3,"Novel18",2,1056,"straight-ahead","-1","test",3,TRUE,FALSE,4,TRUE,"5"
"Jan 14 2015","00:36:34",29,"Live","Social","Three",4,"Firefox",12,"Switch",1,"Novel49",2,"Novel69",3,1821,"straight-ahead","-1","exposure",3,TRUE,FALSE,4,FALSE,"5"
"Jan 14 2015","00:36:34",30,"Live","Social","Three",4,"Firefox",13,"Same",1,"Novel1",3,"Novel1",3,2040,"straight-ahead","-1","exposure",3,TRUE,FALSE,4,FALSE,"5"
"Jan 14 2015","00:36:34",31,"Live","Social","Three",4,"Firefox",14,"Switch",0,"Novel106",2,"Novel94",0,2602,"straight-ahead","-1","exposure",3,TRUE,FALSE,4,FALSE,"5"
"Jan 14 2015","00:36:34",32,"Live","Social","Three",4,"Firefox",15,"Same",0,"Novel64",1,"Novel64",1,1469,"straight-ahead","-1","exposure",3,TRUE,FALSE,4,FALSE,"5"
"Jan 14 2015","00:36:34",33,"Live","Social","Three",4,"Firefox",12,"Switch",1,"Novel69",3,"Novel69",3,2143,"straight-ahead","-1","test",3,TRUE,FALSE,4,TRUE,"5"
"Jan 14 2015","00:36:34",34,"Live","Social","Three",4,"Firefox",13,"Same",1,"Novel126",2,"Novel1",3,2072,"straight-ahead","-1","test",3,TRUE,FALSE,4,FALSE,"5"
"Jan 14 2015","00:36:34",35,"Live","Social","Three",4,"Firefox",14,"Switch",0,"Novel94",3,"Novel94",0,2892,"straight-ahead","-1","test",3,TRUE,FALSE,4,TRUE,"5"
"Jan 14 2015","00:36:34",36,"Live","Social","Three",4,"Firefox",15,"Same",0,"Novel64",2,"Novel64",1,1834,"straight-ahead","-1","test",3,TRUE,FALSE,4,TRUE,"5"
"Jan 14 2015","08:22:06",1,"Live","No-social","Three",4,"Chrome",0,"Same",1,"squirrel",0,"",0,1331,"up-left-4sec","0","example",3,TRUE,FALSE,4,TRUE,"6"
"Jan 14 2015","08:22:06",2,"Live","No-social","Three",4,"Chrome",0,"Same",1,"squirrel",0,"",0,901,"up-left-4sec","0","example",3,TRUE,FALSE,4,TRUE,"6"
"Jan 14 2015","08:22:06",3,"Live","No-social","Three",4,"Chrome",0,"Same",1,"tomato",1,"",0,809,"up-right-4sec","1","example",3,TRUE,FALSE,4,TRUE,"6"
"Jan 14 2015","08:22:06",4,"Live","No-social","Three",4,"Chrome",0,"Same",1,"tomato",2,"",0,1002,"down-left-4sec","2","example",3,TRUE,FALSE,4,TRUE,"6"
"Jan 14 2015","08:22:06",5,"Live","No-social","Three",4,"Chrome",0,"Same",1,"Novel87",3,"Novel87",3,1930,"straight-ahead","-1","exposure",3,TRUE,FALSE,4,FALSE,"6"
"Jan 14 2015","08:22:06",6,"Live","No-social","Three",4,"Chrome",1,"Switch",0,"Novel100",0,"Novel108",3,1675,"straight-ahead","-1","exposure",3,TRUE,FALSE,4,FALSE,"6"
"Jan 14 2015","08:22:06",7,"Live","No-social","Three",4,"Chrome",2,"Same",0,"Novel110",0,"Novel110",0,781,"straight-ahead","-1","exposure",3,TRUE,FALSE,4,FALSE,"6"
"Jan 14 2015","08:22:06",8,"Live","No-social","Three",4,"Chrome",3,"Switch",1,"Novel1",1,"Novel11",2,779,"straight-ahead","-1","exposure",3,TRUE,FALSE,4,FALSE,"6"
"Jan 14 2015","08:22:06",9,"Live","No-social","Three",4,"Chrome",0,"Same",1,"Novel80",0,"Novel87",3,1659,"straight-ahead","-1","test",3,TRUE,TRUE,4,FALSE,"6"
"Jan 14 2015","08:22:06",10,"Live","No-social","Three",4,"Chrome",1,"Switch",0,"Novel106",3,"Novel108",3,2467,"straight-ahead","-1","test",3,TRUE,FALSE,4,FALSE,"6"
"Jan 14 2015","08:22:06",11,"Live","No-social","Three",4,"Chrome",2,"Same",0,"Novel38",2,"Novel110",0,890,"straight-ahead","-1","test",3,TRUE,FALSE,4,FALSE,"6"
"Jan 14 2015","08:22:06",12,"Live","No-social","Three",4,"Chrome",3,"Switch",1,"Novel44",3,"Novel11",2,462,"straight-ahead","-1","test",3,TRUE,FALSE,4,FALSE,"6"
"Jan 14 2015","08:22:06",13,"Live","No-social","Three",4,"Chrome",4,"Same",1,"Novel32",1,"Novel32",1,575,"straight-ahead","-1","exposure",3,TRUE,FALSE,4,FALSE,"6"
"Jan 14 2015","08:22:06",14,"Live","No-social","Three",4,"Chrome",5,"Switch",0,"Novel134",0,"Novel26",2,875,"straight-ahead","-1","exposure",3,TRUE,FALSE,4,FALSE,"6"
"Jan 14 2015","08:22:06",15,"Live","No-social","Three",4,"Chrome",6,"Same",0,"Novel13",2,"Novel13",2,783,"straight-ahead","-1","exposure",3,TRUE,FALSE,4,FALSE,"6"
"Jan 14 2015","08:22:06",16,"Live","No-social","Three",4,"Chrome",7,"Switch",1,"Novel138",0,"Novel96",1,599,"straight-ahead","-1","exposure",3,TRUE,FALSE,4,FALSE,"6"
"Jan 14 2015","08:22:06",17,"Live","No-social","Three",4,"Chrome",4,"Same",1,"Novel58",2,"Novel32",1,672,"straight-ahead","-1","test",3,TRUE,FALSE,4,FALSE,"6"
"Jan 14 2015","08:22:06",18,"Live","No-social","Three",4,"Chrome",5,"Switch",0,"Novel24",1,"Novel26",2,2141,"straight-ahead","-1","test",3,TRUE,FALSE,4,FALSE,"6"
"Jan 14 2015","08:22:06",19,"Live","No-social","Three",4,"Chrome",6,"Same",0,"Novel48",0,"Novel13",2,944,"straight-ahead","-1","test",3,TRUE,FALSE,4,FALSE,"6"
"Jan 14 2015","08:22:06",20,"Live","No-social","Three",4,"Chrome",7,"Switch",1,"Novel68",2,"Novel96",1,735,"straight-ahead","-1","test",3,TRUE,FALSE,4,FALSE,"6"
"Jan 14 2015","08:22:06",21,"Live","No-social","Three",4,"Chrome",8,"Same",1,"Novel71",3,"Novel71",3,339,"straight-ahead","-1","exposure",3,TRUE,FALSE,4,FALSE,"6"
"Jan 14 2015","08:22:06",22,"Live","No-social","Three",4,"Chrome",9,"Switch",0,"Novel130",0,"Novel84",2,824,"straight-ahead","-1","exposure",3,TRUE,FALSE,4,FALSE,"6"
"Jan 14 2015","08:22:06",23,"Live","No-social","Three",4,"Chrome",10,"Same",0,"Novel60",2,"Novel60",2,599,"straight-ahead","-1","exposure",3,TRUE,FALSE,4,FALSE,"6"
"Jan 14 2015","08:22:06",24,"Live","No-social","Three",4,"Chrome",11,"Switch",1,"Novel12",3,"Novel82",2,757,"straight-ahead","-1","exposure",3,TRUE,FALSE,4,FALSE,"6"
"Jan 14 2015","08:22:06",25,"Live","No-social","Three",4,"Chrome",8,"Same",1,"Novel71",3,"Novel71",3,324,"straight-ahead","-1","test",3,TRUE,FALSE,4,TRUE,"6"
"Jan 14 2015","08:22:06",26,"Live","No-social","Three",4,"Chrome",9,"Switch",0,"Novel84",1,"Novel84",2,148,"straight-ahead","-1","test",3,TRUE,FALSE,4,TRUE,"6"
"Jan 14 2015","08:22:06",27,"Live","No-social","Three",4,"Chrome",10,"Same",0,"Novel109",2,"Novel60",2,965,"straight-ahead","-1","test",3,TRUE,FALSE,4,FALSE,"6"
"Jan 14 2015","08:22:06",28,"Live","No-social","Three",4,"Chrome",11,"Switch",1,"Novel43",3,"Novel82",2,839,"straight-ahead","-1","test",3,TRUE,FALSE,4,FALSE,"6"
"Jan 14 2015","08:22:06",29,"Live","No-social","Three",4,"Chrome",12,"Same",1,"Novel70",1,"Novel70",1,822,"straight-ahead","-1","exposure",3,TRUE,FALSE,4,FALSE,"6"
"Jan 14 2015","08:22:06",30,"Live","No-social","Three",4,"Chrome",13,"Switch",0,"Novel75",2,"Novel7",3,458,"straight-ahead","-1","exposure",3,TRUE,FALSE,4,FALSE,"6"
"Jan 14 2015","08:22:06",31,"Live","No-social","Three",4,"Chrome",14,"Same",0,"Novel55",2,"Novel55",2,667,"straight-ahead","-1","exposure",3,TRUE,FALSE,4,FALSE,"6"
"Jan 14 2015","08:22:06",32,"Live","No-social","Three",4,"Chrome",15,"Switch",1,"Novel22",2,"Novel65",1,673,"straight-ahead","-1","exposure",3,TRUE,FALSE,4,FALSE,"6"
"Jan 14 2015","08:22:06",33,"Live","No-social","Three",4,"Chrome",12,"Same",1,"Novel66",0,"Novel70",1,280,"straight-ahead","-1","test",3,TRUE,FALSE,4,FALSE,"6"
"Jan 14 2015","08:22:06",34,"Live","No-social","Three",4,"Chrome",13,"Switch",0,"Novel131",3,"Novel7",3,544,"straight-ahead","-1","test",3,TRUE,FALSE,4,FALSE,"6"
"Jan 14 2015","08:22:06",35,"Live","No-social","Three",4,"Chrome",14,"Same",0,"Novel55",1,"Novel55",2,474,"straight-ahead","-1","test",3,TRUE,FALSE,4,TRUE,"6"
"Jan 14 2015","08:22:06",36,"Live","No-social","Three",4,"Chrome",15,"Switch",1,"Novel117",3,"Novel65",1,806,"straight-ahead","-1","test",3,TRUE,FALSE,4,FALSE,"6"
"Jan 14 2015","08:54:16",1,"Live","No-social","Three",4,"Chrome",0,"Same",0,"squirrel",0,"",0,2148,"up-left-4sec","0","example",3,TRUE,FALSE,4,TRUE,"7"
"Jan 14 2015","08:54:16",2,"Live","No-social","Three",4,"Chrome",0,"Same",0,"squirrel",0,"",0,1224,"up-left-4sec","0","example",3,TRUE,FALSE,4,TRUE,"7"
"Jan 14 2015","08:54:16",3,"Live","No-social","Three",4,"Chrome",0,"Same",0,"tomato",1,"",0,1054,"up-right-4sec","1","example",3,TRUE,FALSE,4,TRUE,"7"
"Jan 14 2015","08:54:16",4,"Live","No-social","Three",4,"Chrome",0,"Same",0,"tomato",2,"",0,605,"down-left-4sec","2","example",3,TRUE,FALSE,4,TRUE,"7"
"Jan 14 2015","08:54:16",5,"Live","No-social","Three",4,"Chrome",0,"Same",0,"Novel112",0,"Novel112",0,3177,"straight-ahead","-1","exposure",3,TRUE,FALSE,4,FALSE,"7"
"Jan 14 2015","08:54:16",6,"Live","No-social","Three",4,"Chrome",1,"Switch",1,"Novel117",1,"Novel90",3,1417,"straight-ahead","-1","exposure",3,TRUE,FALSE,4,FALSE,"7"
"Jan 14 2015","08:54:16",7,"Live","No-social","Three",4,"Chrome",2,"Same",1,"Novel65",2,"Novel65",2,3507,"straight-ahead","-1","exposure",3,TRUE,FALSE,4,FALSE,"7"
"Jan 14 2015","08:54:16",8,"Live","No-social","Three",4,"Chrome",3,"Switch",0,"Novel80",2,"Novel57",3,6083,"straight-ahead","-1","exposure",3,TRUE,FALSE,4,FALSE,"7"
"Jan 14 2015","08:54:16",9,"Live","No-social","Three",4,"Chrome",0,"Same",0,"Novel112",2,"Novel112",0,1319,"straight-ahead","-1","test",3,TRUE,TRUE,4,TRUE,"7"
"Jan 14 2015","08:54:16",10,"Live","No-social","Three",4,"Chrome",1,"Switch",1,"Novel124",2,"Novel90",3,3263,"straight-ahead","-1","test",3,TRUE,FALSE,4,FALSE,"7"
"Jan 14 2015","08:54:16",11,"Live","No-social","Three",4,"Chrome",2,"Same",1,"Novel65",2,"Novel65",2,575,"straight-ahead","-1","test",3,TRUE,FALSE,4,TRUE,"7"
"Jan 14 2015","08:54:16",12,"Live","No-social","Three",4,"Chrome",3,"Switch",0,"Novel57",1,"Novel57",3,2688,"straight-ahead","-1","test",3,TRUE,FALSE,4,TRUE,"7"
"Jan 14 2015","08:54:16",13,"Live","No-social","Three",4,"Chrome",4,"Same",0,"Novel136",3,"Novel136",3,1118,"straight-ahead","-1","exposure",3,TRUE,FALSE,4,FALSE,"7"
"Jan 14 2015","08:54:16",14,"Live","No-social","Three",4,"Chrome",5,"Switch",1,"Novel68",1,"Novel94",0,1150,"straight-ahead","-1","exposure",3,TRUE,FALSE,4,FALSE,"7"
"Jan 14 2015","08:54:16",15,"Live","No-social","Three",4,"Chrome",6,"Same",1,"Novel98",1,"Novel98",1,1517,"straight-ahead","-1","exposure",3,TRUE,FALSE,4,FALSE,"7"
"Jan 14 2015","08:54:16",16,"Live","No-social","Three",4,"Chrome",7,"Switch",0,"Novel97",2,"Novel46",1,1999,"straight-ahead","-1","exposure",3,TRUE,FALSE,4,FALSE,"7"
"Jan 14 2015","08:54:16",17,"Live","No-social","Three",4,"Chrome",4,"Same",0,"Novel136",2,"Novel136",3,1476,"straight-ahead","-1","test",3,TRUE,FALSE,4,TRUE,"7"
"Jan 14 2015","08:54:16",18,"Live","No-social","Three",4,"Chrome",5,"Switch",1,"Novel94",0,"Novel94",0,2153,"straight-ahead","-1","test",3,TRUE,FALSE,4,TRUE,"7"
"Jan 14 2015","08:54:16",19,"Live","No-social","Three",4,"Chrome",6,"Same",1,"Novel98",1,"Novel98",1,1147,"straight-ahead","-1","test",3,TRUE,FALSE,4,TRUE,"7"
"Jan 14 2015","08:54:16",20,"Live","No-social","Three",4,"Chrome",7,"Switch",0,"Novel46",2,"Novel46",1,2382,"straight-ahead","-1","test",3,TRUE,FALSE,4,TRUE,"7"
"Jan 14 2015","08:54:16",21,"Live","No-social","Three",4,"Chrome",8,"Same",0,"Novel115",1,"Novel115",1,3729,"straight-ahead","-1","exposure",3,TRUE,FALSE,4,FALSE,"7"
"Jan 14 2015","08:54:16",22,"Live","No-social","Three",4,"Chrome",9,"Switch",1,"Novel28",3,"Novel83",0,3097,"straight-ahead","-1","exposure",3,TRUE,FALSE,4,FALSE,"7"
"Jan 14 2015","08:54:16",23,"Live","No-social","Three",4,"Chrome",10,"Same",1,"Novel48",1,"Novel48",1,1960,"straight-ahead","-1","exposure",3,TRUE,FALSE,4,FALSE,"7"
"Jan 14 2015","08:54:16",24,"Live","No-social","Three",4,"Chrome",11,"Switch",0,"Novel60",2,"Novel126",3,4703,"straight-ahead","-1","exposure",3,TRUE,FALSE,4,FALSE,"7"
"Jan 14 2015","08:54:16",25,"Live","No-social","Three",4,"Chrome",8,"Same",0,"Novel115",3,"Novel115",1,1557,"straight-ahead","-1","test",3,TRUE,FALSE,4,TRUE,"7"
"Jan 14 2015","08:54:16",26,"Live","No-social","Three",4,"Chrome",9,"Switch",1,"Novel83",0,"Novel83",0,956,"straight-ahead","-1","test",3,TRUE,FALSE,4,TRUE,"7"
"Jan 14 2015","08:54:16",27,"Live","No-social","Three",4,"Chrome",10,"Same",1,"Novel48",1,"Novel48",1,1263,"straight-ahead","-1","test",3,TRUE,FALSE,4,TRUE,"7"
"Jan 14 2015","08:54:16",28,"Live","No-social","Three",4,"Chrome",11,"Switch",0,"Novel126",1,"Novel126",3,2599,"straight-ahead","-1","test",3,TRUE,FALSE,4,TRUE,"7"
"Jan 14 2015","08:54:16",29,"Live","No-social","Three",4,"Chrome",12,"Same",0,"Novel7",3,"Novel7",3,470,"straight-ahead","-1","exposure",3,TRUE,FALSE,4,FALSE,"7"
"Jan 14 2015","08:54:16",30,"Live","No-social","Three",4,"Chrome",13,"Switch",1,"Novel130",0,"Novel59",2,1811,"straight-ahead","-1","exposure",3,TRUE,FALSE,4,FALSE,"7"
"Jan 14 2015","08:54:16",31,"Live","No-social","Three",4,"Chrome",14,"Same",1,"Novel113",1,"Novel113",1,2081,"straight-ahead","-1","exposure",3,TRUE,FALSE,4,FALSE,"7"
"Jan 14 2015","08:54:16",32,"Live","No-social","Three",4,"Chrome",15,"Switch",0,"Novel102",3,"Novel118",0,1458,"straight-ahead","-1","exposure",3,TRUE,FALSE,4,FALSE,"7"
"Jan 14 2015","08:54:16",33,"Live","No-social","Three",4,"Chrome",12,"Same",0,"Novel7",1,"Novel7",3,1804,"straight-ahead","-1","test",3,TRUE,FALSE,4,TRUE,"7"
"Jan 14 2015","08:54:16",34,"Live","No-social","Three",4,"Chrome",13,"Switch",1,"Novel59",2,"Novel59",2,1853,"straight-ahead","-1","test",3,TRUE,FALSE,4,TRUE,"7"
"Jan 14 2015","08:54:16",35,"Live","No-social","Three",4,"Chrome",14,"Same",1,"Novel91",2,"Novel113",1,5842,"straight-ahead","-1","test",3,TRUE,FALSE,4,FALSE,"7"
"Jan 14 2015","08:54:16",36,"Live","No-social","Three",4,"Chrome",15,"Switch",0,"Novel125",2,"Novel118",0,5973,"straight-ahead","-1","test",3,TRUE,FALSE,4,FALSE,"7"
"Jan 13 2015","20:27:33",1,"Live","Social","Three",4,"Chrome",0,"Same",0,"squirrel",0,"",0,7644,"up-left-4sec","0","example",3,TRUE,FALSE,4,TRUE,"8"
"Jan 13 2015","20:27:33",2,"Live","Social","Three",4,"Chrome",0,"Same",0,"squirrel",0,"",0,5797,"up-left-4sec","0","example",3,TRUE,FALSE,4,TRUE,"8"
"Jan 13 2015","20:27:33",3,"Live","Social","Three",4,"Chrome",0,"Same",0,"tomato",1,"",0,1809,"up-right-4sec","1","example",3,TRUE,FALSE,4,TRUE,"8"
"Jan 13 2015","20:27:33",4,"Live","Social","Three",4,"Chrome",0,"Same",0,"tomato",2,"",0,1580,"down-left-4sec","2","example",3,TRUE,FALSE,4,TRUE,"8"
"Jan 13 2015","20:27:33",5,"Live","Social","Three",4,"Chrome",0,"Same",0,"Novel47",3,"Novel47",3,6560,"straight-ahead","-1","exposure",3,TRUE,FALSE,4,FALSE,"8"
"Jan 13 2015","20:27:33",6,"Live","Social","Three",4,"Chrome",1,"Switch",0,"Novel112",1,"Novel102",0,2098,"straight-ahead","-1","exposure",3,TRUE,FALSE,4,FALSE,"8"
"Jan 13 2015","20:27:33",7,"Live","Social","Three",4,"Chrome",2,"Same",1,"Novel16",3,"Novel16",3,2338,"straight-ahead","-1","exposure",3,TRUE,FALSE,4,FALSE,"8"
"Jan 13 2015","20:27:33",8,"Live","Social","Three",4,"Chrome",3,"Switch",0,"Novel64",0,"Novel44",1,4178,"straight-ahead","-1","exposure",3,TRUE,FALSE,4,FALSE,"8"
"Jan 13 2015","20:27:33",9,"Live","Social","Three",4,"Chrome",0,"Same",0,"Novel47",2,"Novel47",3,2346,"straight-ahead","-1","test",3,TRUE,TRUE,4,TRUE,"8"
"Jan 13 2015","20:27:33",10,"Live","Social","Three",4,"Chrome",1,"Switch",0,"Novel102",3,"Novel102",0,1673,"straight-ahead","-1","test",3,TRUE,FALSE,4,TRUE,"8"
"Jan 13 2015","20:27:33",11,"Live","Social","Three",4,"Chrome",2,"Same",1,"Novel16",3,"Novel16",3,682,"straight-ahead","-1","test",3,TRUE,FALSE,4,TRUE,"8"
"Jan 13 2015","20:27:33",12,"Live","Social","Three",4,"Chrome",3,"Switch",0,"Novel44",3,"Novel44",1,1363,"straight-ahead","-1","test",3,TRUE,FALSE,4,TRUE,"8"
"Jan 13 2015","20:27:33",13,"Live","Social","Three",4,"Chrome",4,"Same",1,"Novel108",2,"Novel108",2,1320,"straight-ahead","-1","exposure",3,TRUE,FALSE,4,FALSE,"8"
"Jan 13 2015","20:27:33",14,"Live","Social","Three",4,"Chrome",5,"Switch",1,"Novel13",0,"Novel139",1,7697,"straight-ahead","-1","exposure",3,TRUE,FALSE,4,FALSE,"8"
"Jan 13 2015","20:27:33",15,"Live","Social","Three",4,"Chrome",6,"Same",0,"Novel3",1,"Novel3",1,1927,"straight-ahead","-1","exposure",3,TRUE,FALSE,4,FALSE,"8"
"Jan 13 2015","20:27:33",16,"Live","Social","Three",4,"Chrome",7,"Switch",1,"Novel11",3,"Novel98",2,2187,"straight-ahead","-1","exposure",3,TRUE,FALSE,4,FALSE,"8"
"Jan 13 2015","20:27:33",17,"Live","Social","Three",4,"Chrome",4,"Same",1,"Novel108",2,"Novel108",2,747,"straight-ahead","-1","test",3,TRUE,FALSE,4,TRUE,"8"
"Jan 13 2015","20:27:33",18,"Live","Social","Three",4,"Chrome",5,"Switch",1,"Novel139",1,"Novel139",1,2396,"straight-ahead","-1","test",3,TRUE,FALSE,4,TRUE,"8"
"Jan 13 2015","20:27:33",19,"Live","Social","Three",4,"Chrome",6,"Same",0,"Novel3",0,"Novel3",1,651,"straight-ahead","-1","test",3,TRUE,FALSE,4,TRUE,"8"
"Jan 13 2015","20:27:33",20,"Live","Social","Three",4,"Chrome",7,"Switch",1,"Novel98",2,"Novel98",2,2140,"straight-ahead","-1","test",3,TRUE,FALSE,4,TRUE,"8"
"Jan 13 2015","20:27:33",21,"Live","Social","Three",4,"Chrome",8,"Same",0,"Novel94",0,"Novel94",0,1782,"straight-ahead","-1","exposure",3,TRUE,FALSE,4,FALSE,"8"
"Jan 13 2015","20:27:33",22,"Live","Social","Three",4,"Chrome",9,"Switch",0,"Novel65",0,"Novel60",2,1870,"straight-ahead","-1","exposure",3,TRUE,FALSE,4,FALSE,"8"
"Jan 13 2015","20:27:33",23,"Live","Social","Three",4,"Chrome",10,"Same",1,"Novel32",2,"Novel32",2,1602,"straight-ahead","-1","exposure",3,TRUE,FALSE,4,FALSE,"8"
"Jan 13 2015","20:27:33",24,"Live","Social","Three",4,"Chrome",11,"Switch",0,"Novel78",3,"Novel137",0,3781,"straight-ahead","-1","exposure",3,TRUE,FALSE,4,FALSE,"8"
"Jan 13 2015","20:27:33",25,"Live","Social","Three",4,"Chrome",8,"Same",0,"Novel94",3,"Novel94",0,1042,"straight-ahead","-1","test",3,TRUE,FALSE,4,TRUE,"8"
"Jan 13 2015","20:27:33",26,"Live","Social","Three",4,"Chrome",9,"Switch",0,"Novel49",1,"Novel60",2,3123,"straight-ahead","-1","test",3,TRUE,FALSE,4,FALSE,"8"
"Jan 13 2015","20:27:33",27,"Live","Social","Three",4,"Chrome",10,"Same",1,"Novel32",2,"Novel32",2,819,"straight-ahead","-1","test",3,TRUE,FALSE,4,TRUE,"8"
"Jan 13 2015","20:27:33",28,"Live","Social","Three",4,"Chrome",11,"Switch",0,"Novel89",0,"Novel137",0,5376,"straight-ahead","-1","test",3,TRUE,FALSE,4,FALSE,"8"
"Jan 13 2015","20:27:33",29,"Live","Social","Three",4,"Chrome",12,"Same",1,"Novel80",2,"Novel80",2,2212,"straight-ahead","-1","exposure",3,TRUE,FALSE,4,FALSE,"8"
"Jan 13 2015","20:27:33",30,"Live","Social","Three",4,"Chrome",13,"Switch",1,"Novel12",0,"Novel122",1,969,"straight-ahead","-1","exposure",3,TRUE,FALSE,4,FALSE,"8"
"Jan 13 2015","20:27:33",31,"Live","Social","Three",4,"Chrome",14,"Same",0,"Novel96",2,"Novel96",2,907,"straight-ahead","-1","exposure",3,TRUE,FALSE,4,FALSE,"8"
"Jan 13 2015","20:27:33",32,"Live","Social","Three",4,"Chrome",15,"Switch",1,"Novel40",0,"Novel115",1,642,"straight-ahead","-1","exposure",3,TRUE,FALSE,4,FALSE,"8"
"Jan 13 2015","20:27:33",33,"Live","Social","Three",4,"Chrome",12,"Same",1,"Novel80",2,"Novel80",2,3485,"straight-ahead","-1","test",3,TRUE,FALSE,4,TRUE,"8"
"Jan 13 2015","20:27:33",34,"Live","Social","Three",4,"Chrome",13,"Switch",1,"Novel41",0,"Novel122",1,6139,"straight-ahead","-1","test",3,TRUE,FALSE,4,FALSE,"8"
"Jan 13 2015","20:27:33",35,"Live","Social","Three",4,"Chrome",14,"Same",0,"Novel96",0,"Novel96",2,1043,"straight-ahead","-1","test",3,TRUE,FALSE,4,TRUE,"8"
"Jan 13 2015","20:27:33",36,"Live","Social","Three",4,"Chrome",15,"Switch",1,"Novel68",3,"Novel115",1,9825,"straight-ahead","-1","test",3,TRUE,FALSE,4,FALSE,"8"
"Jan 13 2015","20:29:39",1,"Live","Social","Three",4,"Firefox",0,"Switch",1,"squirrel",0,"",0,924,"up-left-4sec","0","example",3,TRUE,FALSE,4,TRUE,"9"
"Jan 13 2015","20:29:39",2,"Live","Social","Three",4,"Firefox",0,"Switch",1,"squirrel",0,"",0,782,"up-left-4sec","0","example",3,TRUE,FALSE,4,TRUE,"9"
"Jan 13 2015","20:29:39",3,"Live","Social","Three",4,"Firefox",0,"Switch",1,"tomato",1,"",0,1839,"up-right-4sec","1","example",3,TRUE,FALSE,4,TRUE,"9"
"Jan 13 2015","20:29:39",4,"Live","Social","Three",4,"Firefox",0,"Switch",1,"tomato",2,"",0,1314,"down-left-4sec","2","example",3,TRUE,FALSE,4,TRUE,"9"
"Jan 13 2015","20:29:39",5,"Live","Social","Three",4,"Firefox",0,"Switch",1,"Novel130",0,"Novel70",1,1739,"straight-ahead","-1","exposure",3,TRUE,FALSE,4,FALSE,"9"
"Jan 13 2015","20:29:39",6,"Live","Social","Three",4,"Firefox",1,"Same",0,"Novel57",2,"Novel57",2,2687,"straight-ahead","-1","exposure",3,TRUE,FALSE,4,FALSE,"9"
"Jan 13 2015","20:29:39",7,"Live","Social","Three",4,"Firefox",2,"Switch",1,"Novel32",2,"Novel98",3,2028,"straight-ahead","-1","exposure",3,TRUE,FALSE,4,FALSE,"9"
"Jan 13 2015","20:29:39",8,"Live","Social","Three",4,"Firefox",3,"Same",0,"Novel13",2,"Novel13",2,4356,"straight-ahead","-1","exposure",3,TRUE,FALSE,4,FALSE,"9"
"Jan 13 2015","20:29:39",9,"Live","Social","Three",4,"Firefox",0,"Switch",1,"Novel24",0,"Novel70",1,3927,"straight-ahead","-1","test",3,TRUE,TRUE,4,FALSE,"9"
"Jan 13 2015","20:29:39",10,"Live","Social","Three",4,"Firefox",1,"Same",0,"Novel16",2,"Novel57",2,6458,"straight-ahead","-1","test",3,TRUE,FALSE,4,FALSE,"9"
"Jan 13 2015","20:29:39",11,"Live","Social","Three",4,"Firefox",2,"Switch",1,"Novel98",3,"Novel98",3,4498,"straight-ahead","-1","test",3,TRUE,FALSE,4,TRUE,"9"
"Jan 13 2015","20:29:39",12,"Live","Social","Three",4,"Firefox",3,"Same",0,"Novel64",2,"Novel13",2,4174,"straight-ahead","-1","test",3,TRUE,FALSE,4,FALSE,"9"
"Jan 13 2015","20:29:39",13,"Live","Social","Three",4,"Firefox",4,"Switch",0,"Novel69",1,"Novel76",2,2179,"straight-ahead","-1","exposure",3,TRUE,FALSE,4,FALSE,"9"
"Jan 13 2015","20:29:39",14,"Live","Social","Three",4,"Firefox",5,"Same",1,"Novel83",0,"Novel83",0,3776,"straight-ahead","-1","exposure",3,TRUE,FALSE,4,FALSE,"9"
"Jan 13 2015","20:29:39",15,"Live","Social","Three",4,"Firefox",6,"Switch",0,"Novel38",0,"Novel65",2,2539,"straight-ahead","-1","exposure",3,TRUE,FALSE,4,FALSE,"9"
"Jan 13 2015","20:29:39",16,"Live","Social","Three",4,"Firefox",7,"Same",1,"Novel45",0,"Novel45",0,5048,"straight-ahead","-1","exposure",3,TRUE,FALSE,4,FALSE,"9"
"Jan 13 2015","20:29:39",17,"Live","Social","Three",4,"Firefox",4,"Switch",0,"Novel76",0,"Novel76",2,8364,"straight-ahead","-1","test",3,TRUE,FALSE,4,TRUE,"9"
"Jan 13 2015","20:29:39",18,"Live","Social","Three",4,"Firefox",5,"Same",1,"Novel83",0,"Novel83",0,3237,"straight-ahead","-1","test",3,TRUE,FALSE,4,TRUE,"9"
"Jan 13 2015","20:29:39",19,"Live","Social","Three",4,"Firefox",6,"Switch",0,"Novel65",1,"Novel65",2,3103,"straight-ahead","-1","test",3,TRUE,FALSE,4,TRUE,"9"
"Jan 13 2015","20:29:39",20,"Live","Social","Three",4,"Firefox",7,"Same",1,"Novel45",0,"Novel45",0,4949,"straight-ahead","-1","test",3,TRUE,FALSE,4,TRUE,"9"
"Jan 13 2015","20:29:39",21,"Live","Social","Three",4,"Firefox",8,"Switch",1,"Novel41",0,"Novel131",3,3652,"straight-ahead","-1","exposure",3,TRUE,FALSE,4,FALSE,"9"
"Jan 13 2015","20:29:39",22,"Live","Social","Three",4,"Firefox",9,"Same",0,"Novel134",0,"Novel134",0,3350,"straight-ahead","-1","exposure",3,TRUE,FALSE,4,FALSE,"9"
"Jan 13 2015","20:29:39",23,"Live","Social","Three",4,"Firefox",10,"Switch",1,"Novel135",3,"Novel82",0,3639,"straight-ahead","-1","exposure",3,TRUE,FALSE,4,FALSE,"9"
"Jan 13 2015","20:29:39",24,"Live","Social","Three",4,"Firefox",11,"Same",0,"Novel127",3,"Novel127",3,4956,"straight-ahead","-1","exposure",3,TRUE,FALSE,4,FALSE,"9"
"Jan 13 2015","20:29:39",25,"Live","Social","Three",4,"Firefox",8,"Switch",1,"Novel66",1,"Novel131",3,5381,"straight-ahead","-1","test",3,TRUE,FALSE,4,FALSE,"9"
"Jan 13 2015","20:29:39",26,"Live","Social","Three",4,"Firefox",9,"Same",0,"Novel134",2,"Novel134",0,4416,"straight-ahead","-1","test",3,TRUE,FALSE,4,TRUE,"9"
"Jan 13 2015","20:29:39",27,"Live","Social","Three",4,"Firefox",10,"Switch",1,"Novel7",3,"Novel82",0,5725,"straight-ahead","-1","test",3,TRUE,FALSE,4,FALSE,"9"
"Jan 13 2015","20:29:39",28,"Live","Social","Three",4,"Firefox",11,"Same",0,"Novel127",2,"Novel127",3,4942,"straight-ahead","-1","test",3,TRUE,FALSE,4,TRUE,"9"
"Jan 13 2015","20:29:39",29,"Live","Social","Three",4,"Firefox",12,"Switch",0,"Novel73",3,"Novel8",1,7625,"straight-ahead","-1","exposure",3,TRUE,FALSE,4,FALSE,"9"
"Jan 13 2015","20:29:39",30,"Live","Social","Three",4,"Firefox",13,"Same",1,"Novel35",3,"Novel35",3,3999,"straight-ahead","-1","exposure",3,TRUE,FALSE,4,FALSE,"9"
"Jan 13 2015","20:29:39",31,"Live","Social","Three",4,"Firefox",14,"Switch",0,"Novel95",2,"Novel18",0,4214,"straight-ahead","-1","exposure",3,TRUE,FALSE,4,FALSE,"9"
"Jan 13 2015","20:29:39",32,"Live","Social","Three",4,"Firefox",15,"Same",1,"Novel60",1,"Novel60",1,4846,"straight-ahead","-1","exposure",3,TRUE,FALSE,4,FALSE,"9"
"Jan 13 2015","20:29:39",33,"Live","Social","Three",4,"Firefox",12,"Switch",0,"Novel8",3,"Novel8",1,6011,"straight-ahead","-1","test",3,TRUE,FALSE,4,TRUE,"9"
"Jan 13 2015","20:29:39",34,"Live","Social","Three",4,"Firefox",13,"Same",1,"Novel35",3,"Novel35",3,3188,"straight-ahead","-1","test",3,TRUE,FALSE,4,TRUE,"9"
"Jan 13 2015","20:29:39",35,"Live","Social","Three",4,"Firefox",14,"Switch",0,"Novel48",3,"Novel18",0,3372,"straight-ahead","-1","test",3,TRUE,FALSE,4,FALSE,"9"
"Jan 13 2015","20:29:39",36,"Live","Social","Three",4,"Firefox",15,"Same",1,"Novel60",1,"Novel60",1,4021,"straight-ahead","-1","test",3,TRUE,FALSE,4,TRUE,"9"
"Jan 14 2015","00:00:05",1,"Live","No-social","Three",4,"Chrome",0,"Switch",1,"squirrel",0,"",0,703,"up-left-4sec","0","example",3,TRUE,FALSE,4,TRUE,"10"
"Jan 14 2015","00:00:05",2,"Live","No-social","Three",4,"Chrome",0,"Switch",1,"squirrel",0,"",0,513,"up-left-4sec","0","example",3,TRUE,FALSE,4,TRUE,"10"
"Jan 14 2015","00:00:05",3,"Live","No-social","Three",4,"Chrome",0,"Switch",1,"tomato",1,"",0,991,"up-right-4sec","1","example",3,TRUE,FALSE,4,TRUE,"10"
"Jan 14 2015","00:00:05",4,"Live","No-social","Three",4,"Chrome",0,"Switch",1,"tomato",2,"",0,1296,"down-left-4sec","2","example",3,TRUE,FALSE,4,TRUE,"10"
"Jan 14 2015","00:00:05",5,"Live","No-social","Three",4,"Chrome",0,"Switch",1,"Novel102",1,"Novel55",2,21229,"straight-ahead","-1","exposure",3,TRUE,FALSE,4,FALSE,"10"
"Jan 14 2015","00:00:05",6,"Live","No-social","Three",4,"Chrome",1,"Same",1,"Novel72",2,"Novel72",2,11793,"straight-ahead","-1","exposure",3,TRUE,FALSE,4,FALSE,"10"
"Jan 14 2015","00:00:05",7,"Live","No-social","Three",4,"Chrome",2,"Switch",0,"Novel84",2,"Novel19",1,6139,"straight-ahead","-1","exposure",3,TRUE,FALSE,4,FALSE,"10"
"Jan 14 2015","00:00:05",8,"Live","No-social","Three",4,"Chrome",3,"Same",0,"Novel6",0,"Novel6",0,9166,"straight-ahead","-1","exposure",3,TRUE,FALSE,4,FALSE,"10"
"Jan 14 2015","00:00:05",9,"Live","No-social","Three",4,"Chrome",0,"Switch",1,"Novel124",1,"Novel55",2,5055,"straight-ahead","-1","test",3,TRUE,TRUE,4,FALSE,"10"
"Jan 14 2015","00:00:05",10,"Live","No-social","Three",4,"Chrome",1,"Same",1,"Novel72",2,"Novel72",2,9470,"straight-ahead","-1","test",3,TRUE,FALSE,4,TRUE,"10"
"Jan 14 2015","00:00:05",11,"Live","No-social","Three",4,"Chrome",2,"Switch",0,"Novel19",0,"Novel19",1,3843,"straight-ahead","-1","test",3,TRUE,FALSE,4,TRUE,"10"
"Jan 14 2015","00:00:05",12,"Live","No-social","Three",4,"Chrome",3,"Same",0,"Novel6",1,"Novel6",0,6811,"straight-ahead","-1","test",3,TRUE,FALSE,4,TRUE,"10"
"Jan 14 2015","00:00:05",13,"Live","No-social","Three",4,"Chrome",4,"Switch",0,"Novel61",2,"Novel9",1,6789,"straight-ahead","-1","exposure",3,TRUE,FALSE,4,FALSE,"10"
"Jan 14 2015","00:00:05",14,"Live","No-social","Three",4,"Chrome",5,"Same",0,"Novel7",2,"Novel7",2,3649,"straight-ahead","-1","exposure",3,TRUE,FALSE,4,FALSE,"10"
"Jan 14 2015","00:00:05",15,"Live","No-social","Three",4,"Chrome",6,"Switch",1,"Novel10",1,"Novel132",0,8819,"straight-ahead","-1","exposure",3,TRUE,FALSE,4,FALSE,"10"
"Jan 14 2015","00:00:05",16,"Live","No-social","Three",4,"Chrome",7,"Same",1,"Novel81",1,"Novel81",1,8964,"straight-ahead","-1","exposure",3,TRUE,FALSE,4,FALSE,"10"
"Jan 14 2015","00:00:05",17,"Live","No-social","Three",4,"Chrome",4,"Switch",0,"Novel5",3,"Novel9",1,3568,"straight-ahead","-1","test",3,TRUE,FALSE,4,FALSE,"10"
"Jan 14 2015","00:00:05",18,"Live","No-social","Three",4,"Chrome",5,"Same",0,"Novel7",0,"Novel7",2,2275,"straight-ahead","-1","test",3,TRUE,FALSE,4,TRUE,"10"
"Jan 14 2015","00:00:05",19,"Live","No-social","Three",4,"Chrome",6,"Switch",1,"Novel132",0,"Novel132",0,7117,"straight-ahead","-1","test",3,TRUE,FALSE,4,TRUE,"10"
"Jan 14 2015","00:00:05",20,"Live","No-social","Three",4,"Chrome",7,"Same",1,"Novel81",1,"Novel81",1,2673,"straight-ahead","-1","test",3,TRUE,FALSE,4,TRUE,"10"
"Jan 14 2015","00:00:05",21,"Live","No-social","Three",4,"Chrome",8,"Switch",1,"Novel42",3,"Novel101",1,7721,"straight-ahead","-1","exposure",3,TRUE,FALSE,4,FALSE,"10"
"Jan 14 2015","00:00:05",22,"Live","No-social","Three",4,"Chrome",9,"Same",1,"Novel95",1,"Novel95",1,3241,"straight-ahead","-1","exposure",3,TRUE,FALSE,4,FALSE,"10"
"Jan 14 2015","00:00:05",23,"Live","No-social","Three",4,"Chrome",10,"Switch",0,"Novel119",3,"Novel85",2,5466,"straight-ahead","-1","exposure",3,TRUE,FALSE,4,FALSE,"10"
"Jan 14 2015","00:00:05",24,"Live","No-social","Three",4,"Chrome",11,"Same",0,"Novel31",3,"Novel31",3,3919,"straight-ahead","-1","exposure",3,TRUE,FALSE,4,FALSE,"10"
"Jan 14 2015","00:00:05",25,"Live","No-social","Three",4,"Chrome",8,"Switch",1,"Novel101",1,"Novel101",1,2830,"straight-ahead","-1","test",3,TRUE,FALSE,4,TRUE,"10"
"Jan 14 2015","00:00:05",26,"Live","No-social","Three",4,"Chrome",9,"Same",1,"Novel95",1,"Novel95",1,1990,"straight-ahead","-1","test",3,TRUE,FALSE,4,TRUE,"10"
"Jan 14 2015","00:00:05",27,"Live","No-social","Three",4,"Chrome",10,"Switch",0,"Novel85",3,"Novel85",2,6898,"straight-ahead","-1","test",3,TRUE,FALSE,4,TRUE,"10"
"Jan 14 2015","00:00:05",28,"Live","No-social","Three",4,"Chrome",11,"Same",0,"Novel100",2,"Novel31",3,3679,"straight-ahead","-1","test",3,TRUE,FALSE,4,FALSE,"10"
"Jan 14 2015","00:00:05",29,"Live","No-social","Three",4,"Chrome",12,"Switch",0,"Novel96",1,"Novel109",2,2445,"straight-ahead","-1","exposure",3,TRUE,FALSE,4,FALSE,"10"
"Jan 14 2015","00:00:05",30,"Live","No-social","Three",4,"Chrome",13,"Same",0,"Novel134",3,"Novel134",3,2465,"straight-ahead","-1","exposure",3,TRUE,FALSE,4,FALSE,"10"
"Jan 14 2015","00:00:05",31,"Live","No-social","Three",4,"Chrome",14,"Switch",1,"Novel89",3,"Novel136",0,2540,"straight-ahead","-1","exposure",3,TRUE,FALSE,4,FALSE,"10"
"Jan 14 2015","00:00:05",32,"Live","No-social","Three",4,"Chrome",15,"Same",1,"Novel21",1,"Novel21",1,3172,"straight-ahead","-1","exposure",3,TRUE,FALSE,4,FALSE,"10"
"Jan 14 2015","00:00:05",33,"Live","No-social","Three",4,"Chrome",12,"Switch",0,"Novel109",1,"Novel109",2,2384,"straight-ahead","-1","test",3,TRUE,FALSE,4,TRUE,"10"
"Jan 14 2015","00:00:05",34,"Live","No-social","Three",4,"Chrome",13,"Same",0,"Novel134",0,"Novel134",3,2301,"straight-ahead","-1","test",3,TRUE,FALSE,4,TRUE,"10"
"Jan 14 2015","00:00:05",35,"Live","No-social","Three",4,"Chrome",14,"Switch",1,"Novel136",0,"Novel136",0,1092,"straight-ahead","-1","test",3,TRUE,FALSE,4,TRUE,"10"
"Jan 14 2015","00:00:05",36,"Live","No-social","Three",4,"Chrome",15,"Same",1,"Novel21",1,"Novel21",1,1974,"straight-ahead","-1","test",3,TRUE,FALSE,4,TRUE,"10"
"Jan 14 2015","09:20:59",1,"Live","No-social","Three",4,"Chrome",0,"Switch",0,"squirrel",0,"",0,5409,"up-left-4sec","0","example",3,TRUE,FALSE,4,TRUE,"11"
"Jan 14 2015","09:20:59",2,"Live","No-social","Three",4,"Chrome",0,"Switch",0,"squirrel",0,"",0,2091,"up-left-4sec","0","example",3,TRUE,FALSE,4,TRUE,"11"
"Jan 14 2015","09:20:59",3,"Live","No-social","Three",4,"Chrome",0,"Switch",0,"tomato",1,"",0,112,"up-right-4sec","1","example",3,TRUE,FALSE,4,TRUE,"11"
"Jan 14 2015","09:20:59",4,"Live","No-social","Three",4,"Chrome",0,"Switch",0,"tomato",2,"",0,442,"down-left-4sec","2","example",3,TRUE,FALSE,4,TRUE,"11"
"Jan 14 2015","09:20:59",5,"Live","No-social","Three",4,"Chrome",0,"Switch",0,"Novel81",1,"Novel140",3,2627,"straight-ahead","-1","exposure",3,TRUE,FALSE,4,FALSE,"11"
"Jan 14 2015","09:20:59",6,"Live","No-social","Three",4,"Chrome",1,"Same",1,"Novel5",0,"Novel5",0,2842,"straight-ahead","-1","exposure",3,TRUE,FALSE,4,FALSE,"11"
"Jan 14 2015","09:20:59",7,"Live","No-social","Three",4,"Chrome",2,"Switch",0,"Novel58",1,"Novel60",2,2359,"straight-ahead","-1","exposure",3,TRUE,FALSE,4,FALSE,"11"
"Jan 14 2015","09:20:59",8,"Live","No-social","Three",4,"Chrome",3,"Same",0,"Novel8",3,"Novel8",3,1968,"straight-ahead","-1","exposure",3,TRUE,FALSE,4,FALSE,"11"
"Jan 14 2015","09:20:59",9,"Live","No-social","Three",4,"Chrome",0,"Switch",0,"Novel140",1,"Novel140",3,30851,"straight-ahead","-1","test",3,TRUE,TRUE,4,TRUE,"11"
"Jan 14 2015","09:20:59",10,"Live","No-social","Three",4,"Chrome",1,"Same",1,"Novel5",0,"Novel5",0,1840,"straight-ahead","-1","test",3,TRUE,FALSE,4,TRUE,"11"
"Jan 14 2015","09:20:59",11,"Live","No-social","Three",4,"Chrome",2,"Switch",0,"Novel60",0,"Novel60",2,915,"straight-ahead","-1","test",3,TRUE,FALSE,4,TRUE,"11"
"Jan 14 2015","09:20:59",12,"Live","No-social","Three",4,"Chrome",3,"Same",0,"Novel8",0,"Novel8",3,755,"straight-ahead","-1","test",3,TRUE,FALSE,4,TRUE,"11"
"Jan 14 2015","09:20:59",13,"Live","No-social","Three",4,"Chrome",4,"Switch",1,"Novel128",1,"Novel139",2,1489,"straight-ahead","-1","exposure",3,TRUE,FALSE,4,FALSE,"11"
"Jan 14 2015","09:20:59",14,"Live","No-social","Three",4,"Chrome",5,"Same",1,"Novel20",3,"Novel20",3,7012,"straight-ahead","-1","exposure",3,TRUE,FALSE,4,FALSE,"11"
"Jan 14 2015","09:20:59",15,"Live","No-social","Three",4,"Chrome",6,"Switch",1,"Novel37",1,"Novel22",3,6437,"straight-ahead","-1","exposure",3,TRUE,FALSE,4,FALSE,"11"
"Jan 14 2015","09:20:59",16,"Live","No-social","Three",4,"Chrome",7,"Same",0,"Novel129",1,"Novel129",1,25233,"straight-ahead","-1","exposure",3,TRUE,FALSE,4,FALSE,"11"
"Jan 14 2015","09:20:59",17,"Live","No-social","Three",4,"Chrome",4,"Switch",1,"Novel79",1,"Novel139",2,3366,"straight-ahead","-1","test",3,TRUE,FALSE,4,FALSE,"11"
"Jan 14 2015","09:20:59",18,"Live","No-social","Three",4,"Chrome",5,"Same",1,"Novel20",3,"Novel20",3,3790,"straight-ahead","-1","test",3,TRUE,FALSE,4,TRUE,"11"
"Jan 14 2015","09:20:59",19,"Live","No-social","Three",4,"Chrome",6,"Switch",1,"Novel114",1,"Novel22",3,33114,"straight-ahead","-1","test",3,TRUE,FALSE,4,FALSE,"11"
"Jan 14 2015","09:20:59",20,"Live","No-social","Three",4,"Chrome",7,"Same",0,"Novel33",1,"Novel129",1,363,"straight-ahead","-1","test",3,TRUE,FALSE,4,FALSE,"11"
"Jan 14 2015","09:20:59",21,"Live","No-social","Three",4,"Chrome",8,"Switch",0,"Novel127",3,"Novel122",1,455,"straight-ahead","-1","exposure",3,TRUE,FALSE,4,FALSE,"11"
"Jan 14 2015","09:20:59",22,"Live","No-social","Three",4,"Chrome",9,"Same",1,"Novel134",3,"Novel134",3,1020,"straight-ahead","-1","exposure",3,TRUE,FALSE,4,FALSE,"11"
"Jan 14 2015","09:20:59",23,"Live","No-social","Three",4,"Chrome",10,"Switch",0,"Novel108",1,"Novel123",0,9792,"straight-ahead","-1","exposure",3,TRUE,FALSE,4,FALSE,"11"
"Jan 14 2015","09:20:59",24,"Live","No-social","Three",4,"Chrome",11,"Same",0,"Novel11",1,"Novel11",1,425,"straight-ahead","-1","exposure",3,TRUE,FALSE,4,FALSE,"11"
"Jan 14 2015","09:20:59",25,"Live","No-social","Three",4,"Chrome",8,"Switch",0,"Novel96",3,"Novel122",1,361,"straight-ahead","-1","test",3,TRUE,FALSE,4,FALSE,"11"
"Jan 14 2015","09:20:59",26,"Live","No-social","Three",4,"Chrome",9,"Same",1,"Novel134",3,"Novel134",3,175,"straight-ahead","-1","test",3,TRUE,FALSE,4,TRUE,"11"
"Jan 14 2015","09:20:59",27,"Live","No-social","Three",4,"Chrome",10,"Switch",0,"Novel21",3,"Novel123",0,732,"straight-ahead","-1","test",3,TRUE,FALSE,4,FALSE,"11"
"Jan 14 2015","09:20:59",28,"Live","No-social","Three",4,"Chrome",11,"Same",0,"Novel16",3,"Novel11",1,455,"straight-ahead","-1","test",3,TRUE,FALSE,4,FALSE,"11"
"Jan 14 2015","09:20:59",29,"Live","No-social","Three",4,"Chrome",12,"Switch",1,"Novel120",3,"Novel42",0,1053,"straight-ahead","-1","exposure",3,TRUE,FALSE,4,FALSE,"11"
"Jan 14 2015","09:20:59",30,"Live","No-social","Three",4,"Chrome",13,"Same",1,"Novel82",3,"Novel82",3,1370,"straight-ahead","-1","exposure",3,TRUE,FALSE,4,FALSE,"11"
"Jan 14 2015","09:20:59",31,"Live","No-social","Three",4,"Chrome",14,"Switch",1,"Novel39",3,"Novel40",1,503,"straight-ahead","-1","exposure",3,TRUE,FALSE,4,FALSE,"11"
"Jan 14 2015","09:20:59",32,"Live","No-social","Three",4,"Chrome",15,"Same",0,"Novel101",3,"Novel101",3,438,"straight-ahead","-1","exposure",3,TRUE,FALSE,4,FALSE,"11"
"Jan 14 2015","09:20:59",33,"Live","No-social","Three",4,"Chrome",12,"Switch",1,"Novel124",3,"Novel42",0,552,"straight-ahead","-1","test",3,TRUE,FALSE,4,FALSE,"11"
"Jan 14 2015","09:20:59",34,"Live","No-social","Three",4,"Chrome",13,"Same",1,"Novel82",3,"Novel82",3,397,"straight-ahead","-1","test",3,TRUE,FALSE,4,TRUE,"11"
"Jan 14 2015","09:20:59",35,"Live","No-social","Three",4,"Chrome",14,"Switch",1,"Novel110",3,"Novel40",1,493,"straight-ahead","-1","test",3,TRUE,FALSE,4,FALSE,"11"
"Jan 14 2015","09:20:59",36,"Live","No-social","Three",4,"Chrome",15,"Same",0,"Novel2",1,"Novel101",3,932,"straight-ahead","-1","test",3,TRUE,FALSE,4,FALSE,"11"
"Jan 14 2015","04:08:14",1,"Live","No-social","Three",4,"Chrome",0,"Switch",1,"squirrel",0,"",0,5361,"up-left-4sec","0","example",3,TRUE,FALSE,4,TRUE,"12"
"Jan 14 2015","04:08:14",2,"Live","No-social","Three",4,"Chrome",0,"Switch",1,"squirrel",0,"",0,3688,"up-left-4sec","0","example",3,TRUE,FALSE,4,TRUE,"12"
"Jan 14 2015","04:08:14",3,"Live","No-social","Three",4,"Chrome",0,"Switch",1,"tomato",1,"",0,2523,"up-right-4sec","1","example",3,TRUE,FALSE,4,TRUE,"12"
"Jan 14 2015","04:08:14",4,"Live","No-social","Three",4,"Chrome",0,"Switch",1,"tomato",2,"",0,1638,"down-left-4sec","2","example",3,TRUE,FALSE,4,TRUE,"12"
"Jan 14 2015","04:08:14",5,"Live","No-social","Three",4,"Chrome",0,"Switch",1,"Novel4",0,"Novel61",2,5706,"straight-ahead","-1","exposure",3,TRUE,FALSE,4,FALSE,"12"
"Jan 14 2015","04:08:14",6,"Live","No-social","Three",4,"Chrome",1,"Same",1,"Novel107",3,"Novel107",3,3796,"straight-ahead","-1","exposure",3,TRUE,FALSE,4,FALSE,"12"
"Jan 14 2015","04:08:14",7,"Live","No-social","Three",4,"Chrome",2,"Switch",0,"Novel52",3,"Novel32",0,4627,"straight-ahead","-1","exposure",3,TRUE,FALSE,4,FALSE,"12"
"Jan 14 2015","04:08:14",8,"Live","No-social","Three",4,"Chrome",3,"Same",0,"Novel40",1,"Novel40",1,3196,"straight-ahead","-1","exposure",3,TRUE,FALSE,4,FALSE,"12"
"Jan 14 2015","04:08:14",9,"Live","No-social","Three",4,"Chrome",0,"Switch",1,"Novel61",2,"Novel61",2,4393,"straight-ahead","-1","test",3,TRUE,TRUE,4,TRUE,"12"
"Jan 14 2015","04:08:14",10,"Live","No-social","Three",4,"Chrome",1,"Same",1,"Novel107",3,"Novel107",3,5226,"straight-ahead","-1","test",3,TRUE,FALSE,4,TRUE,"12"
"Jan 14 2015","04:08:14",11,"Live","No-social","Three",4,"Chrome",2,"Switch",0,"Novel17",0,"Novel32",0,3786,"straight-ahead","-1","test",3,TRUE,FALSE,4,FALSE,"12"
"Jan 14 2015","04:08:14",12,"Live","No-social","Three",4,"Chrome",3,"Same",0,"Novel40",3,"Novel40",1,2151,"straight-ahead","-1","test",3,TRUE,FALSE,4,TRUE,"12"
"Jan 14 2015","04:08:14",13,"Live","No-social","Three",4,"Chrome",4,"Switch",0,"Novel70",0,"Novel68",1,2676,"straight-ahead","-1","exposure",3,TRUE,FALSE,4,FALSE,"12"
"Jan 14 2015","04:08:14",14,"Live","No-social","Three",4,"Chrome",5,"Same",1,"Novel5",1,"Novel5",1,2446,"straight-ahead","-1","exposure",3,TRUE,FALSE,4,FALSE,"12"
"Jan 14 2015","04:08:14",15,"Live","No-social","Three",4,"Chrome",6,"Switch",1,"Novel115",0,"Novel34",3,2263,"straight-ahead","-1","exposure",3,TRUE,FALSE,4,FALSE,"12"
"Jan 14 2015","04:08:14",16,"Live","No-social","Three",4,"Chrome",7,"Same",0,"Novel12",0,"Novel12",0,2367,"straight-ahead","-1","exposure",3,TRUE,FALSE,4,FALSE,"12"
"Jan 14 2015","04:08:14",17,"Live","No-social","Three",4,"Chrome",4,"Switch",0,"Novel68",2,"Novel68",1,3178,"straight-ahead","-1","test",3,TRUE,FALSE,4,TRUE,"12"
"Jan 14 2015","04:08:14",18,"Live","No-social","Three",4,"Chrome",5,"Same",1,"Novel5",1,"Novel5",1,1365,"straight-ahead","-1","test",3,TRUE,FALSE,4,TRUE,"12"
"Jan 14 2015","04:08:14",19,"Live","No-social","Three",4,"Chrome",6,"Switch",1,"Novel58",2,"Novel34",3,4996,"straight-ahead","-1","test",3,TRUE,FALSE,4,FALSE,"12"
"Jan 14 2015","04:08:14",20,"Live","No-social","Three",4,"Chrome",7,"Same",0,"Novel23",3,"Novel12",0,1492,"straight-ahead","-1","test",3,TRUE,FALSE,4,FALSE,"12"
"Jan 14 2015","04:08:14",21,"Live","No-social","Three",4,"Chrome",8,"Switch",1,"Novel114",1,"Novel19",2,3807,"straight-ahead","-1","exposure",3,TRUE,FALSE,4,FALSE,"12"
"Jan 14 2015","04:08:14",22,"Live","No-social","Three",4,"Chrome",9,"Same",1,"Novel74",2,"Novel74",2,3569,"straight-ahead","-1","exposure",3,TRUE,FALSE,4,FALSE,"12"
"Jan 14 2015","04:08:14",23,"Live","No-social","Three",4,"Chrome",10,"Switch",0,"Novel127",3,"Novel38",0,7047,"straight-ahead","-1","exposure",3,TRUE,FALSE,4,FALSE,"12"
"Jan 14 2015","04:08:14",24,"Live","No-social","Three",4,"Chrome",11,"Same",0,"Novel33",2,"Novel33",2,1504,"straight-ahead","-1","exposure",3,TRUE,FALSE,4,FALSE,"12"
"Jan 14 2015","04:08:14",25,"Live","No-social","Three",4,"Chrome",8,"Switch",1,"Novel13",0,"Novel19",2,1271,"straight-ahead","-1","test",3,TRUE,FALSE,4,FALSE,"12"
"Jan 14 2015","04:08:14",26,"Live","No-social","Three",4,"Chrome",9,"Same",1,"Novel37",3,"Novel74",2,1674,"straight-ahead","-1","test",3,TRUE,FALSE,4,FALSE,"12"
"Jan 14 2015","04:08:14",27,"Live","No-social","Three",4,"Chrome",10,"Switch",0,"Novel38",3,"Novel38",0,2349,"straight-ahead","-1","test",3,TRUE,FALSE,4,TRUE,"12"
"Jan 14 2015","04:08:14",28,"Live","No-social","Three",4,"Chrome",11,"Same",0,"Novel33",1,"Novel33",2,2664,"straight-ahead","-1","test",3,TRUE,FALSE,4,TRUE,"12"
"Jan 14 2015","04:08:14",29,"Live","No-social","Three",4,"Chrome",12,"Switch",0,"Novel90",1,"Novel95",3,2052,"straight-ahead","-1","exposure",3,TRUE,FALSE,4,FALSE,"12"
"Jan 14 2015","04:08:14",30,"Live","No-social","Three",4,"Chrome",13,"Same",1,"Novel42",0,"Novel42",0,1523,"straight-ahead","-1","exposure",3,TRUE,FALSE,4,FALSE,"12"
"Jan 14 2015","04:08:14",31,"Live","No-social","Three",4,"Chrome",14,"Switch",1,"Novel51",1,"Novel137",2,1935,"straight-ahead","-1","exposure",3,TRUE,FALSE,4,FALSE,"12"
"Jan 14 2015","04:08:14",32,"Live","No-social","Three",4,"Chrome",15,"Same",0,"Novel49",0,"Novel49",0,4439,"straight-ahead","-1","exposure",3,TRUE,FALSE,4,FALSE,"12"
"Jan 14 2015","04:08:14",33,"Live","No-social","Three",4,"Chrome",12,"Switch",0,"Novel36",1,"Novel95",3,1472,"straight-ahead","-1","test",3,TRUE,FALSE,4,FALSE,"12"
"Jan 14 2015","04:08:14",34,"Live","No-social","Three",4,"Chrome",13,"Same",1,"Novel42",0,"Novel42",0,1968,"straight-ahead","-1","test",3,TRUE,FALSE,4,TRUE,"12"
"Jan 14 2015","04:08:14",35,"Live","No-social","Three",4,"Chrome",14,"Switch",1,"Novel111",3,"Novel137",2,2558,"straight-ahead","-1","test",3,TRUE,FALSE,4,FALSE,"12"
"Jan 14 2015","04:08:14",36,"Live","No-social","Three",4,"Chrome",15,"Same",0,"Novel49",2,"Novel49",0,1757,"straight-ahead","-1","test",3,TRUE,FALSE,4,TRUE,"12"
"Jan 13 2015","21:49:38",1,"Live","No-social","Three",4,"Chrome",0,"Switch",0,"squirrel",0,"",0,5542,"up-left-4sec","0","example",3,TRUE,FALSE,4,TRUE,"13"
"Jan 13 2015","21:49:38",2,"Live","No-social","Three",4,"Chrome",0,"Switch",0,"squirrel",0,"",0,1968,"up-left-4sec","0","example",3,TRUE,FALSE,4,TRUE,"13"
"Jan 13 2015","21:49:38",3,"Live","No-social","Three",4,"Chrome",0,"Switch",0,"tomato",1,"",0,773,"up-right-4sec","1","example",3,TRUE,FALSE,4,TRUE,"13"
"Jan 13 2015","21:49:38",4,"Live","No-social","Three",4,"Chrome",0,"Switch",0,"tomato",2,"",0,631,"down-left-4sec","2","example",3,TRUE,FALSE,4,TRUE,"13"
"Jan 13 2015","21:49:38",5,"Live","No-social","Three",4,"Chrome",0,"Switch",0,"Novel71",1,"Novel94",3,7207,"straight-ahead","-1","exposure",3,TRUE,FALSE,4,FALSE,"13"
"Jan 13 2015","21:49:38",6,"Live","No-social","Three",4,"Chrome",1,"Same",0,"Novel69",0,"Novel69",0,3274,"straight-ahead","-1","exposure",3,TRUE,FALSE,4,FALSE,"13"
"Jan 13 2015","21:49:38",7,"Live","No-social","Three",4,"Chrome",2,"Switch",1,"Novel16",3,"Novel95",2,1985,"straight-ahead","-1","exposure",3,TRUE,FALSE,4,FALSE,"13"
"Jan 13 2015","21:49:38",8,"Live","No-social","Three",4,"Chrome",3,"Same",0,"Novel29",2,"Novel29",2,1011,"straight-ahead","-1","exposure",3,TRUE,FALSE,4,FALSE,"13"
"Jan 13 2015","21:49:38",9,"Live","No-social","Three",4,"Chrome",0,"Switch",0,"Novel94",1,"Novel94",3,2364,"straight-ahead","-1","test",3,TRUE,TRUE,4,TRUE,"13"
"Jan 13 2015","21:49:38",10,"Live","No-social","Three",4,"Chrome",1,"Same",0,"Novel69",1,"Novel69",0,1961,"straight-ahead","-1","test",3,TRUE,FALSE,4,TRUE,"13"
"Jan 13 2015","21:49:38",11,"Live","No-social","Three",4,"Chrome",2,"Switch",1,"Novel17",3,"Novel95",2,2352,"straight-ahead","-1","test",3,TRUE,FALSE,4,FALSE,"13"
"Jan 13 2015","21:49:38",12,"Live","No-social","Three",4,"Chrome",3,"Same",0,"Novel29",1,"Novel29",2,838,"straight-ahead","-1","test",3,TRUE,FALSE,4,TRUE,"13"
"Jan 13 2015","21:49:38",13,"Live","No-social","Three",4,"Chrome",4,"Switch",1,"Novel125",3,"Novel9",1,886,"straight-ahead","-1","exposure",3,TRUE,FALSE,4,FALSE,"13"
"Jan 13 2015","21:49:38",14,"Live","No-social","Three",4,"Chrome",5,"Same",1,"Novel122",3,"Novel122",3,918,"straight-ahead","-1","exposure",3,TRUE,FALSE,4,FALSE,"13"
"Jan 13 2015","21:49:38",15,"Live","No-social","Three",4,"Chrome",6,"Switch",0,"Novel126",1,"Novel25",0,1364,"straight-ahead","-1","exposure",3,TRUE,FALSE,4,FALSE,"13"
"Jan 13 2015","21:49:38",16,"Live","No-social","Three",4,"Chrome",7,"Same",1,"Novel58",3,"Novel58",3,1570,"straight-ahead","-1","exposure",3,TRUE,FALSE,4,FALSE,"13"
"Jan 13 2015","21:49:38",17,"Live","No-social","Three",4,"Chrome",4,"Switch",1,"Novel9",1,"Novel9",1,1210,"straight-ahead","-1","test",3,TRUE,FALSE,4,TRUE,"13"
"Jan 13 2015","21:49:38",18,"Live","No-social","Three",4,"Chrome",5,"Same",1,"Novel136",1,"Novel122",3,878,"straight-ahead","-1","test",3,TRUE,FALSE,4,FALSE,"13"
"Jan 13 2015","21:49:38",19,"Live","No-social","Three",4,"Chrome",6,"Switch",0,"Novel89",0,"Novel25",0,893,"straight-ahead","-1","test",3,TRUE,FALSE,4,FALSE,"13"
"Jan 13 2015","21:49:38",20,"Live","No-social","Three",4,"Chrome",7,"Same",1,"Novel58",3,"Novel58",3,2123,"straight-ahead","-1","test",3,TRUE,FALSE,4,TRUE,"13"
"Jan 13 2015","21:49:38",21,"Live","No-social","Three",4,"Chrome",8,"Switch",0,"Novel88",1,"Novel65",2,718,"straight-ahead","-1","exposure",3,TRUE,FALSE,4,FALSE,"13"
"Jan 13 2015","21:49:38",22,"Live","No-social","Three",4,"Chrome",9,"Same",0,"Novel15",0,"Novel15",0,952,"straight-ahead","-1","exposure",3,TRUE,FALSE,4,FALSE,"13"
"Jan 13 2015","21:49:38",23,"Live","No-social","Three",4,"Chrome",10,"Switch",1,"Novel52",2,"Novel43",0,941,"straight-ahead","-1","exposure",3,TRUE,FALSE,4,FALSE,"13"
"Jan 13 2015","21:49:38",24,"Live","No-social","Three",4,"Chrome",11,"Same",0,"Novel38",2,"Novel38",2,1524,"straight-ahead","-1","exposure",3,TRUE,FALSE,4,FALSE,"13"
"Jan 13 2015","21:49:38",25,"Live","No-social","Three",4,"Chrome",8,"Switch",0,"Novel100",2,"Novel65",2,886,"straight-ahead","-1","test",3,TRUE,FALSE,4,FALSE,"13"
"Jan 13 2015","21:49:38",26,"Live","No-social","Three",4,"Chrome",9,"Same",0,"Novel15",1,"Novel15",0,787,"straight-ahead","-1","test",3,TRUE,FALSE,4,TRUE,"13"
"Jan 13 2015","21:49:38",27,"Live","No-social","Three",4,"Chrome",10,"Switch",1,"Novel87",3,"Novel43",0,1045,"straight-ahead","-1","test",3,TRUE,FALSE,4,FALSE,"13"
"Jan 13 2015","21:49:38",28,"Live","No-social","Three",4,"Chrome",11,"Same",0,"Novel81",2,"Novel38",2,1099,"straight-ahead","-1","test",3,TRUE,FALSE,4,FALSE,"13"
"Jan 13 2015","21:49:38",29,"Live","No-social","Three",4,"Chrome",12,"Switch",1,"Novel112",0,"Novel55",3,1218,"straight-ahead","-1","exposure",3,TRUE,FALSE,4,FALSE,"13"
"Jan 13 2015","21:49:38",30,"Live","No-social","Three",4,"Chrome",13,"Same",1,"Novel106",1,"Novel106",1,838,"straight-ahead","-1","exposure",3,TRUE,FALSE,4,FALSE,"13"
"Jan 13 2015","21:49:38",31,"Live","No-social","Three",4,"Chrome",14,"Switch",0,"Novel75",0,"Novel6",2,939,"straight-ahead","-1","exposure",3,TRUE,FALSE,4,FALSE,"13"
"Jan 13 2015","21:49:38",32,"Live","No-social","Three",4,"Chrome",15,"Same",1,"Novel80",2,"Novel80",2,790,"straight-ahead","-1","exposure",3,TRUE,FALSE,4,FALSE,"13"
"Jan 13 2015","21:49:38",33,"Live","No-social","Three",4,"Chrome",12,"Switch",1,"Novel115",1,"Novel55",3,3891,"straight-ahead","-1","test",3,TRUE,FALSE,4,FALSE,"13"
"Jan 13 2015","21:49:38",34,"Live","No-social","Three",4,"Chrome",13,"Same",1,"Novel106",1,"Novel106",1,821,"straight-ahead","-1","test",3,TRUE,FALSE,4,TRUE,"13"
"Jan 13 2015","21:49:38",35,"Live","No-social","Three",4,"Chrome",14,"Switch",0,"Novel108",2,"Novel6",2,1459,"straight-ahead","-1","test",3,TRUE,FALSE,4,FALSE,"13"
"Jan 13 2015","21:49:38",36,"Live","No-social","Three",4,"Chrome",15,"Same",1,"Novel31",3,"Novel80",2,1220,"straight-ahead","-1","test",3,TRUE,FALSE,4,FALSE,"13"
"Jan 14 2015","08:16:08",1,"Live","Social","Three",4,"Chrome",0,"Same",0,"squirrel",0,"",0,1099,"up-left-4sec","0","example",3,TRUE,FALSE,4,TRUE,"14"
"Jan 14 2015","08:16:08",2,"Live","Social","Three",4,"Chrome",0,"Same",0,"squirrel",0,"",0,474,"up-left-4sec","0","example",3,TRUE,FALSE,4,TRUE,"14"
"Jan 14 2015","08:16:08",3,"Live","Social","Three",4,"Chrome",0,"Same",0,"tomato",1,"",0,569,"up-right-4sec","1","example",3,TRUE,FALSE,4,TRUE,"14"
"Jan 14 2015","08:16:08",4,"Live","Social","Three",4,"Chrome",0,"Same",0,"tomato",2,"",0,558,"down-left-4sec","2","example",3,TRUE,FALSE,4,TRUE,"14"
"Jan 14 2015","08:16:08",5,"Live","Social","Three",4,"Chrome",0,"Same",0,"Novel56",3,"Novel56",3,594,"straight-ahead","-1","exposure",3,TRUE,FALSE,4,FALSE,"14"
"Jan 14 2015","08:16:08",6,"Live","Social","Three",4,"Chrome",1,"Switch",1,"Novel70",3,"Novel50",1,711,"straight-ahead","-1","exposure",3,TRUE,FALSE,4,FALSE,"14"
"Jan 14 2015","08:16:08",7,"Live","Social","Three",4,"Chrome",2,"Same",1,"Novel8",1,"Novel8",1,350,"straight-ahead","-1","exposure",3,TRUE,FALSE,4,FALSE,"14"
"Jan 14 2015","08:16:08",8,"Live","Social","Three",4,"Chrome",3,"Switch",1,"Novel113",1,"Novel126",2,690,"straight-ahead","-1","exposure",3,TRUE,FALSE,4,FALSE,"14"
"Jan 14 2015","08:16:08",9,"Live","Social","Three",4,"Chrome",0,"Same",0,"Novel135",0,"Novel56",3,1997,"straight-ahead","-1","test",3,TRUE,TRUE,4,FALSE,"14"
"Jan 14 2015","08:16:08",10,"Live","Social","Three",4,"Chrome",1,"Switch",1,"Novel68",2,"Novel50",1,1406,"straight-ahead","-1","test",3,TRUE,FALSE,4,FALSE,"14"
"Jan 14 2015","08:16:08",11,"Live","Social","Three",4,"Chrome",2,"Same",1,"Novel26",0,"Novel8",1,1122,"straight-ahead","-1","test",3,TRUE,FALSE,4,FALSE,"14"
"Jan 14 2015","08:16:08",12,"Live","Social","Three",4,"Chrome",3,"Switch",1,"Novel140",3,"Novel126",2,766,"straight-ahead","-1","test",3,TRUE,FALSE,4,FALSE,"14"
"Jan 14 2015","08:16:08",13,"Live","Social","Three",4,"Chrome",4,"Same",0,"Novel61",0,"Novel61",0,685,"straight-ahead","-1","exposure",3,TRUE,FALSE,4,FALSE,"14"
"Jan 14 2015","08:16:08",14,"Live","Social","Three",4,"Chrome",5,"Switch",0,"Novel49",2,"Novel74",3,388,"straight-ahead","-1","exposure",3,TRUE,FALSE,4,FALSE,"14"
"Jan 14 2015","08:16:08",15,"Live","Social","Three",4,"Chrome",6,"Same",1,"Novel129",2,"Novel129",2,781,"straight-ahead","-1","exposure",3,TRUE,FALSE,4,FALSE,"14"
"Jan 14 2015","08:16:08",16,"Live","Social","Three",4,"Chrome",7,"Switch",0,"Novel94",3,"Novel11",1,537,"straight-ahead","-1","exposure",3,TRUE,FALSE,4,FALSE,"14"
"Jan 14 2015","08:16:08",17,"Live","Social","Three",4,"Chrome",4,"Same",0,"Novel36",0,"Novel61",0,1125,"straight-ahead","-1","test",3,TRUE,FALSE,4,FALSE,"14"
"Jan 14 2015","08:16:08",18,"Live","Social","Three",4,"Chrome",5,"Switch",0,"Novel85",1,"Novel74",3,1019,"straight-ahead","-1","test",3,TRUE,FALSE,4,FALSE,"14"
"Jan 14 2015","08:16:08",19,"Live","Social","Three",4,"Chrome",6,"Same",1,"Novel129",2,"Novel129",2,1067,"straight-ahead","-1","test",3,TRUE,FALSE,4,TRUE,"14"
"Jan 14 2015","08:16:08",20,"Live","Social","Three",4,"Chrome",7,"Switch",0,"Novel11",3,"Novel11",1,643,"straight-ahead","-1","test",3,TRUE,FALSE,4,TRUE,"14"
"Jan 14 2015","08:16:08",21,"Live","Social","Three",4,"Chrome",8,"Same",0,"Novel45",3,"Novel45",3,477,"straight-ahead","-1","exposure",3,TRUE,FALSE,4,FALSE,"14"
"Jan 14 2015","08:16:08",22,"Live","Social","Three",4,"Chrome",9,"Switch",1,"Novel76",3,"Novel57",1,328,"straight-ahead","-1","exposure",3,TRUE,FALSE,4,FALSE,"14"
"Jan 14 2015","08:16:08",23,"Live","Social","Three",4,"Chrome",10,"Same",1,"Novel54",1,"Novel54",1,607,"straight-ahead","-1","exposure",3,TRUE,FALSE,4,FALSE,"14"
"Jan 14 2015","08:16:08",24,"Live","Social","Three",4,"Chrome",11,"Switch",1,"Novel133",0,"Novel62",3,961,"straight-ahead","-1","exposure",3,TRUE,FALSE,4,FALSE,"14"
"Jan 14 2015","08:16:08",25,"Live","Social","Three",4,"Chrome",8,"Same",0,"Novel45",2,"Novel45",3,1242,"straight-ahead","-1","test",3,TRUE,FALSE,4,TRUE,"14"
"Jan 14 2015","08:16:08",26,"Live","Social","Three",4,"Chrome",9,"Switch",1,"Novel115",3,"Novel57",1,987,"straight-ahead","-1","test",3,TRUE,FALSE,4,FALSE,"14"
"Jan 14 2015","08:16:08",27,"Live","Social","Three",4,"Chrome",10,"Same",1,"Novel54",1,"Novel54",1,1058,"straight-ahead","-1","test",3,TRUE,FALSE,4,TRUE,"14"
"Jan 14 2015","08:16:08",28,"Live","Social","Three",4,"Chrome",11,"Switch",1,"Novel86",0,"Novel62",3,580,"straight-ahead","-1","test",3,TRUE,FALSE,4,FALSE,"14"
"Jan 14 2015","08:16:08",29,"Live","Social","Three",4,"Chrome",12,"Same",0,"Novel31",1,"Novel31",1,354,"straight-ahead","-1","exposure",3,TRUE,FALSE,4,FALSE,"14"
"Jan 14 2015","08:16:08",30,"Live","Social","Three",4,"Chrome",13,"Switch",0,"Novel117",2,"Novel25",1,823,"straight-ahead","-1","exposure",3,TRUE,FALSE,4,FALSE,"14"
"Jan 14 2015","08:16:08",31,"Live","Social","Three",4,"Chrome",14,"Same",1,"Novel71",3,"Novel71",3,246,"straight-ahead","-1","exposure",3,TRUE,FALSE,4,FALSE,"14"
"Jan 14 2015","08:16:08",32,"Live","Social","Three",4,"Chrome",15,"Switch",0,"Novel87",3,"Novel13",1,187,"straight-ahead","-1","exposure",3,TRUE,FALSE,4,FALSE,"14"
"Jan 14 2015","08:16:08",33,"Live","Social","Three",4,"Chrome",12,"Same",0,"Novel75",1,"Novel31",1,413,"straight-ahead","-1","test",3,TRUE,FALSE,4,FALSE,"14"
"Jan 14 2015","08:16:08",34,"Live","Social","Three",4,"Chrome",13,"Switch",0,"Novel101",0,"Novel25",1,763,"straight-ahead","-1","test",3,TRUE,FALSE,4,FALSE,"14"
"Jan 14 2015","08:16:08",35,"Live","Social","Three",4,"Chrome",14,"Same",1,"Novel67",2,"Novel71",3,571,"straight-ahead","-1","test",3,TRUE,FALSE,4,FALSE,"14"
"Jan 14 2015","08:16:08",36,"Live","Social","Three",4,"Chrome",15,"Switch",0,"Novel13",3,"Novel13",1,634,"straight-ahead","-1","test",3,TRUE,FALSE,4,TRUE,"14"
"Jan 14 2015","05:16:17",1,"Live","Social","Three",4,"Mozilla",0,"Same",1,"squirrel",0,"",0,4528,"up-left-4sec","0","example",3,TRUE,FALSE,4,TRUE,"15"
"Jan 14 2015","05:16:17",2,"Live","Social","Three",4,"Mozilla",0,"Same",1,"squirrel",0,"",0,968,"up-left-4sec","0","example",3,TRUE,FALSE,4,TRUE,"15"
"Jan 14 2015","05:16:17",3,"Live","Social","Three",4,"Mozilla",0,"Same",1,"tomato",1,"",0,955,"up-right-4sec","1","example",3,TRUE,FALSE,4,TRUE,"15"
"Jan 14 2015","05:16:17",4,"Live","Social","Three",4,"Mozilla",0,"Same",1,"tomato",2,"",0,817,"down-left-4sec","2","example",3,TRUE,FALSE,4,TRUE,"15"
"Jan 14 2015","05:16:17",5,"Live","Social","Three",4,"Mozilla",0,"Same",1,"Novel77",0,"Novel77",0,6816,"straight-ahead","-1","exposure",3,TRUE,FALSE,4,FALSE,"15"
"Jan 14 2015","05:16:17",6,"Live","Social","Three",4,"Mozilla",1,"Switch",1,"Novel18",2,"Novel1",0,3843,"straight-ahead","-1","exposure",3,TRUE,FALSE,4,FALSE,"15"
"Jan 14 2015","05:16:17",7,"Live","Social","Three",4,"Mozilla",2,"Same",0,"Novel22",1,"Novel22",1,3859,"straight-ahead","-1","exposure",3,TRUE,FALSE,4,FALSE,"15"
"Jan 14 2015","05:16:17",8,"Live","Social","Three",4,"Mozilla",3,"Switch",1,"Novel94",1,"Novel31",0,1913,"straight-ahead","-1","exposure",3,TRUE,FALSE,4,FALSE,"15"
"Jan 14 2015","05:16:17",9,"Live","Social","Three",4,"Mozilla",0,"Same",1,"Novel77",0,"Novel77",0,1152,"straight-ahead","-1","test",3,TRUE,TRUE,4,TRUE,"15"
"Jan 14 2015","05:16:17",10,"Live","Social","Three",4,"Mozilla",1,"Switch",1,"Novel34",3,"Novel1",0,5238,"straight-ahead","-1","test",3,TRUE,FALSE,4,FALSE,"15"
"Jan 14 2015","05:16:17",11,"Live","Social","Three",4,"Mozilla",2,"Same",0,"Novel22",2,"Novel22",1,1737,"straight-ahead","-1","test",3,TRUE,FALSE,4,TRUE,"15"
"Jan 14 2015","05:16:17",12,"Live","Social","Three",4,"Mozilla",3,"Switch",1,"Novel31",0,"Novel31",0,4532,"straight-ahead","-1","test",3,TRUE,FALSE,4,TRUE,"15"
"Jan 14 2015","05:16:17",13,"Live","Social","Three",4,"Mozilla",4,"Same",0,"Novel14",3,"Novel14",3,1492,"straight-ahead","-1","exposure",3,TRUE,FALSE,4,FALSE,"15"
"Jan 14 2015","05:16:17",14,"Live","Social","Three",4,"Mozilla",5,"Switch",0,"Novel80",2,"Novel48",0,1201,"straight-ahead","-1","exposure",3,TRUE,FALSE,4,FALSE,"15"
"Jan 14 2015","05:16:17",15,"Live","Social","Three",4,"Mozilla",6,"Same",1,"Novel53",1,"Novel53",1,5222,"straight-ahead","-1","exposure",3,TRUE,FALSE,4,FALSE,"15"
"Jan 14 2015","05:16:17",16,"Live","Social","Three",4,"Mozilla",7,"Switch",0,"Novel134",2,"Novel133",1,2599,"straight-ahead","-1","exposure",3,TRUE,FALSE,4,FALSE,"15"
"Jan 14 2015","05:16:17",17,"Live","Social","Three",4,"Mozilla",4,"Same",0,"Novel14",0,"Novel14",3,1474,"straight-ahead","-1","test",3,TRUE,FALSE,4,TRUE,"15"
"Jan 14 2015","05:16:17",18,"Live","Social","Three",4,"Mozilla",5,"Switch",0,"Novel66",2,"Novel48",0,1270,"straight-ahead","-1","test",3,TRUE,FALSE,4,FALSE,"15"
"Jan 14 2015","05:16:17",19,"Live","Social","Three",4,"Mozilla",6,"Same",1,"Novel53",1,"Novel53",1,508,"straight-ahead","-1","test",3,TRUE,FALSE,4,TRUE,"15"
"Jan 14 2015","05:16:17",20,"Live","Social","Three",4,"Mozilla",7,"Switch",0,"Novel42",3,"Novel133",1,5869,"straight-ahead","-1","test",3,TRUE,FALSE,4,FALSE,"15"
"Jan 14 2015","05:16:17",21,"Live","Social","Three",4,"Mozilla",8,"Same",1,"Novel83",3,"Novel83",3,2893,"straight-ahead","-1","exposure",3,TRUE,FALSE,4,FALSE,"15"
"Jan 14 2015","05:16:17",22,"Live","Social","Three",4,"Mozilla",9,"Switch",1,"Novel107",3,"Novel54",0,3512,"straight-ahead","-1","exposure",3,TRUE,FALSE,4,FALSE,"15"
"Jan 14 2015","05:16:17",23,"Live","Social","Three",4,"Mozilla",10,"Same",0,"Novel79",1,"Novel79",1,3352,"straight-ahead","-1","exposure",3,TRUE,FALSE,4,FALSE,"15"
"Jan 14 2015","05:16:17",24,"Live","Social","Three",4,"Mozilla",11,"Switch",1,"Novel41",0,"Novel123",3,5568,"straight-ahead","-1","exposure",3,TRUE,FALSE,4,FALSE,"15"
"Jan 14 2015","05:16:17",25,"Live","Social","Three",4,"Mozilla",8,"Same",1,"Novel83",3,"Novel83",3,1052,"straight-ahead","-1","test",3,TRUE,FALSE,4,TRUE,"15"
"Jan 14 2015","05:16:17",26,"Live","Social","Three",4,"Mozilla",9,"Switch",1,"Novel54",0,"Novel54",0,11026,"straight-ahead","-1","test",3,TRUE,FALSE,4,TRUE,"15"
"Jan 14 2015","05:16:17",27,"Live","Social","Three",4,"Mozilla",10,"Same",0,"Novel79",2,"Novel79",1,1061,"straight-ahead","-1","test",3,TRUE,FALSE,4,TRUE,"15"
"Jan 14 2015","05:16:17",28,"Live","Social","Three",4,"Mozilla",11,"Switch",1,"Novel123",3,"Novel123",3,2560,"straight-ahead","-1","test",3,TRUE,FALSE,4,TRUE,"15"
"Jan 14 2015","05:16:17",29,"Live","Social","Three",4,"Mozilla",12,"Same",0,"Novel25",1,"Novel25",1,2256,"straight-ahead","-1","exposure",3,TRUE,FALSE,4,FALSE,"15"
"Jan 14 2015","05:16:17",30,"Live","Social","Three",4,"Mozilla",13,"Switch",0,"Novel12",3,"Novel90",1,2697,"straight-ahead","-1","exposure",3,TRUE,FALSE,4,FALSE,"15"
"Jan 14 2015","05:16:17",31,"Live","Social","Three",4,"Mozilla",14,"Same",1,"Novel52",0,"Novel52",0,2378,"straight-ahead","-1","exposure",3,TRUE,FALSE,4,FALSE,"15"
"Jan 14 2015","05:16:17",32,"Live","Social","Three",4,"Mozilla",15,"Switch",0,"Novel106",1,"Novel68",2,2551,"straight-ahead","-1","exposure",3,TRUE,FALSE,4,FALSE,"15"
"Jan 14 2015","05:16:17",33,"Live","Social","Three",4,"Mozilla",12,"Same",0,"Novel25",0,"Novel25",1,858,"straight-ahead","-1","test",3,TRUE,FALSE,4,TRUE,"15"
"Jan 14 2015","05:16:17",34,"Live","Social","Three",4,"Mozilla",13,"Switch",0,"Novel86",0,"Novel90",1,5078,"straight-ahead","-1","test",3,TRUE,FALSE,4,FALSE,"15"
"Jan 14 2015","05:16:17",35,"Live","Social","Three",4,"Mozilla",14,"Same",1,"Novel52",0,"Novel52",0,1007,"straight-ahead","-1","test",3,TRUE,FALSE,4,TRUE,"15"
"Jan 14 2015","05:16:17",36,"Live","Social","Three",4,"Mozilla",15,"Switch",0,"Novel68",3,"Novel68",2,4084,"straight-ahead","-1","test",3,TRUE,FALSE,4,TRUE,"15"
"Jan 14 2015","01:24:03",1,"Live","No-social","Three",4,"Chrome",0,"Switch",0,"squirrel",0,"",0,3207,"up-left-4sec","0","example",3,TRUE,FALSE,4,TRUE,"16"
"Jan 14 2015","01:24:03",2,"Live","No-social","Three",4,"Chrome",0,"Switch",0,"squirrel",0,"",0,944,"up-left-4sec","0","example",3,TRUE,FALSE,4,TRUE,"16"
"Jan 14 2015","01:24:03",3,"Live","No-social","Three",4,"Chrome",0,"Switch",0,"tomato",1,"",0,1671,"up-right-4sec","1","example",3,TRUE,FALSE,4,TRUE,"16"
"Jan 14 2015","01:24:03",4,"Live","No-social","Three",4,"Chrome",0,"Switch",0,"tomato",2,"",0,1117,"down-left-4sec","2","example",3,TRUE,FALSE,4,TRUE,"16"
"Jan 14 2015","01:24:03",5,"Live","No-social","Three",4,"Chrome",0,"Switch",0,"Novel24",1,"Novel41",3,3113,"straight-ahead","-1","exposure",3,TRUE,FALSE,4,FALSE,"16"
"Jan 14 2015","01:24:03",6,"Live","No-social","Three",4,"Chrome",1,"Same",0,"Novel128",0,"Novel128",0,2223,"straight-ahead","-1","exposure",3,TRUE,FALSE,4,FALSE,"16"
"Jan 14 2015","01:24:03",7,"Live","No-social","Three",4,"Chrome",2,"Switch",1,"Novel136",2,"Novel58",0,1111,"straight-ahead","-1","exposure",3,TRUE,FALSE,4,FALSE,"16"
"Jan 14 2015","01:24:03",8,"Live","No-social","Three",4,"Chrome",3,"Same",0,"Novel13",1,"Novel13",1,2373,"straight-ahead","-1","exposure",3,TRUE,FALSE,4,FALSE,"16"
"Jan 14 2015","01:24:03",9,"Live","No-social","Three",4,"Chrome",0,"Switch",0,"Novel78",1,"Novel41",3,2797,"straight-ahead","-1","test",3,TRUE,TRUE,4,FALSE,"16"
"Jan 14 2015","01:24:03",10,"Live","No-social","Three",4,"Chrome",1,"Same",0,"Novel68",2,"Novel128",0,1550,"straight-ahead","-1","test",3,TRUE,FALSE,4,FALSE,"16"
"Jan 14 2015","01:24:03",11,"Live","No-social","Three",4,"Chrome",2,"Switch",1,"Novel9",2,"Novel58",0,4282,"straight-ahead","-1","test",3,TRUE,FALSE,4,FALSE,"16"
"Jan 14 2015","01:24:03",12,"Live","No-social","Three",4,"Chrome",3,"Same",0,"Novel55",1,"Novel13",1,1827,"straight-ahead","-1","test",3,TRUE,FALSE,4,FALSE,"16"
"Jan 14 2015","01:24:03",13,"Live","No-social","Three",4,"Chrome",4,"Switch",1,"Novel25",3,"Novel81",2,1217,"straight-ahead","-1","exposure",3,TRUE,FALSE,4,FALSE,"16"
"Jan 14 2015","01:24:03",14,"Live","No-social","Three",4,"Chrome",5,"Same",1,"Novel73",1,"Novel73",1,1052,"straight-ahead","-1","exposure",3,TRUE,FALSE,4,FALSE,"16"
"Jan 14 2015","01:24:03",15,"Live","No-social","Three",4,"Chrome",6,"Switch",0,"Novel8",3,"Novel140",0,1093,"straight-ahead","-1","exposure",3,TRUE,FALSE,4,FALSE,"16"
"Jan 14 2015","01:24:03",16,"Live","No-social","Three",4,"Chrome",7,"Same",1,"Novel113",2,"Novel113",2,813,"straight-ahead","-1","exposure",3,TRUE,FALSE,4,FALSE,"16"
"Jan 14 2015","01:24:03",17,"Live","No-social","Three",4,"Chrome",4,"Switch",1,"Novel79",0,"Novel81",2,2733,"straight-ahead","-1","test",3,TRUE,FALSE,4,FALSE,"16"
"Jan 14 2015","01:24:03",18,"Live","No-social","Three",4,"Chrome",5,"Same",1,"Novel73",1,"Novel73",1,1229,"straight-ahead","-1","test",3,TRUE,FALSE,4,TRUE,"16"
"Jan 14 2015","01:24:03",19,"Live","No-social","Three",4,"Chrome",6,"Switch",0,"Novel74",3,"Novel140",0,1012,"straight-ahead","-1","test",3,TRUE,FALSE,4,FALSE,"16"
"Jan 14 2015","01:24:03",20,"Live","No-social","Three",4,"Chrome",7,"Same",1,"Novel116",3,"Novel113",2,1179,"straight-ahead","-1","test",3,TRUE,FALSE,4,FALSE,"16"
"Jan 14 2015","01:24:03",21,"Live","No-social","Three",4,"Chrome",8,"Switch",0,"Novel62",0,"Novel109",1,2022,"straight-ahead","-1","exposure",3,TRUE,FALSE,4,FALSE,"16"
"Jan 14 2015","01:24:03",22,"Live","No-social","Three",4,"Chrome",9,"Same",0,"Novel2",1,"Novel2",1,1535,"straight-ahead","-1","exposure",3,TRUE,FALSE,4,FALSE,"16"
"Jan 14 2015","01:24:03",23,"Live","No-social","Three",4,"Chrome",10,"Switch",1,"Novel84",3,"Novel135",2,989,"straight-ahead","-1","exposure",3,TRUE,FALSE,4,FALSE,"16"
"Jan 14 2015","01:24:03",24,"Live","No-social","Three",4,"Chrome",11,"Same",0,"Novel134",2,"Novel134",2,774,"straight-ahead","-1","exposure",3,TRUE,FALSE,4,FALSE,"16"
"Jan 14 2015","01:24:03",25,"Live","No-social","Three",4,"Chrome",8,"Switch",0,"Novel125",3,"Novel109",1,1744,"straight-ahead","-1","test",3,TRUE,FALSE,4,FALSE,"16"
"Jan 14 2015","01:24:03",26,"Live","No-social","Three",4,"Chrome",9,"Same",0,"Novel2",3,"Novel2",1,2146,"straight-ahead","-1","test",3,TRUE,FALSE,4,TRUE,"16"
"Jan 14 2015","01:24:03",27,"Live","No-social","Three",4,"Chrome",10,"Switch",1,"Novel66",0,"Novel135",2,1428,"straight-ahead","-1","test",3,TRUE,FALSE,4,FALSE,"16"
"Jan 14 2015","01:24:03",28,"Live","No-social","Three",4,"Chrome",11,"Same",0,"Novel10",1,"Novel134",2,739,"straight-ahead","-1","test",3,TRUE,FALSE,4,FALSE,"16"
"Jan 14 2015","01:24:03",29,"Live","No-social","Three",4,"Chrome",12,"Switch",1,"Novel40",2,"Novel102",3,1772,"straight-ahead","-1","exposure",3,TRUE,FALSE,4,FALSE,"16"
"Jan 14 2015","01:24:03",30,"Live","No-social","Three",4,"Chrome",13,"Same",1,"Novel16",3,"Novel16",3,1780,"straight-ahead","-1","exposure",3,TRUE,FALSE,4,FALSE,"16"
"Jan 14 2015","01:24:03",31,"Live","No-social","Three",4,"Chrome",14,"Switch",0,"Novel60",3,"Novel33",2,715,"straight-ahead","-1","exposure",3,TRUE,FALSE,4,FALSE,"16"
"Jan 14 2015","01:24:03",32,"Live","No-social","Three",4,"Chrome",15,"Same",1,"Novel12",1,"Novel12",1,1204,"straight-ahead","-1","exposure",3,TRUE,FALSE,4,FALSE,"16"
"Jan 14 2015","01:24:03",33,"Live","No-social","Three",4,"Chrome",12,"Switch",1,"Novel102",3,"Novel102",3,1916,"straight-ahead","-1","test",3,TRUE,FALSE,4,TRUE,"16"
"Jan 14 2015","01:24:03",34,"Live","No-social","Three",4,"Chrome",13,"Same",1,"Novel107",1,"Novel16",3,3365,"straight-ahead","-1","test",3,TRUE,FALSE,4,FALSE,"16"
"Jan 14 2015","01:24:03",35,"Live","No-social","Three",4,"Chrome",14,"Switch",0,"Novel126",3,"Novel33",2,2609,"straight-ahead","-1","test",3,TRUE,FALSE,4,FALSE,"16"
"Jan 14 2015","01:24:03",36,"Live","No-social","Three",4,"Chrome",15,"Same",1,"Novel12",1,"Novel12",1,1139,"straight-ahead","-1","test",3,TRUE,FALSE,4,TRUE,"16"
"Jan 14 2015","18:43:25",1,"Live","Social","Three",4,"Firefox",0,"Same",0,"squirrel",0,"",0,750,"up-left-4sec","0","example",3,TRUE,FALSE,4,TRUE,"17"
"Jan 14 2015","18:43:25",2,"Live","Social","Three",4,"Firefox",0,"Same",0,"squirrel",0,"",0,685,"up-left-4sec","0","example",3,TRUE,FALSE,4,TRUE,"17"
"Jan 14 2015","18:43:25",3,"Live","Social","Three",4,"Firefox",0,"Same",0,"tomato",1,"",0,1073,"up-right-4sec","1","example",3,TRUE,FALSE,4,TRUE,"17"
"Jan 14 2015","18:43:25",4,"Live","Social","Three",4,"Firefox",0,"Same",0,"tomato",2,"",0,884,"down-left-4sec","2","example",3,TRUE,FALSE,4,TRUE,"17"
"Jan 14 2015","18:43:25",5,"Live","Social","Three",4,"Firefox",0,"Same",0,"Novel127",2,"Novel127",2,1834,"straight-ahead","-1","exposure",3,TRUE,FALSE,4,FALSE,"17"
"Jan 14 2015","18:43:25",6,"Live","Social","Three",4,"Firefox",1,"Switch",1,"Novel129",0,"Novel49",3,1854,"straight-ahead","-1","exposure",3,TRUE,FALSE,4,FALSE,"17"
"Jan 14 2015","18:43:25",7,"Live","Social","Three",4,"Firefox",2,"Same",1,"Novel59",1,"Novel59",1,996,"straight-ahead","-1","exposure",3,TRUE,FALSE,4,FALSE,"17"
"Jan 14 2015","18:43:25",8,"Live","Social","Three",4,"Firefox",3,"Switch",0,"Novel99",3,"Novel125",1,1234,"straight-ahead","-1","exposure",3,TRUE,FALSE,4,FALSE,"17"
"Jan 14 2015","18:43:25",9,"Live","Social","Three",4,"Firefox",0,"Same",0,"Novel4",3,"Novel127",2,1495,"straight-ahead","-1","test",3,TRUE,TRUE,4,FALSE,"17"
"Jan 14 2015","18:43:25",10,"Live","Social","Three",4,"Firefox",1,"Switch",1,"Novel109",2,"Novel49",3,1262,"straight-ahead","-1","test",3,TRUE,FALSE,4,FALSE,"17"
"Jan 14 2015","18:43:25",11,"Live","Social","Three",4,"Firefox",2,"Same",1,"Novel59",1,"Novel59",1,619,"straight-ahead","-1","test",3,TRUE,FALSE,4,TRUE,"17"
"Jan 14 2015","18:43:25",12,"Live","Social","Three",4,"Firefox",3,"Switch",0,"Novel118",0,"Novel125",1,1125,"straight-ahead","-1","test",3,TRUE,FALSE,4,FALSE,"17"
"Jan 14 2015","18:43:25",13,"Live","Social","Three",4,"Firefox",4,"Same",0,"Novel75",0,"Novel75",0,998,"straight-ahead","-1","exposure",3,TRUE,FALSE,4,FALSE,"17"
"Jan 14 2015","18:43:25",14,"Live","Social","Three",4,"Firefox",5,"Switch",0,"Novel14",2,"Novel8",1,1032,"straight-ahead","-1","exposure",3,TRUE,FALSE,4,FALSE,"17"
"Jan 14 2015","18:43:25",15,"Live","Social","Three",4,"Firefox",6,"Same",1,"Novel121",1,"Novel121",1,702,"straight-ahead","-1","exposure",3,TRUE,FALSE,4,FALSE,"17"
"Jan 14 2015","18:43:25",16,"Live","Social","Three",4,"Firefox",7,"Switch",1,"Novel39",2,"Novel89",3,1297,"straight-ahead","-1","exposure",3,TRUE,FALSE,4,FALSE,"17"
"Jan 14 2015","18:43:25",17,"Live","Social","Three",4,"Firefox",4,"Same",0,"Novel45",3,"Novel75",0,870,"straight-ahead","-1","test",3,TRUE,FALSE,4,FALSE,"17"
"Jan 14 2015","18:43:25",18,"Live","Social","Three",4,"Firefox",5,"Switch",0,"Novel8",2,"Novel8",1,916,"straight-ahead","-1","test",3,TRUE,FALSE,4,TRUE,"17"
"Jan 14 2015","18:43:25",19,"Live","Social","Three",4,"Firefox",6,"Same",1,"Novel121",1,"Novel121",1,707,"straight-ahead","-1","test",3,TRUE,FALSE,4,TRUE,"17"
"Jan 14 2015","18:43:25",20,"Live","Social","Three",4,"Firefox",7,"Switch",1,"Novel3",2,"Novel89",3,1212,"straight-ahead","-1","test",3,TRUE,FALSE,4,FALSE,"17"
"Jan 14 2015","18:43:25",21,"Live","Social","Three",4,"Firefox",8,"Same",0,"Novel86",0,"Novel86",0,530,"straight-ahead","-1","exposure",3,TRUE,FALSE,4,FALSE,"17"
"Jan 14 2015","18:43:25",22,"Live","Social","Three",4,"Firefox",9,"Switch",1,"Novel87",1,"Novel92",2,503,"straight-ahead","-1","exposure",3,TRUE,FALSE,4,FALSE,"17"
"Jan 14 2015","18:43:25",23,"Live","Social","Three",4,"Firefox",10,"Same",1,"Novel36",3,"Novel36",3,779,"straight-ahead","-1","exposure",3,TRUE,FALSE,4,FALSE,"17"
"Jan 14 2015","18:43:25",24,"Live","Social","Three",4,"Firefox",11,"Switch",0,"Novel60",2,"Novel23",1,544,"straight-ahead","-1","exposure",3,TRUE,FALSE,4,FALSE,"17"
"Jan 14 2015","18:43:25",25,"Live","Social","Three",4,"Firefox",8,"Same",0,"Novel47",1,"Novel86",0,339,"straight-ahead","-1","test",3,TRUE,FALSE,4,FALSE,"17"
"Jan 14 2015","18:43:25",26,"Live","Social","Three",4,"Firefox",9,"Switch",1,"Novel97",0,"Novel92",2,322,"straight-ahead","-1","test",3,TRUE,FALSE,4,FALSE,"17"
"Jan 14 2015","18:43:25",27,"Live","Social","Three",4,"Firefox",10,"Same",1,"Novel90",2,"Novel36",3,727,"straight-ahead","-1","test",3,TRUE,FALSE,4,FALSE,"17"
"Jan 14 2015","18:43:25",28,"Live","Social","Three",4,"Firefox",11,"Switch",0,"Novel131",1,"Novel23",1,1685,"straight-ahead","-1","test",3,TRUE,FALSE,4,FALSE,"17"
"Jan 14 2015","18:43:25",29,"Live","Social","Three",4,"Firefox",12,"Same",0,"Novel65",3,"Novel65",3,606,"straight-ahead","-1","exposure",3,TRUE,FALSE,4,FALSE,"17"
"Jan 14 2015","18:43:25",30,"Live","Social","Three",4,"Firefox",13,"Switch",0,"Novel80",0,"Novel48",1,724,"straight-ahead","-1","exposure",3,TRUE,FALSE,4,FALSE,"17"
"Jan 14 2015","18:43:25",31,"Live","Social","Three",4,"Firefox",14,"Same",1,"Novel18",0,"Novel18",0,891,"straight-ahead","-1","exposure",3,TRUE,FALSE,4,FALSE,"17"
"Jan 14 2015","18:43:25",32,"Live","Social","Three",4,"Firefox",15,"Switch",1,"Novel53",1,"Novel124",3,222,"straight-ahead","-1","exposure",3,TRUE,FALSE,4,FALSE,"17"
"Jan 14 2015","18:43:25",33,"Live","Social","Three",4,"Firefox",12,"Same",0,"Novel34",2,"Novel65",3,467,"straight-ahead","-1","test",3,TRUE,FALSE,4,FALSE,"17"
"Jan 14 2015","18:43:25",34,"Live","Social","Three",4,"Firefox",13,"Switch",0,"Novel48",3,"Novel48",1,774,"straight-ahead","-1","test",3,TRUE,FALSE,4,TRUE,"17"
"Jan 14 2015","18:43:25",35,"Live","Social","Three",4,"Firefox",14,"Same",1,"Novel67",1,"Novel18",0,107,"straight-ahead","-1","test",3,TRUE,FALSE,4,FALSE,"17"
"Jan 14 2015","18:43:25",36,"Live","Social","Three",4,"Firefox",15,"Switch",1,"Novel57",0,"Novel124",3,253,"straight-ahead","-1","test",3,TRUE,FALSE,4,FALSE,"17"
"Jan 14 2015","15:49:44",1,"Live","Social","Three",4,"Chrome",0,"Switch",1,"squirrel",0,"",0,2004,"up-left-4sec","0","example",3,TRUE,FALSE,4,TRUE,"18"
"Jan 14 2015","15:49:44",2,"Live","Social","Three",4,"Chrome",0,"Switch",1,"squirrel",0,"",0,1128,"up-left-4sec","0","example",3,TRUE,FALSE,4,TRUE,"18"
"Jan 14 2015","15:49:44",3,"Live","Social","Three",4,"Chrome",0,"Switch",1,"tomato",1,"",0,705,"up-right-4sec","1","example",3,TRUE,FALSE,4,TRUE,"18"
"Jan 14 2015","15:49:44",4,"Live","Social","Three",4,"Chrome",0,"Switch",1,"tomato",2,"",0,433,"down-left-4sec","2","example",3,TRUE,FALSE,4,TRUE,"18"
"Jan 14 2015","15:49:44",5,"Live","Social","Three",4,"Chrome",0,"Switch",1,"Novel56",0,"Novel94",2,4096,"straight-ahead","-1","exposure",3,TRUE,FALSE,4,FALSE,"18"
"Jan 14 2015","15:49:44",6,"Live","Social","Three",4,"Chrome",1,"Same",1,"Novel109",2,"Novel109",2,2110,"straight-ahead","-1","exposure",3,TRUE,FALSE,4,FALSE,"18"
